,ts,id,Gx,Gy,Gz,Ax,Ay,Az
0,-0.331,IMU1,2.0121951219512195,-1.1585365853658538,-0.06097560975609757,-0.0458984375,0.9970703125,0.0166015625
1,-0.331,IMU2,0.7926829268292683,0.426829268292683,-0.6097560975609757,-0.0419921875,0.9921875,0.0263671875
2,-0.321,IMU0,-0.1829268292682927,0.5487804878048781,-0.24390243902439027,-0.03125,0.990234375,0.01171875
3,-0.321,IMU1,2.0121951219512195,-1.1585365853658538,-0.06097560975609757,-0.046875,0.9970703125,0.0185546875
4,-0.321,IMU2,0.7926829268292683,0.426829268292683,-0.6097560975609757,-0.0419921875,0.990234375,0.0263671875
5,-0.311,IMU0,-0.1829268292682927,0.48780487804878053,-0.24390243902439027,-0.0302734375,0.990234375,0.01171875
6,-0.311,IMU1,2.0121951219512195,-1.1585365853658538,-0.06097560975609757,-0.046875,0.998046875,0.017578125
7,-0.311,IMU2,0.7926829268292683,0.426829268292683,-0.6097560975609757,-0.0419921875,0.990234375,0.0263671875
8,-0.301,IMU0,-0.1829268292682927,0.48780487804878053,-0.24390243902439027,-0.0302734375,0.990234375,0.0126953125
9,-0.301,IMU1,2.0121951219512195,-1.0975609756097562,-0.06097560975609757,-0.046875,0.998046875,0.0166015625
10,-0.301,IMU2,0.7926829268292683,0.48780487804878053,-0.6097560975609757,-0.04296875,0.990234375,0.02734375
11,-0.291,IMU0,-0.1829268292682927,0.5487804878048781,-0.24390243902439027,-0.0302734375,0.990234375,0.013671875
12,-0.291,IMU1,1.9512195121951221,-1.0365853658536586,-0.12195121951219513,-0.046875,0.998046875,0.0185546875
13,-0.291,IMU2,0.7317073170731708,0.5487804878048781,-0.6707317073170732,-0.0419921875,0.9892578125,0.02734375
14,-0.281,IMU0,-0.1829268292682927,0.6097560975609757,-0.1829268292682927,-0.0302734375,0.990234375,0.013671875
15,-0.281,IMU1,2.0121951219512195,-1.0975609756097562,-0.06097560975609757,-0.0458984375,0.9990234375,0.0166015625
16,-0.281,IMU2,0.6707317073170732,0.5487804878048781,-0.6097560975609757,-0.041015625,0.9912109375,0.02734375
17,-0.271,IMU0,-0.12195121951219513,0.7317073170731708,-0.1829268292682927,-0.0283203125,0.9931640625,0.0126953125
18,-0.271,IMU1,2.0121951219512195,-0.9146341463414634,-0.06097560975609757,-0.04296875,1.001953125,0.017578125
19,-0.271,IMU2,0.6707317073170732,0.6707317073170732,-0.6707317073170732,-0.0400390625,0.9951171875,0.0263671875
20,-0.261,IMU0,-0.1829268292682927,0.853658536585366,-0.1829268292682927,-0.03125,0.986328125,0.013671875
21,-0.261,IMU1,2.0121951219512195,-0.7926829268292683,-0.06097560975609757,-0.044921875,0.994140625,0.01953125
22,-0.261,IMU2,0.6707317073170732,0.853658536585366,-0.6707317073170732,-0.041015625,0.986328125,0.0283203125
23,-0.251,IMU0,-0.1829268292682927,0.9146341463414634,-0.24390243902439027,-0.02734375,0.9921875,0.0126953125
24,-0.251,IMU1,2.0121951219512195,-0.6707317073170732,-0.06097560975609757,-0.0419921875,1.001953125,0.01953125
25,-0.251,IMU2,0.6707317073170732,0.9146341463414634,-0.6707317073170732,-0.0390625,0.9931640625,0.0263671875
26,-0.241,IMU0,-0.1829268292682927,0.9146341463414634,-0.30487804878048785,-0.0322265625,0.986328125,0.013671875
27,-0.241,IMU1,2.0121951219512195,-0.7317073170731708,-0.12195121951219513,-0.0478515625,0.9951171875,0.017578125
28,-0.241,IMU2,0.7317073170731708,0.9146341463414634,-0.7317073170731708,-0.04296875,0.9853515625,0.02734375
29,-0.231,IMU0,-0.1829268292682927,0.7317073170731708,-0.30487804878048785,-0.029296875,0.9931640625,0.0146484375
30,-0.231,IMU1,2.0121951219512195,-0.9146341463414634,-0.12195121951219513,-0.044921875,1.0029296875,0.0185546875
31,-0.231,IMU2,0.7317073170731708,0.7317073170731708,-0.6707317073170732,-0.0390625,0.9931640625,0.02734375
32,-0.221,IMU0,-0.1829268292682927,0.426829268292683,-0.30487804878048785,-0.033203125,0.9873046875,0.013671875
33,-0.221,IMU1,2.073170731707317,-1.2804878048780488,-0.12195121951219513,-0.0498046875,0.9970703125,0.0166015625
34,-0.221,IMU2,0.7317073170731708,0.48780487804878053,-0.7317073170731708,-0.0439453125,0.98828125,0.025390625
35,-0.211,IMU0,-0.1829268292682927,0.1829268292682927,-0.30487804878048785,-0.03125,0.9912109375,0.0126953125
36,-0.211,IMU1,2.0121951219512195,-1.4634146341463417,-0.12195121951219513,-0.0478515625,1.0009765625,0.0166015625
37,-0.211,IMU2,0.7926829268292683,0.24390243902439027,-0.7317073170731708,-0.0419921875,0.9912109375,0.0263671875
38,-0.201,IMU0,-0.1829268292682927,0.12195121951219513,-0.24390243902439027,-0.033203125,0.9912109375,0.009765625
39,-0.201,IMU1,2.0121951219512195,-1.4634146341463417,-0.12195121951219513,-0.0478515625,0.998046875,0.0166015625
40,-0.201,IMU2,0.7926829268292683,0.1829268292682927,-0.6707317073170732,-0.044921875,0.9912109375,0.0224609375
41,-0.191,IMU0,-0.1829268292682927,0.24390243902439027,-0.24390243902439027,-0.033203125,0.990234375,0.01171875
42,-0.191,IMU1,2.073170731707317,-1.3414634146341464,-0.06097560975609757,-0.0498046875,0.9970703125,0.017578125
43,-0.191,IMU2,0.7926829268292683,0.24390243902439027,-0.6097560975609757,-0.044921875,0.990234375,0.0234375
44,-0.181,IMU0,-0.12195121951219513,0.426829268292683,-0.24390243902439027,-0.03125,0.990234375,0.0107421875
45,-0.181,IMU1,2.073170731707317,-1.2195121951219514,-0.06097560975609757,-0.046875,0.9990234375,0.0185546875
46,-0.181,IMU2,0.7926829268292683,0.426829268292683,-0.6707317073170732,-0.04296875,0.990234375,0.0244140625
47,-0.171,IMU0,-0.1829268292682927,0.5487804878048781,-0.1829268292682927,-0.033203125,0.9931640625,0.009765625
48,-0.171,IMU1,1.9512195121951221,-1.0365853658536586,0.0,-0.048828125,1.0029296875,0.015625
49,-0.171,IMU2,0.7317073170731708,0.5487804878048781,-0.6097560975609757,-0.0439453125,0.9951171875,0.025390625
50,-0.161,IMU0,-0.1829268292682927,0.426829268292683,-0.1829268292682927,-0.0302734375,0.984375,0.0126953125
51,-0.161,IMU1,2.0121951219512195,-1.2195121951219514,0.0,-0.0458984375,0.994140625,0.0166015625
52,-0.161,IMU2,0.7317073170731708,0.48780487804878053,-0.6097560975609757,-0.0419921875,0.986328125,0.0244140625
53,-0.151,IMU0,-0.1829268292682927,0.24390243902439027,-0.24390243902439027,-0.033203125,0.9931640625,0.0126953125
54,-0.151,IMU1,2.0121951219512195,-1.402439024390244,-0.06097560975609757,-0.046875,1.0029296875,0.0185546875
55,-0.151,IMU2,0.7926829268292683,0.24390243902439027,-0.6707317073170732,-0.04296875,0.9951171875,0.025390625
56,-0.141,IMU0,-0.24390243902439027,0.06097560975609757,-0.24390243902439027,-0.03125,0.9873046875,0.01171875
57,-0.141,IMU1,1.9512195121951221,-1.6463414634146343,-0.06097560975609757,-0.0458984375,0.9970703125,0.0185546875
58,-0.141,IMU2,0.7317073170731708,0.0,-0.6707317073170732,-0.0400390625,0.98828125,0.025390625
59,-0.131,IMU0,-0.24390243902439027,-0.06097560975609757,-0.30487804878048785,-0.0302734375,0.9912109375,0.0126953125
60,-0.131,IMU1,2.0121951219512195,-1.829268292682927,-0.06097560975609757,-0.044921875,1.0009765625,0.01953125
61,-0.131,IMU2,0.7317073170731708,-0.06097560975609757,-0.6707317073170732,-0.0400390625,0.9931640625,0.02734375
62,-0.121,IMU0,-0.1829268292682927,0.0,-0.24390243902439027,-0.02734375,0.9970703125,0.0078125
63,-0.121,IMU1,2.073170731707317,-1.6463414634146343,-0.06097560975609757,-0.0419921875,1.0068359375,0.0146484375
64,-0.121,IMU2,0.7317073170731708,0.0,-0.6707317073170732,-0.037109375,0.9990234375,0.0244140625
65,-0.111,IMU0,0.0,0.1829268292682927,-0.24390243902439027,0.009765625,1.58984375,0.0205078125
66,-0.111,IMU1,2.1951219512195124,-1.4634146341463417,-0.12195121951219513,-0.015625,1.5947265625,0.0205078125
67,-0.111,IMU2,0.9146341463414634,0.12195121951219513,-0.6707317073170732,-0.0029296875,1.6201171875,0.0068359375
68,-0.101,IMU0,3.1707317073170733,-0.853658536585366,1.9512195121951221,0.1884765625,5.466796875,-0.0986328125
69,-0.101,IMU1,5.2439024390243905,-2.0121951219512195,2.1951219512195124,0.1103515625,5.4619140625,-0.0693359375
70,-0.101,IMU2,3.963414634146342,-0.6707317073170732,1.707317073170732,0.1767578125,5.564453125,-0.06640625
71,-0.091,IMU0,1.524390243902439,-3.2926829268292686,0.7317073170731708,-0.17578125,8.5009765625,0.056640625
72,-0.091,IMU1,3.414634146341464,-4.329268292682928,0.9756097560975611,-0.2998046875,8.5009765625,0.05078125
73,-0.091,IMU2,2.1951219512195124,-2.682926829268293,0.24390243902439027,-0.203125,8.546875,0.083984375
74,-0.081,IMU0,1.3414634146341464,-5.853658536585367,-0.853658536585366,-0.060546875,9.9013671875,0.1611328125
75,-0.081,IMU1,3.414634146341464,-4.329268292682928,0.9756097560975611,-0.2998046875,8.5009765625,0.05078125
76,-0.081,IMU2,2.5609756097560976,-5.426829268292684,-1.402439024390244,-0.0927734375,9.9267578125,0.1630859375
77,-0.071,IMU0,1.5853658536585367,-10.30487804878049,-2.0121951219512195,-0.0078125,10.5087890625,-0.0361328125
78,-0.071,IMU1,3.8414634146341466,-11.646341463414634,-1.8902439024390245,-0.1630859375,10.5146484375,-0.041015625
79,-0.071,IMU2,2.8658536585365857,-9.939024390243903,-2.5,-0.0419921875,10.5244140625,-0.0205078125
80,-0.061,IMU0,2.1951219512195124,-11.585365853658537,-1.8902439024390245,-0.029296875,10.8134765625,0.0361328125
81,-0.061,IMU1,3.8414634146341466,-12.682926829268293,-1.707317073170732,-0.1904296875,10.818359375,0.0263671875
82,-0.061,IMU2,3.536585365853659,-10.914634146341465,-2.3170731707317076,-0.060546875,10.828125,0.0458984375
83,-0.051,IMU0,2.8658536585365857,-10.548780487804878,-0.9756097560975611,0.00390625,10.904296875,-0.0166015625
84,-0.051,IMU1,5.731707317073171,-12.317073170731708,-0.9146341463414634,-0.1572265625,10.9111328125,-0.0185546875
85,-0.051,IMU2,4.207317073170732,-9.817073170731708,-1.4634146341463417,-0.0400390625,10.916015625,0.00390625
86,-0.041,IMU0,2.987804878048781,-9.878048780487806,-0.1829268292682927,0.0048828125,10.9873046875,-0.025390625
87,-0.041,IMU1,6.402439024390245,-11.951219512195124,-0.12195121951219513,-0.1591796875,10.9931640625,-0.029296875
88,-0.041,IMU2,4.024390243902439,-9.695121951219512,-0.6097560975609757,-0.0244140625,11.0029296875,-0.0087890625
89,-0.031,IMU0,2.987804878048781,-7.621951219512196,-0.06097560975609757,0.056640625,11.05859375,-0.0341796875
90,-0.031,IMU1,6.219512195121951,-9.451219512195122,0.0,-0.1064453125,11.06640625,-0.0302734375
91,-0.031,IMU2,3.963414634146342,-7.439024390243903,-0.5487804878048781,0.021484375,11.0693359375,-0.0283203125
92,-0.021,IMU0,2.5609756097560976,-3.1097560975609757,-1.1585365853658538,-0.005859375,11.0517578125,-0.046875
93,-0.021,IMU1,5.182926829268293,-4.75609756097561,-1.0365853658536586,-0.173828125,11.05859375,-0.0478515625
94,-0.021,IMU2,3.4756097560975614,-2.9268292682926833,-1.6463414634146343,-0.056640625,11.0615234375,-0.0126953125
95,-0.011,IMU0,2.1951219512195124,-0.9756097560975611,-3.1097560975609757,-0.001953125,11.0908203125,-0.048828125
96,-0.011,IMU1,4.451219512195122,-2.439024390243903,-2.8658536585365857,-0.171875,11.099609375,-0.0498046875
97,-0.011,IMU2,2.8658536585365857,-0.853658536585366,-3.5975609756097566,-0.0390625,11.107421875,-0.0302734375
98,-0.001,IMU0,2.439024390243903,4.75609756097561,-4.634146341463415,0.0234375,11.119140625,-0.109375
99,-0.001,IMU1,4.451219512195122,3.4756097560975614,-4.390243902439025,-0.14453125,11.1279296875,-0.111328125
100,-0.001,IMU2,3.1707317073170733,5.121951219512195,-5.121951219512195,-0.015625,11.1279296875,-0.07421875
101,0.009,IMU0,3.353658536585366,11.097560975609756,-5.853658536585367,-0.013671875,11.1064453125,-0.0751953125
102,0.009,IMU1,5.121951219512195,9.878048780487806,-5.548780487804878,-0.1767578125,11.11328125,-0.0830078125
103,0.009,IMU2,4.2682926829268295,11.097560975609756,-6.219512195121951,-0.052734375,11.1181640625,-0.0634765625
104,0.019,IMU0,4.634146341463415,15.79268292682927,-6.52439024390244,0.0078125,11.1611328125,-0.0771484375
105,0.019,IMU1,6.402439024390245,14.51219512195122,-6.158536585365854,-0.1591796875,11.1689453125,-0.0830078125
106,0.019,IMU2,5.548780487804878,16.097560975609756,-6.829268292682928,-0.0361328125,11.1748046875,-0.0517578125
107,0.029,IMU0,5.731707317073171,14.146341463414636,-6.402439024390245,-0.0263671875,11.23046875,-0.0732421875
108,0.029,IMU1,7.134146341463415,12.926829268292684,-6.097560975609756,-0.1904296875,11.23828125,-0.0771484375
109,0.029,IMU2,6.463414634146342,13.841463414634148,-6.646341463414635,-0.048828125,11.23828125,-0.048828125
110,0.039,IMU0,5.670731707317073,11.097560975609756,-5.914634146341464,-0.0634765625,11.2255859375,-0.0654296875
111,0.039,IMU1,7.378048780487806,9.634146341463415,-5.548780487804878,-0.23046875,11.2314453125,-0.0703125
112,0.039,IMU2,6.2804878048780495,10.670731707317074,-6.097560975609756,-0.1064453125,11.236328125,-0.064453125
113,0.049,IMU0,4.329268292682928,10.853658536585368,-4.573170731707317,-0.0625,11.1953125,-0.1533203125
114,0.049,IMU1,6.097560975609756,9.51219512195122,-4.329268292682928,-0.2275390625,11.201171875,-0.1552734375
115,0.049,IMU2,4.878048780487806,10.853658536585368,-4.817073170731708,-0.10546875,11.201171875,-0.1279296875
116,0.059,IMU0,1.829268292682927,13.414634146341465,-2.987804878048781,-0.1279296875,11.2158203125,-0.04296875
117,0.059,IMU1,3.5975609756097566,11.951219512195124,-2.8658536585365857,-0.2919921875,11.22265625,-0.0400390625
118,0.059,IMU2,2.5,13.353658536585368,-3.2926829268292686,-0.1416015625,11.23046875,0.0126953125
119,0.069,IMU0,-0.5487804878048781,14.573170731707318,-1.2195121951219514,-0.0244140625,11.2734375,-0.1259765625
120,0.069,IMU1,1.3414634146341464,13.231707317073171,-1.0365853658536586,-0.189453125,11.2802734375,-0.126953125
121,0.069,IMU2,0.3658536585365854,14.939024390243905,-1.4634146341463417,-0.08203125,11.2880859375,-0.115234375
122,0.079,IMU0,-1.7682926829268295,21.097560975609756,0.12195121951219513,-0.0703125,11.2841796875,-0.142578125
123,0.079,IMU1,0.0,19.695121951219512,0.3658536585365854,-0.236328125,11.291015625,-0.14453125
124,0.079,IMU2,-0.853658536585366,21.646341463414636,-0.12195121951219513,-0.09765625,11.296875,-0.1064453125
125,0.089,IMU0,-2.5,28.475609756097562,1.1585365853658538,-0.033203125,11.2861328125,-0.06640625
126,0.089,IMU1,-0.6097560975609757,27.012195121951223,1.3414634146341464,-0.1962890625,11.294921875,-0.0712890625
127,0.089,IMU2,-1.7682926829268295,28.658536585365855,0.853658536585366,-0.08203125,11.30078125,-0.0283203125
128,0.099,IMU0,-3.414634146341464,34.268292682926834,1.829268292682927,-0.0439453125,11.306640625,-0.029296875
129,0.099,IMU1,-1.829268292682927,32.80487804878049,2.0121951219512195,-0.216796875,11.3134765625,-0.0341796875
130,0.099,IMU2,-2.682926829268293,34.268292682926834,1.3414634146341464,-0.103515625,11.3203125,-0.01171875
131,0.109,IMU0,-4.451219512195122,39.207317073170735,1.3414634146341464,-0.041015625,11.318359375,0.0126953125
132,0.109,IMU1,-2.9268292682926833,37.743902439024396,1.5853658536585367,-0.2119140625,11.3271484375,0.0087890625
133,0.109,IMU2,-3.7195121951219514,39.390243902439025,0.9756097560975611,-0.068359375,11.3310546875,0.0341796875
134,0.119,IMU0,-5.7926829268292686,41.40243902439025,1.0365853658536586,0.001953125,11.306640625,0.0009765625
135,0.119,IMU1,-4.146341463414634,39.81707317073171,1.2804878048780488,-0.1650390625,11.314453125,-0.0009765625
136,0.119,IMU2,-5.060975609756098,41.58536585365854,0.6707317073170732,-0.044921875,11.31640625,0.0283203125
137,0.129,IMU0,-7.073170731707318,42.5609756097561,0.6097560975609757,-0.017578125,11.2890625,0.01953125
138,0.129,IMU1,-5.487804878048781,41.03658536585366,0.7926829268292683,-0.1826171875,11.296875,0.0185546875
139,0.129,IMU2,-6.341463414634147,42.5609756097561,0.30487804878048785,-0.046875,11.30078125,0.0478515625
140,0.139,IMU0,-8.414634146341465,43.35365853658537,0.12195121951219513,-0.001953125,11.27734375,0.0234375
141,0.139,IMU1,-6.829268292682928,41.82926829268293,0.3658536585365854,-0.16796875,11.28515625,0.0224609375
142,0.139,IMU2,-7.743902439024391,43.35365853658537,-0.24390243902439027,-0.037109375,11.2890625,0.0458984375
143,0.149,IMU0,-9.817073170731708,43.963414634146346,-0.5487804878048781,-0.01171875,11.248046875,0.041015625
144,0.149,IMU1,-8.231707317073171,42.50000000000001,-0.30487804878048785,-0.1787109375,11.2578125,0.0419921875
145,0.149,IMU2,-9.146341463414634,44.08536585365854,-0.9146341463414634,-0.0439453125,11.255859375,0.0673828125
146,0.159,IMU0,-10.975609756097562,44.51219512195122,-1.7682926829268295,-0.0185546875,11.1875,0.009765625
147,0.159,IMU1,-9.573170731707318,42.987804878048784,-1.524390243902439,-0.1845703125,11.197265625,0.0068359375
148,0.159,IMU2,-10.365853658536587,44.451219512195124,-2.1951219512195124,-0.0693359375,11.1982421875,0.025390625
149,0.169,IMU0,-11.951219512195124,45.0609756097561,-3.8414634146341466,-0.052734375,11.1474609375,0.013671875
150,0.169,IMU1,-10.487804878048781,43.41463414634147,-3.5975609756097566,-0.216796875,11.1552734375,0.0107421875
151,0.169,IMU2,-11.28048780487805,45.00000000000001,-4.390243902439025,-0.0859375,11.158203125,0.0341796875
152,0.179,IMU0,-12.987804878048781,45.426829268292686,-5.914634146341464,0.0,11.0947265625,0.025390625
153,0.179,IMU1,-11.52439024390244,43.78048780487805,-5.670731707317073,-0.1630859375,11.1044921875,0.0244140625
154,0.179,IMU2,-12.317073170731708,45.36585365853659,-6.463414634146342,-0.0390625,11.099609375,0.0478515625
155,0.189,IMU0,-14.207317073170733,45.91463414634147,-7.682926829268293,-0.021484375,11.0380859375,0.0107421875
156,0.189,IMU1,-12.865853658536587,44.268292682926834,-7.682926829268293,-0.1845703125,11.046875,0.01171875
157,0.189,IMU2,-13.536585365853659,45.85365853658537,-8.231707317073171,-0.0546875,11.044921875,0.03515625
158,0.199,IMU0,-15.426829268292684,46.15853658536586,-9.207317073170733,0.0234375,10.9794921875,0.0205078125
159,0.199,IMU1,-14.146341463414636,44.63414634146342,-9.146341463414634,-0.138671875,10.990234375,0.021484375
160,0.199,IMU2,-14.878048780487806,46.21951219512196,-9.695121951219512,-0.013671875,10.986328125,0.04296875
161,0.209,IMU0,-16.585365853658537,46.463414634146346,-10.548780487804878,0.0078125,10.935546875,-0.0009765625
162,0.209,IMU1,-15.182926829268293,44.75609756097561,-10.426829268292684,-0.1484375,10.94140625,-0.00390625
163,0.209,IMU2,-15.975609756097562,46.34146341463415,-11.036585365853659,-0.0224609375,10.9453125,0.0185546875
164,0.219,IMU0,-17.5,46.463414634146346,-11.585365853658537,0.046875,10.9072265625,-0.0029296875
165,0.219,IMU1,-16.158536585365855,44.75609756097561,-11.463414634146343,-0.1142578125,10.916015625,-0.0029296875
166,0.219,IMU2,-16.890243902439025,46.34146341463415,-12.134146341463415,0.0107421875,10.91796875,0.021484375
167,0.229,IMU0,-18.170731707317074,46.40243902439025,-12.560975609756099,0.033203125,10.85546875,-0.0234375
168,0.229,IMU1,-16.82926829268293,44.63414634146342,-12.317073170731708,-0.1201171875,10.861328125,-0.0302734375
169,0.229,IMU2,-17.5609756097561,46.28048780487805,-12.987804878048781,0.005859375,10.8642578125,-0.005859375
170,0.239,IMU0,-18.658536585365855,46.21951219512196,-13.170731707317074,0.06640625,10.8173828125,-0.029296875
171,0.239,IMU1,-17.195121951219512,44.390243902439025,-12.926829268292684,-0.087890625,10.8203125,-0.0390625
172,0.239,IMU2,-17.98780487804878,46.09756097560976,-13.597560975609758,0.037109375,10.8232421875,-0.015625
173,0.249,IMU0,-18.902439024390244,46.09756097560976,-13.597560975609758,0.05859375,10.783203125,-0.048828125
174,0.249,IMU1,-17.5,44.390243902439025,-13.353658536585368,-0.0908203125,10.7900390625,-0.0595703125
175,0.249,IMU2,-18.170731707317074,45.97560975609756,-13.963414634146343,0.03515625,10.79296875,-0.0361328125
176,0.259,IMU0,-19.085365853658537,46.09756097560976,-13.78048780487805,0.0908203125,10.759765625,-0.0576171875
177,0.259,IMU1,-17.743902439024392,44.451219512195124,-13.475609756097562,-0.068359375,10.7626953125,-0.052734375
178,0.259,IMU2,-18.414634146341466,45.97560975609756,-14.02439024390244,0.0576171875,10.765625,-0.0283203125
179,0.269,IMU0,-18.597560975609756,45.91463414634147,-13.170731707317074,0.1142578125,10.6806640625,-0.103515625
180,0.269,IMU1,-17.134146341463417,44.268292682926834,-12.926829268292684,-0.0390625,10.689453125,-0.107421875
181,0.269,IMU2,-17.865853658536587,45.85365853658537,-13.536585365853659,0.0869140625,10.69140625,-0.0859375
182,0.279,IMU0,-17.621951219512198,45.60975609756098,-12.256097560975611,0.1279296875,10.6103515625,-0.125
183,0.279,IMU1,-16.219512195121954,43.963414634146346,-12.01219512195122,-0.0263671875,10.619140625,-0.1279296875
184,0.279,IMU2,-16.890243902439025,45.54878048780488,-12.560975609756099,0.099609375,10.6220703125,-0.1064453125
185,0.289,IMU0,-16.34146341463415,45.73170731707317,-11.036585365853659,0.1416015625,10.568359375,-0.12109375
186,0.289,IMU1,-15.000000000000002,44.146341463414636,-10.792682926829269,-0.01171875,10.578125,-0.1259765625
187,0.289,IMU2,-15.670731707317074,45.670731707317074,-11.402439024390246,0.1142578125,10.580078125,-0.10546875
188,0.299,IMU0,-15.121951219512196,45.97560975609756,-9.817073170731708,0.1376953125,10.52734375,-0.16015625
189,0.299,IMU1,-13.719512195121952,44.390243902439025,-9.573170731707318,-0.017578125,10.5380859375,-0.162109375
190,0.299,IMU2,-14.451219512195124,45.97560975609756,-10.182926829268293,0.107421875,10.5380859375,-0.140625
191,0.309,IMU0,-14.26829268292683,46.40243902439025,-8.78048780487805,0.1376953125,10.4833984375,-0.1044921875
192,0.309,IMU1,-12.926829268292684,44.87804878048781,-8.536585365853659,-0.0146484375,10.4921875,-0.1064453125
193,0.309,IMU2,-13.658536585365855,46.34146341463415,-9.146341463414634,0.1103515625,10.494140625,-0.0869140625
194,0.319,IMU0,-13.414634146341465,46.89024390243903,-7.865853658536586,0.1416015625,10.4443359375,-0.171875
195,0.319,IMU1,-12.073170731707318,45.36585365853659,-7.621951219512196,-0.009765625,10.4541015625,-0.17578125
196,0.319,IMU2,-12.74390243902439,46.82926829268293,-8.170731707317074,0.111328125,10.4541015625,-0.15234375
197,0.329,IMU0,-12.621951219512196,47.25609756097561,-6.890243902439025,0.1513671875,10.4130859375,-0.1337890625
198,0.329,IMU1,-11.158536585365855,45.670731707317074,-6.646341463414635,0.0,10.4228515625,-0.1376953125
199,0.329,IMU2,-11.951219512195124,47.19512195121952,-7.195121951219513,0.1220703125,10.4208984375,-0.1162109375
200,0.339,IMU0,-11.829268292682928,47.743902439024396,-5.853658536585367,0.1572265625,10.341796875,-0.16796875
201,0.339,IMU1,-10.365853658536587,46.21951219512196,-5.609756097560976,0.0068359375,10.3505859375,-0.1728515625
202,0.339,IMU2,-11.097560975609756,47.6829268292683,-6.097560975609756,0.12890625,10.34765625,-0.1533203125
203,0.349,IMU0,-11.097560975609756,48.47560975609756,-4.75609756097561,0.1630859375,10.2587890625,-0.1630859375
204,0.349,IMU1,-9.634146341463415,46.951219512195124,-4.451219512195122,0.015625,10.2685546875,-0.1689453125
205,0.349,IMU2,-10.365853658536587,48.47560975609756,-4.939024390243903,0.134765625,10.267578125,-0.1435546875
206,0.359,IMU0,-10.24390243902439,49.39024390243903,-3.4756097560975614,0.171875,10.2177734375,-0.1650390625
207,0.359,IMU1,-8.719512195121952,47.804878048780495,-3.231707317073171,0.0234375,10.2275390625,-0.1689453125
208,0.359,IMU2,-9.390243902439025,49.39024390243903,-3.7195121951219514,0.14453125,10.2265625,-0.14453125
209,0.369,IMU0,-9.207317073170733,50.243902439024396,-2.0121951219512195,0.1845703125,10.1630859375,-0.1875
210,0.369,IMU1,-7.8048780487804885,48.71951219512196,-1.829268292682927,0.037109375,10.1728515625,-0.1923828125
211,0.369,IMU2,-8.414634146341465,50.243902439024396,-2.3170731707317076,0.1572265625,10.1728515625,-0.1689453125
212,0.379,IMU0,-8.109756097560977,51.15853658536586,-0.5487804878048781,0.189453125,10.1083984375,-0.1728515625
213,0.379,IMU1,-6.707317073170732,49.69512195121952,-0.30487804878048785,0.0419921875,10.1201171875,-0.1787109375
214,0.379,IMU2,-7.317073170731708,51.15853658536586,-0.7926829268292683,0.16015625,10.1201171875,-0.154296875
215,0.389,IMU0,-7.01219512195122,52.37804878048781,0.9756097560975611,0.1923828125,10.048828125,-0.1884765625
216,0.389,IMU1,-5.487804878048781,50.85365853658537,1.2804878048780488,0.046875,10.060546875,-0.193359375
217,0.389,IMU2,-6.219512195121951,52.37804878048781,0.7926829268292683,0.16796875,10.056640625,-0.1708984375
218,0.399,IMU0,-5.7926829268292686,53.41463414634147,2.8658536585365857,0.205078125,9.9619140625,-0.1640625
219,0.399,IMU1,-4.390243902439025,51.951219512195124,3.1097560975609757,0.0615234375,9.9736328125,-0.169921875
220,0.399,IMU2,-4.939024390243903,53.41463414634147,2.7439024390243905,0.1865234375,9.9697265625,-0.1552734375
221,0.409,IMU0,-4.207317073170732,54.085365853658544,5.487804878048781,0.2392578125,9.87890625,-0.216796875
222,0.409,IMU1,-2.804878048780488,52.743902439024396,5.731707317073171,0.095703125,9.888671875,-0.2216796875
223,0.409,IMU2,-3.353658536585366,54.146341463414636,5.365853658536586,0.212890625,9.8857421875,-0.197265625
224,0.419,IMU0,-2.5,54.57317073170732,8.353658536585366,0.2197265625,9.80859375,-0.1767578125
225,0.419,IMU1,-0.9756097560975611,53.10975609756098,8.658536585365855,0.0771484375,9.8193359375,-0.18359375
226,0.419,IMU2,-1.5853658536585367,54.57317073170732,8.292682926829269,0.1953125,9.8154296875,-0.1611328125
227,0.429,IMU0,-0.9146341463414634,55.304878048780495,11.463414634146343,0.2392578125,9.7275390625,-0.1884765625
228,0.429,IMU1,0.48780487804878053,53.90243902439025,11.76829268292683,0.0986328125,9.740234375,-0.1923828125
229,0.429,IMU2,-0.06097560975609757,55.304878048780495,11.402439024390246,0.2197265625,9.7353515625,-0.1650390625
230,0.439,IMU0,-0.3658536585365854,56.21951219512196,14.329268292682928,0.171875,9.6357421875,-0.11328125
231,0.439,IMU1,1.0365853658536586,54.87804878048781,14.634146341463415,0.0341796875,9.6474609375,-0.1142578125
232,0.439,IMU2,0.426829268292683,56.15853658536586,14.207317073170733,0.1455078125,9.642578125,-0.09375
233,0.449,IMU0,-0.3658536585365854,57.37804878048781,16.585365853658537,0.16796875,9.55859375,-0.1298828125
234,0.449,IMU1,1.0975609756097562,55.97560975609757,16.82926829268293,0.03125,9.5693359375,-0.1279296875
235,0.449,IMU2,0.48780487804878053,57.37804878048781,16.402439024390244,0.1455078125,9.564453125,-0.11328125
236,0.459,IMU0,-0.7926829268292683,58.53658536585366,18.353658536585368,0.1171875,9.466796875,-0.1142578125
237,0.459,IMU1,0.6707317073170732,57.13414634146342,18.53658536585366,-0.0205078125,9.4765625,-0.11328125
238,0.459,IMU2,0.06097560975609757,58.53658536585366,18.170731707317074,0.0849609375,9.4736328125,-0.083984375
239,0.469,IMU0,-1.2804878048780488,59.63414634146342,19.634146341463417,0.10546875,9.41015625,-0.11328125
240,0.469,IMU1,0.1829268292682927,58.41463414634147,19.81707317073171,-0.03125,9.421875,-0.1142578125
241,0.469,IMU2,-0.3658536585365854,59.69512195121952,19.451219512195124,0.080078125,9.4189453125,-0.0888671875
242,0.479,IMU0,-1.829268292682927,60.85365853658537,20.54878048780488,0.0654296875,9.3271484375,-0.123046875
243,0.479,IMU1,-0.30487804878048785,59.51219512195122,20.731707317073173,-0.0693359375,9.3369140625,-0.125
244,0.479,IMU2,-0.9756097560975611,60.91463414634147,20.243902439024392,0.041015625,9.341796875,-0.099609375
245,0.489,IMU0,-2.3170731707317076,62.31707317073171,20.975609756097562,0.0478515625,9.2568359375,-0.1318359375
246,0.489,IMU1,-0.9146341463414634,60.97560975609757,21.158536585365855,-0.0859375,9.265625,-0.130859375
247,0.489,IMU2,-1.524390243902439,62.31707317073171,20.731707317073173,0.017578125,9.26953125,-0.1005859375
248,0.499,IMU0,-2.9268292682926833,63.78048780487806,21.34146341463415,0.03125,9.1767578125,-0.1435546875
249,0.499,IMU1,-1.5853658536585367,62.50000000000001,21.463414634146343,-0.1015625,9.185546875,-0.1474609375
250,0.499,IMU2,-2.073170731707317,63.78048780487806,21.03658536585366,0.0029296875,9.1923828125,-0.12109375
251,0.509,IMU0,-3.231707317073171,65.1829268292683,21.585365853658537,0.0048828125,9.064453125,-0.1640625
252,0.509,IMU1,-1.8902439024390245,63.84146341463415,21.76829268292683,-0.126953125,9.07421875,-0.16796875
253,0.509,IMU2,-2.378048780487805,65.2439024390244,21.28048780487805,-0.021484375,9.0810546875,-0.140625
254,0.519,IMU0,-3.2926829268292686,66.58536585365854,21.707317073170735,-0.013671875,8.966796875,-0.1845703125
255,0.519,IMU1,-1.9512195121951221,65.3658536585366,21.951219512195124,-0.14453125,8.974609375,-0.1875
256,0.519,IMU2,-2.3170731707317076,66.70731707317074,21.402439024390247,-0.041015625,8.98046875,-0.162109375
257,0.529,IMU0,-2.987804878048781,68.23170731707317,21.646341463414636,-0.0576171875,8.8857421875,-0.1767578125
258,0.529,IMU1,-1.7682926829268295,66.95121951219512,21.82926829268293,-0.1875,8.8935546875,-0.1796875
259,0.529,IMU2,-2.1341463414634148,68.17073170731707,21.28048780487805,-0.0751953125,8.8984375,-0.1767578125
260,0.539,IMU0,-2.5609756097560976,69.69512195121952,21.52439024390244,-0.0576171875,8.7841796875,-0.1904296875
261,0.539,IMU1,-1.2195121951219514,68.35365853658537,21.76829268292683,-0.185546875,8.791015625,-0.193359375
262,0.539,IMU2,-1.707317073170732,69.81707317073172,21.28048780487805,-0.0810546875,8.7978515625,-0.18359375
263,0.549,IMU0,-2.1341463414634148,71.03658536585367,21.646341463414636,-0.0791015625,8.693359375,-0.181640625
264,0.549,IMU1,-0.7926829268292683,69.75609756097562,21.890243902439025,-0.2060546875,8.701171875,-0.185546875
265,0.549,IMU2,-1.2804878048780488,71.03658536585367,21.463414634146343,-0.103515625,8.70703125,-0.1708984375
266,0.559,IMU0,-1.7682926829268295,72.5,21.646341463414636,-0.1103515625,8.6171875,-0.189453125
267,0.559,IMU1,-0.6097560975609757,71.28048780487805,21.951219512195124,-0.236328125,8.6259765625,-0.19140625
268,0.559,IMU2,-0.9146341463414634,72.37804878048782,21.52439024390244,-0.1376953125,8.6279296875,-0.1728515625
269,0.569,IMU0,-1.5853658536585367,74.14634146341464,21.52439024390244,-0.1416015625,8.509765625,-0.181640625
270,0.569,IMU1,-0.30487804878048785,72.8048780487805,21.82926829268293,-0.265625,8.517578125,-0.1806640625
271,0.569,IMU2,-0.6707317073170732,74.02439024390245,21.34146341463415,-0.1689453125,8.5224609375,-0.1611328125
272,0.579,IMU0,-1.524390243902439,75.73170731707317,21.158536585365855,-0.173828125,8.396484375,-0.1787109375
273,0.579,IMU1,-0.30487804878048785,74.45121951219512,21.402439024390247,-0.2939453125,8.40234375,-0.1796875
274,0.579,IMU2,-0.6097560975609757,75.67073170731707,20.914634146341466,-0.19921875,8.408203125,-0.15625
275,0.589,IMU0,-1.524390243902439,77.25609756097562,20.426829268292686,-0.19921875,8.3232421875,-0.1787109375
276,0.589,IMU1,-0.3658536585365854,76.03658536585367,20.731707317073173,-0.3193359375,8.3291015625,-0.181640625
277,0.589,IMU2,-0.6097560975609757,77.25609756097562,20.30487804878049,-0.2255859375,8.3369140625,-0.1572265625
278,0.599,IMU0,-1.4634146341463417,78.65853658536587,19.634146341463417,-0.224609375,8.21484375,-0.1796875
279,0.599,IMU1,-0.24390243902439027,77.43902439024392,19.939024390243905,-0.34375,8.2197265625,-0.1806640625
280,0.599,IMU2,-0.6097560975609757,78.65853658536587,19.512195121951223,-0.2509765625,8.2255859375,-0.1611328125
281,0.609,IMU0,-1.2804878048780488,80.2439024390244,18.53658536585366,-0.2568359375,8.111328125,-0.1767578125
282,0.609,IMU1,-0.12195121951219513,79.02439024390245,18.902439024390244,-0.375,8.1162109375,-0.177734375
283,0.609,IMU2,-0.426829268292683,80.3048780487805,18.475609756097562,-0.28515625,8.12109375,-0.1591796875
284,0.619,IMU0,-1.1585365853658538,81.89024390243902,17.378048780487806,-0.287109375,8.0107421875,-0.1689453125
285,0.619,IMU1,-0.1829268292682927,80.67073170731707,17.743902439024392,-0.404296875,8.0146484375,-0.171875
286,0.619,IMU2,-0.426829268292683,81.82926829268294,17.195121951219512,-0.314453125,8.01953125,-0.1513671875
287,0.629,IMU0,-1.0365853658536586,83.53658536585367,15.853658536585368,-0.30859375,7.8955078125,-0.169921875
288,0.629,IMU1,0.06097560975609757,82.25609756097562,16.34146341463415,-0.423828125,7.900390625,-0.171875
289,0.629,IMU2,-0.24390243902439027,83.59756097560977,15.731707317073171,-0.3359375,7.9052734375,-0.154296875
290,0.639,IMU0,-0.7926829268292683,85.3048780487805,14.085365853658537,-0.341796875,7.8056640625,-0.169921875
291,0.639,IMU1,0.24390243902439027,84.08536585365854,14.451219512195124,-0.4560546875,7.810546875,-0.1708984375
292,0.639,IMU2,0.0,85.3658536585366,13.963414634146343,-0.3701171875,7.8134765625,-0.150390625
293,0.649,IMU0,-0.6097560975609757,86.64634146341464,12.134146341463415,-0.3447265625,7.7314453125,-0.1748046875
294,0.649,IMU1,0.426829268292683,85.42682926829269,12.500000000000002,-0.4580078125,7.736328125,-0.1748046875
295,0.649,IMU2,0.1829268292682927,86.64634146341464,12.073170731707318,-0.3740234375,7.7392578125,-0.1572265625
296,0.659,IMU0,-0.24390243902439027,88.04878048780489,10.24390243902439,-0.361328125,7.638671875,-0.173828125
297,0.659,IMU1,0.7926829268292683,86.82926829268294,10.670731707317074,-0.4736328125,7.642578125,-0.1748046875
298,0.659,IMU2,0.48780487804878053,88.10975609756099,10.121951219512196,-0.390625,7.646484375,-0.158203125
299,0.669,IMU0,0.24390243902439027,89.75609756097562,8.231707317073171,-0.3701171875,7.52734375,-0.1826171875
300,0.669,IMU1,1.2804878048780488,88.47560975609757,8.658536585365855,-0.48046875,7.5322265625,-0.18359375
301,0.669,IMU2,0.9146341463414634,89.63414634146342,8.170731707317074,-0.3984375,7.537109375,-0.1669921875
302,0.679,IMU0,0.7926829268292683,91.15853658536587,6.2804878048780495,-0.3779296875,7.3935546875,-0.1728515625
303,0.679,IMU1,1.707317073170732,89.87804878048782,6.707317073170732,-0.4873046875,7.3984375,-0.173828125
304,0.679,IMU2,1.4634146341463417,91.09756097560977,6.2804878048780495,-0.4052734375,7.40234375,-0.158203125
305,0.689,IMU0,1.4634146341463417,92.5609756097561,4.451219512195122,-0.3857421875,7.2841796875,-0.17578125
306,0.689,IMU1,2.3170731707317076,91.28048780487806,4.878048780487806,-0.494140625,7.2890625,-0.1767578125
307,0.689,IMU2,2.1341463414634148,92.6829268292683,4.451219512195122,-0.416015625,7.2919921875,-0.162109375
308,0.699,IMU0,2.073170731707317,94.08536585365854,2.5,-0.3916015625,7.1787109375,-0.171875
309,0.699,IMU1,2.804878048780488,92.92682926829269,2.9268292682926833,-0.4970703125,7.1845703125,-0.173828125
310,0.699,IMU2,2.804878048780488,94.20731707317074,2.439024390243903,-0.419921875,7.1865234375,-0.15625
311,0.709,IMU0,2.804878048780488,95.60975609756099,0.6097560975609757,-0.3818359375,7.0595703125,-0.181640625
312,0.709,IMU1,3.353658536585366,94.45121951219512,1.0975609756097562,-0.486328125,7.064453125,-0.181640625
313,0.709,IMU2,3.414634146341464,95.60975609756099,0.5487804878048781,-0.4091796875,7.06640625,-0.1640625
314,0.719,IMU0,3.4756097560975614,97.25609756097562,-1.3414634146341464,-0.37890625,6.935546875,-0.189453125
315,0.719,IMU1,4.146341463414634,95.91463414634147,-0.7926829268292683,-0.482421875,6.9404296875,-0.19140625
316,0.719,IMU2,4.146341463414634,97.31707317073172,-1.3414634146341464,-0.4052734375,6.9423828125,-0.171875
317,0.729,IMU0,4.390243902439025,98.78048780487806,-2.9268292682926833,-0.3583984375,6.818359375,-0.19140625
318,0.729,IMU1,5.121951219512195,97.6219512195122,-2.378048780487805,-0.4599609375,6.8232421875,-0.1923828125
319,0.729,IMU2,5.060975609756098,98.90243902439025,-2.8658536585365857,-0.384765625,6.826171875,-0.173828125
320,0.739,IMU0,5.487804878048781,100.1829268292683,-4.390243902439025,-0.35546875,6.697265625,-0.1982421875
321,0.739,IMU1,6.097560975609756,99.20731707317074,-3.963414634146342,-0.4560546875,6.703125,-0.2001953125
322,0.739,IMU2,6.036585365853659,100.2439024390244,-4.329268292682928,-0.380859375,6.703125,-0.181640625
323,0.749,IMU0,6.52439024390244,101.70731707317074,-5.853658536585367,-0.3349609375,6.5859375,-0.1875
324,0.749,IMU1,7.134146341463415,100.79268292682927,-5.365853658536586,-0.4326171875,6.5927734375,-0.185546875
325,0.749,IMU2,7.134146341463415,101.82926829268294,-5.7926829268292686,-0.3583984375,6.5927734375,-0.1748046875
326,0.759,IMU0,7.621951219512196,103.29268292682927,-7.073170731707318,-0.30078125,6.47265625,-0.17578125
327,0.759,IMU1,8.231707317073171,102.37804878048782,-6.585365853658537,-0.3974609375,6.466796875,-0.17578125
328,0.759,IMU2,8.353658536585366,103.47560975609757,-7.01219512195122,-0.326171875,6.4775390625,-0.1640625
329,0.769,IMU0,8.658536585365855,104.75609756097562,-7.926829268292684,-0.2646484375,6.361328125,-0.162109375
330,0.769,IMU1,9.207317073170733,103.84146341463415,-7.378048780487806,-0.3505859375,6.3583984375,-0.16015625
331,0.769,IMU2,9.329268292682928,104.81707317073172,-7.8048780487804885,-0.2841796875,6.3681640625,-0.1416015625
332,0.779,IMU0,9.51219512195122,106.09756097560977,-8.353658536585366,-0.2275390625,6.2626953125,-0.142578125
333,0.779,IMU1,10.121951219512196,105.1829268292683,-7.743902439024391,-0.318359375,6.259765625,-0.1376953125
334,0.779,IMU2,10.121951219512196,106.28048780487806,-8.231707317073171,-0.2509765625,6.267578125,-0.1259765625
335,0.789,IMU0,10.24390243902439,107.50000000000001,-8.292682926829269,-0.203125,6.1552734375,-0.1181640625
336,0.789,IMU1,10.853658536585368,106.46341463414635,-7.682926829268293,-0.28515625,6.1513671875,-0.115234375
337,0.789,IMU2,10.853658536585368,107.56097560975611,-8.170731707317074,-0.2236328125,6.1591796875,-0.09375
338,0.799,IMU0,10.609756097560977,108.96341463414635,-7.560975609756098,-0.1435546875,6.03515625,-0.09765625
339,0.799,IMU1,11.158536585365855,107.92682926829269,-7.01219512195122,-0.228515625,6.0341796875,-0.0908203125
340,0.799,IMU2,11.28048780487805,108.96341463414635,-7.500000000000001,-0.1640625,6.0380859375,-0.0791015625
341,0.809,IMU0,10.731707317073171,110.3048780487805,-6.7682926829268295,-0.177734375,5.9365234375,-0.0625
342,0.809,IMU1,11.158536585365855,107.92682926829269,-7.01219512195122,-0.228515625,6.0341796875,-0.0908203125
343,0.809,IMU2,11.341463414634147,110.3658536585366,-6.646341463414635,-0.1962890625,5.9501953125,-0.052734375
344,0.819,IMU0,10.487804878048781,111.46341463414635,-5.975609756097562,-0.12890625,5.859375,-0.0380859375
345,0.819,IMU1,11.097560975609756,110.42682926829269,-5.365853658536586,-0.212890625,5.8681640625,-0.0361328125
346,0.819,IMU2,11.158536585365855,111.52439024390245,-5.853658536585367,-0.1552734375,5.8701171875,-0.01953125
347,0.829,IMU0,10.24390243902439,112.6829268292683,-5.426829268292684,-0.16796875,5.78515625,-0.0224609375
348,0.829,IMU1,10.731707317073171,111.70731707317074,-4.817073170731708,-0.2509765625,5.791015625,-0.021484375
349,0.829,IMU2,10.853658536585368,112.7439024390244,-5.3048780487804885,-0.1875,5.7939453125,-0.009765625
350,0.839,IMU0,9.756097560975611,113.84146341463416,-4.817073170731708,-0.1171875,5.7275390625,0.005859375
351,0.839,IMU1,10.24390243902439,112.8658536585366,-4.207317073170732,-0.1982421875,5.734375,0.0078125
352,0.839,IMU2,10.30487804878049,113.90243902439025,-4.695121951219512,-0.138671875,5.7373046875,0.021484375
353,0.849,IMU0,9.085365853658537,114.63414634146342,-4.146341463414634,-0.13671875,5.6845703125,0.0244140625
354,0.849,IMU1,9.451219512195122,113.65853658536587,-3.536585365853659,-0.216796875,5.693359375,0.0263671875
355,0.849,IMU2,9.695121951219512,114.81707317073172,-4.085365853658537,-0.154296875,5.69140625,0.0478515625
356,0.859,IMU0,8.109756097560977,115.3048780487805,-3.414634146341464,-0.1083984375,5.6708984375,0.041015625
357,0.859,IMU1,8.414634146341465,114.39024390243904,-2.8658536585365857,-0.189453125,5.6806640625,0.0439453125
358,0.859,IMU2,8.841463414634147,115.48780487804879,-3.353658536585366,-0.126953125,5.677734375,0.0625
359,0.869,IMU0,7.073170731707318,115.79268292682927,-2.6219512195121952,-0.1201171875,5.6484375,0.072265625
360,0.869,IMU1,7.439024390243903,114.87804878048782,-2.073170731707317,-0.201171875,5.658203125,0.07421875
361,0.869,IMU2,7.8048780487804885,116.03658536585367,-2.5609756097560976,-0.1337890625,5.6591796875,0.0869140625
362,0.879,IMU0,6.036585365853659,116.34146341463416,-1.8902439024390245,-0.10546875,5.529296875,0.05859375
363,0.879,IMU1,6.463414634146342,115.3658536585366,-1.3414634146341464,-0.1845703125,5.5400390625,0.0615234375
364,0.879,IMU2,6.7682926829268295,116.58536585365854,-1.829268292682927,-0.1279296875,5.5458984375,0.0791015625
365,0.889,IMU0,4.817073170731708,117.07317073170732,-1.2195121951219514,-0.119140625,5.111328125,0.0830078125
366,0.889,IMU1,5.121951219512195,116.03658536585367,-0.6707317073170732,-0.1923828125,5.12109375,0.0859375
367,0.889,IMU2,5.548780487804878,117.07317073170732,-1.2195121951219514,-0.1328125,5.1484375,0.103515625
368,0.899,IMU0,3.5975609756097566,118.04878048780489,-0.7926829268292683,-0.1220703125,4.0498046875,0.0751953125
369,0.899,IMU1,3.9024390243902443,116.95121951219514,-0.1829268292682927,-0.1796875,4.05859375,0.0810546875
370,0.899,IMU2,4.2682926829268295,118.04878048780489,-0.7317073170731708,-0.134765625,4.107421875,0.0927734375
371,0.909,IMU0,2.7439024390243905,119.63414634146342,-0.426829268292683,-0.125,2.7001953125,0.0595703125
372,0.909,IMU1,3.1097560975609757,118.53658536585367,0.1829268292682927,-0.1630859375,2.70703125,0.064453125
373,0.909,IMU2,3.414634146341464,119.69512195121952,-0.426829268292683,-0.1357421875,2.7529296875,0.080078125
374,0.919,IMU0,2.25609756097561,121.58536585365854,-0.24390243902439027,-0.1337890625,1.55078125,0.0517578125
375,0.919,IMU1,2.5609756097560976,120.48780487804879,0.30487804878048785,-0.1572265625,1.5595703125,0.0595703125
376,0.919,IMU2,2.8658536585365857,121.64634146341464,-0.1829268292682927,-0.142578125,1.5908203125,0.0673828125
377,0.929,IMU0,2.0121951219512195,123.47560975609757,-0.426829268292683,-0.1484375,0.6865234375,0.04296875
378,0.929,IMU1,2.378048780487805,122.25609756097562,0.1829268292682927,-0.1572265625,0.6923828125,0.046875
379,0.929,IMU2,2.6219512195121952,123.53658536585367,-0.30487804878048785,-0.1591796875,0.7119140625,0.0556640625
380,0.939,IMU0,1.8902439024390245,124.87804878048782,-0.5487804878048781,-0.14453125,0.0966796875,0.0390625
381,0.939,IMU1,2.3170731707317076,123.65853658536587,0.0,-0.1455078125,0.1015625,0.0439453125
382,0.939,IMU2,2.5,125.00000000000001,-0.48780487804878053,-0.1552734375,0.1103515625,0.0537109375
383,0.949,IMU0,1.6463414634146343,126.09756097560977,-0.9146341463414634,-0.154296875,-0.27734375,0.05859375
384,0.949,IMU1,2.0121951219512195,124.87804878048782,-0.30487804878048785,-0.1494140625,-0.2734375,0.064453125
385,0.949,IMU2,2.3170731707317076,126.21951219512196,-0.7926829268292683,-0.158203125,-0.2705078125,0.064453125
386,0.959,IMU0,1.3414634146341464,127.56097560975611,-1.402439024390244,-0.1669921875,-0.5068359375,0.052734375
387,0.959,IMU1,1.6463414634146343,126.34146341463416,-0.853658536585366,-0.16015625,-0.5029296875,0.05859375
388,0.959,IMU2,1.9512195121951221,127.7439024390244,-1.3414634146341464,-0.1748046875,-0.505859375,0.0615234375
389,0.969,IMU0,0.853658536585366,129.14634146341464,-2.073170731707317,-0.1630859375,-0.634765625,0.0556640625
390,0.969,IMU1,1.1585365853658538,127.92682926829269,-1.524390243902439,-0.1552734375,-0.6328125,0.064453125
391,0.969,IMU2,1.5853658536585367,129.39024390243904,-2.0121951219512195,-0.171875,-0.63671875,0.0703125
392,0.979,IMU0,0.48780487804878053,130.2439024390244,-2.987804878048781,-0.1630859375,-0.697265625,0.05078125
393,0.979,IMU1,0.6707317073170732,129.08536585365854,-2.378048780487805,-0.1552734375,-0.6943359375,0.060546875
394,0.979,IMU2,1.1585365853658538,130.4878048780488,-2.8658536585365857,-0.171875,-0.701171875,0.064453125
395,0.989,IMU0,0.06097560975609757,130.97560975609758,-3.780487804878049,-0.1552734375,-0.72265625,0.0400390625
396,0.989,IMU1,0.3658536585365854,129.69512195121953,-3.231707317073171,-0.1455078125,-0.7197265625,0.0517578125
397,0.989,IMU2,0.7926829268292683,131.15853658536585,-3.7195121951219514,-0.1650390625,-0.7275390625,0.0556640625
398,0.999,IMU0,-0.24390243902439027,131.52439024390245,-4.695121951219512,-0.14453125,-0.74609375,0.044921875
399,0.999,IMU1,0.12195121951219513,130.3048780487805,-4.085365853658537,-0.1337890625,-0.7421875,0.0537109375
400,0.999,IMU2,0.48780487804878053,131.70731707317074,-4.573170731707317,-0.1533203125,-0.7509765625,0.060546875
401,1.009,IMU0,-0.426829268292683,132.07317073170734,-5.487804878048781,-0.1328125,-0.7490234375,0.0390625
402,1.009,IMU1,-0.1829268292682927,130.85365853658539,-4.878048780487806,-0.1220703125,-0.744140625,0.0458984375
403,1.009,IMU2,0.30487804878048785,132.25609756097563,-5.365853658536586,-0.140625,-0.7529296875,0.05078125
404,1.019,IMU0,-0.48780487804878053,132.5,-6.036585365853659,-0.103515625,-0.7490234375,0.025390625
405,1.019,IMU1,-0.1829268292682927,131.21951219512195,-5.426829268292684,-0.0927734375,-0.7431640625,0.0322265625
406,1.019,IMU2,0.1829268292682927,132.6829268292683,-5.914634146341464,-0.1103515625,-0.7529296875,0.0390625
407,1.029,IMU0,-0.30487804878048785,132.8048780487805,-6.402439024390245,-0.0927734375,-0.751953125,0.0107421875
408,1.029,IMU1,0.0,131.64634146341464,-5.7926829268292686,-0.0830078125,-0.74609375,0.0146484375
409,1.029,IMU2,0.3658536585365854,133.0487804878049,-6.2804878048780495,-0.099609375,-0.755859375,0.0224609375
410,1.039,IMU0,0.0,133.0487804878049,-6.585365853658537,-0.064453125,-0.7431640625,0.0146484375
411,1.039,IMU1,0.1829268292682927,131.76829268292684,-5.914634146341464,-0.0556640625,-0.7373046875,0.0224609375
412,1.039,IMU2,0.6707317073170732,133.2317073170732,-6.463414634146342,-0.0732421875,-0.74609375,0.0283203125
413,1.049,IMU0,0.24390243902439027,132.8658536585366,-6.646341463414635,-0.048828125,-0.71875,0.015625
414,1.049,IMU1,0.426829268292683,131.58536585365854,-5.975609756097562,-0.041015625,-0.7119140625,0.0224609375
415,1.049,IMU2,0.9146341463414634,133.109756097561,-6.463414634146342,-0.0556640625,-0.720703125,0.02734375
416,1.059,IMU0,0.30487804878048785,132.4390243902439,-6.463414634146342,-0.0283203125,-0.7080078125,0.0224609375
417,1.059,IMU1,0.5487804878048781,131.21951219512195,-5.7926829268292686,-0.0185546875,-0.7001953125,0.0302734375
418,1.059,IMU2,1.0365853658536586,132.6219512195122,-6.2804878048780495,-0.0322265625,-0.7099609375,0.037109375
419,1.069,IMU0,0.3658536585365854,131.89024390243904,-6.158536585365854,-0.0224609375,-0.7197265625,0.0234375
420,1.069,IMU1,0.5487804878048781,130.7317073170732,-5.548780487804878,-0.0126953125,-0.712890625,0.029296875
421,1.069,IMU2,1.0975609756097562,132.13414634146343,-6.036585365853659,-0.02734375,-0.7236328125,0.037109375
422,1.079,IMU0,0.426829268292683,131.34146341463415,-5.731707317073171,-0.0185546875,-0.7333984375,0.013671875
423,1.079,IMU1,0.6707317073170732,130.1829268292683,-5.060975609756098,-0.0087890625,-0.7275390625,0.0185546875
424,1.079,IMU2,1.1585365853658538,131.64634146341464,-5.548780487804878,-0.0224609375,-0.736328125,0.025390625
425,1.089,IMU0,0.48780487804878053,130.91463414634148,-5.121951219512195,-0.005859375,-0.7421875,0.029296875
426,1.089,IMU1,0.7926829268292683,129.69512195121953,-4.51219512195122,0.0048828125,-0.734375,0.0361328125
427,1.089,IMU2,1.2195121951219514,131.15853658536585,-5.0,-0.0107421875,-0.7451171875,0.04296875
428,1.099,IMU0,0.48780487804878053,130.3658536585366,-4.634146341463415,-0.0185546875,-0.74609375,0.009765625
429,1.099,IMU1,0.7317073170731708,129.26829268292684,-3.963414634146342,-0.0078125,-0.73828125,0.0166015625
430,1.099,IMU2,1.2195121951219514,130.609756097561,-4.51219512195122,-0.0224609375,-0.748046875,0.025390625
431,1.109,IMU0,0.6707317073170732,130.1829268292683,-4.024390243902439,0.0,-0.7373046875,0.0087890625
432,1.109,IMU1,0.9146341463414634,129.02439024390245,-3.414634146341464,0.0087890625,-0.73046875,0.0166015625
433,1.109,IMU2,1.2804878048780488,130.3658536585366,-3.963414634146342,-0.0029296875,-0.740234375,0.025390625
434,1.119,IMU0,0.7926829268292683,129.81707317073173,-3.414634146341464,-0.0166015625,-0.7197265625,0.0068359375
435,1.119,IMU1,1.1585365853658538,128.59756097560978,-2.804878048780488,-0.0068359375,-0.7138671875,0.013671875
436,1.119,IMU2,1.402439024390244,130.0609756097561,-3.353658536585366,-0.021484375,-0.724609375,0.0185546875
437,1.129,IMU0,0.853658536585366,129.20731707317074,-2.9268292682926833,-0.0146484375,-0.712890625,0.0126953125
438,1.129,IMU1,1.0975609756097562,128.109756097561,-2.3170731707317076,-0.0048828125,-0.7080078125,0.0185546875
439,1.129,IMU2,1.4634146341463417,129.51219512195124,-2.8658536585365857,-0.0205078125,-0.71875,0.0283203125
440,1.139,IMU0,0.7926829268292683,128.71951219512195,-2.3170731707317076,-0.00390625,-0.716796875,0.0224609375
441,1.139,IMU1,1.0975609756097562,127.56097560975611,-1.707317073170732,0.0087890625,-0.7119140625,0.0283203125
442,1.139,IMU2,1.4634146341463417,129.02439024390245,-2.1951219512195124,-0.0068359375,-0.7216796875,0.03515625
443,1.149,IMU0,0.7317073170731708,128.1707317073171,-1.6463414634146343,-0.0048828125,-0.72265625,0.0126953125
444,1.149,IMU1,1.0365853658536586,127.01219512195124,-1.0365853658536586,0.005859375,-0.7177734375,0.0205078125
445,1.149,IMU2,1.402439024390244,128.53658536585368,-1.5853658536585367,-0.0107421875,-0.728515625,0.0302734375
446,1.159,IMU0,0.6097560975609757,127.7439024390244,-1.0365853658536586,0.00390625,-0.7177734375,0.0224609375
447,1.159,IMU1,0.9756097560975611,126.52439024390245,-0.3658536585365854,0.0146484375,-0.7119140625,0.0302734375
448,1.159,IMU2,1.2804878048780488,128.0487804878049,-0.9146341463414634,0.0,-0.7236328125,0.0400390625
449,1.169,IMU0,0.5487804878048781,127.43902439024392,-0.3658536585365854,-0.0068359375,-0.7109375,0.0244140625
450,1.169,IMU1,0.7926829268292683,126.21951219512196,0.24390243902439027,0.00390625,-0.705078125,0.0302734375
451,1.169,IMU2,1.2195121951219514,127.7439024390244,-0.30487804878048785,-0.0126953125,-0.7158203125,0.037109375
452,1.179,IMU0,0.30487804878048785,127.31707317073172,0.1829268292682927,-0.01171875,-0.7060546875,0.0263671875
453,1.179,IMU1,0.7926829268292683,126.09756097560977,0.7317073170731708,-0.001953125,-0.69921875,0.0322265625
454,1.179,IMU2,0.9756097560975611,127.56097560975611,0.1829268292682927,-0.0166015625,-0.7080078125,0.041015625
455,1.189,IMU0,0.1829268292682927,127.13414634146342,0.6097560975609757,-0.0205078125,-0.703125,0.0205078125
456,1.189,IMU1,0.5487804878048781,125.91463414634147,1.1585365853658538,-0.009765625,-0.6962890625,0.02734375
457,1.189,IMU2,0.9146341463414634,127.31707317073172,0.6097560975609757,-0.0263671875,-0.7060546875,0.0341796875
458,1.199,IMU0,0.06097560975609757,126.76829268292684,0.9146341463414634,-0.0283203125,-0.703125,0.021484375
459,1.199,IMU1,0.48780487804878053,125.60975609756099,1.4634146341463417,-0.0185546875,-0.6962890625,0.02734375
460,1.199,IMU2,0.7317073170731708,126.95121951219514,1.0365853658536586,-0.03125,-0.705078125,0.0322265625
461,1.209,IMU0,-0.12195121951219513,126.70731707317074,1.1585365853658538,-0.03515625,-0.7021484375,0.0263671875
462,1.209,IMU1,0.3658536585365854,125.48780487804879,1.7682926829268295,-0.025390625,-0.6953125,0.0322265625
463,1.209,IMU2,0.6097560975609757,126.95121951219514,1.2195121951219514,-0.0400390625,-0.705078125,0.0390625
464,1.219,IMU0,-0.24390243902439027,126.46341463414635,1.3414634146341464,-0.046875,-0.6923828125,0.015625
465,1.219,IMU1,0.1829268292682927,125.2439024390244,1.9512195121951221,-0.0390625,-0.685546875,0.021484375
466,1.219,IMU2,0.48780487804878053,126.70731707317074,1.3414634146341464,-0.052734375,-0.693359375,0.029296875
467,1.229,IMU0,-0.3658536585365854,126.21951219512196,1.2804878048780488,-0.0517578125,-0.6884765625,0.0107421875
468,1.229,IMU1,0.0,124.93902439024392,1.8902439024390245,-0.044921875,-0.6806640625,0.0146484375
469,1.229,IMU2,0.3658536585365854,126.40243902439026,1.3414634146341464,-0.0576171875,-0.689453125,0.025390625
470,1.239,IMU0,-0.48780487804878053,126.03658536585367,1.2195121951219514,-0.056640625,-0.689453125,0.0048828125
471,1.239,IMU1,-0.06097560975609757,124.75609756097562,1.829268292682927,-0.048828125,-0.68359375,0.009765625
472,1.239,IMU2,0.30487804878048785,126.28048780487806,1.3414634146341464,-0.0625,-0.693359375,0.01953125
473,1.249,IMU0,-0.426829268292683,125.79268292682927,1.2195121951219514,-0.0537109375,-0.6845703125,0.0
474,1.249,IMU1,-0.06097560975609757,124.57317073170732,1.7682926829268295,-0.044921875,-0.6787109375,0.0068359375
475,1.249,IMU2,0.30487804878048785,126.03658536585367,1.2804878048780488,-0.060546875,-0.6875,0.009765625
476,1.259,IMU0,-0.3658536585365854,125.3658536585366,1.1585365853658538,-0.0625,-0.685546875,-0.0048828125
477,1.259,IMU1,0.06097560975609757,124.14634146341464,1.707317073170732,-0.0537109375,-0.6787109375,0.001953125
478,1.259,IMU2,0.3658536585365854,125.60975609756099,1.1585365853658538,-0.0712890625,-0.689453125,0.0068359375
479,1.269,IMU0,-0.1829268292682927,125.06097560975611,0.9756097560975611,-0.0634765625,-0.6826171875,-0.0146484375
480,1.269,IMU1,0.30487804878048785,123.84146341463416,1.5853658536585367,-0.056640625,-0.6767578125,-0.0078125
481,1.269,IMU2,0.5487804878048781,125.3048780487805,1.0365853658536586,-0.072265625,-0.6845703125,-0.0029296875
482,1.279,IMU0,0.06097560975609757,125.00000000000001,0.7317073170731708,-0.0732421875,-0.68359375,-0.01171875
483,1.279,IMU1,0.5487804878048781,123.71951219512196,1.402439024390244,-0.0654296875,-0.6787109375,-0.005859375
484,1.279,IMU2,0.7926829268292683,125.1829268292683,0.853658536585366,-0.0791015625,-0.6875,0.0009765625
485,1.289,IMU0,0.30487804878048785,124.57317073170732,0.5487804878048781,-0.0693359375,-0.681640625,-0.0126953125
486,1.289,IMU1,0.7317073170731708,123.29268292682927,1.1585365853658538,-0.060546875,-0.677734375,-0.005859375
487,1.289,IMU2,0.9756097560975611,124.75609756097562,0.6097560975609757,-0.0791015625,-0.685546875,-0.0029296875
488,1.299,IMU0,0.5487804878048781,124.20731707317074,0.3658536585365854,-0.0791015625,-0.677734375,-0.0107421875
489,1.299,IMU1,1.0365853658536586,122.98780487804879,0.9756097560975611,-0.0703125,-0.671875,-0.0078125
490,1.299,IMU2,1.2804878048780488,124.45121951219514,0.426829268292683,-0.0859375,-0.6806640625,-0.0029296875
491,1.309,IMU0,0.853658536585366,124.32926829268294,0.12195121951219513,-0.0751953125,-0.666015625,-0.015625
492,1.309,IMU1,1.2804878048780488,123.10975609756099,0.7317073170731708,-0.0673828125,-0.66015625,-0.0087890625
493,1.309,IMU2,1.5853658536585367,124.51219512195124,0.24390243902439027,-0.080078125,-0.669921875,-0.005859375
494,1.319,IMU0,1.2195121951219514,124.08536585365854,-0.12195121951219513,-0.080078125,-0.6689453125,-0.021484375
495,1.319,IMU1,1.5853658536585367,122.8658536585366,0.48780487804878053,-0.072265625,-0.6640625,-0.017578125
496,1.319,IMU2,1.8902439024390245,124.32926829268294,0.0,-0.08984375,-0.671875,-0.0078125
497,1.329,IMU0,1.524390243902439,123.84146341463416,-0.3658536585365854,-0.0791015625,-0.66796875,-0.0126953125
498,1.329,IMU1,1.9512195121951221,122.62195121951221,0.24390243902439027,-0.0703125,-0.662109375,0.0
499,1.329,IMU2,2.1951219512195124,124.08536585365854,-0.24390243902439027,-0.0849609375,-0.671875,-0.001953125
500,1.339,IMU0,1.7682926829268295,123.59756097560977,-0.5487804878048781,-0.0771484375,-0.6630859375,-0.0126953125
501,1.339,IMU1,2.1951219512195124,122.37804878048782,0.06097560975609757,-0.0673828125,-0.65625,-0.0048828125
502,1.339,IMU2,2.5,123.78048780487806,-0.426829268292683,-0.08203125,-0.6650390625,0.001953125
503,1.349,IMU0,2.073170731707317,123.35365853658537,-0.7317073170731708,-0.0771484375,-0.658203125,-0.009765625
504,1.349,IMU1,2.439024390243903,122.13414634146342,-0.12195121951219513,-0.068359375,-0.65234375,-0.0009765625
505,1.349,IMU2,2.682926829268293,123.59756097560977,-0.6097560975609757,-0.0849609375,-0.6630859375,0.005859375
506,1.359,IMU0,2.25609756097561,123.29268292682927,-0.853658536585366,-0.0751953125,-0.66015625,0.001953125
507,1.359,IMU1,2.682926829268293,122.07317073170732,-0.30487804878048785,-0.06640625,-0.654296875,0.0087890625
508,1.359,IMU2,2.9268292682926833,123.53658536585367,-0.7317073170731708,-0.0830078125,-0.6630859375,0.01171875
509,1.369,IMU0,2.378048780487805,123.17073170731709,-0.9146341463414634,-0.07421875,-0.658203125,0.00390625
510,1.369,IMU1,2.804878048780488,122.01219512195124,-0.30487804878048785,-0.0654296875,-0.65234375,0.009765625
511,1.369,IMU2,3.048780487804878,123.47560975609757,-0.853658536585366,-0.08203125,-0.662109375,0.015625
512,1.379,IMU0,2.378048780487805,122.98780487804879,-1.0975609756097562,-0.0830078125,-0.6513671875,0.0107421875
513,1.379,IMU1,2.7439024390243905,121.89024390243904,-0.5487804878048781,-0.0751953125,-0.646484375,0.0146484375
514,1.379,IMU2,2.987804878048781,123.17073170731709,-1.0975609756097562,-0.0908203125,-0.6552734375,0.0224609375
515,1.389,IMU0,2.439024390243903,123.04878048780489,-1.2804878048780488,-0.072265625,-0.6474609375,0.005859375
516,1.389,IMU1,2.8658536585365857,121.89024390243904,-0.7317073170731708,-0.0634765625,-0.6416015625,0.0087890625
517,1.389,IMU2,3.048780487804878,123.29268292682927,-1.2195121951219514,-0.078125,-0.6513671875,0.01953125
518,1.399,IMU0,2.3170731707317076,123.23170731707319,-1.524390243902439,-0.08203125,-0.6455078125,0.0205078125
519,1.399,IMU1,2.7439024390243905,122.07317073170732,-0.9756097560975611,-0.07421875,-0.6396484375,0.0263671875
520,1.399,IMU2,3.048780487804878,123.47560975609757,-1.4634146341463417,-0.0859375,-0.6484375,0.0322265625
521,1.409,IMU0,2.25609756097561,122.98780487804879,-1.7682926829268295,-0.072265625,-0.6435546875,0.015625
522,1.409,IMU1,2.6219512195121952,121.70731707317074,-1.1585365853658538,-0.0634765625,-0.63671875,0.021484375
523,1.409,IMU2,2.9268292682926833,123.23170731707319,-1.707317073170732,-0.0791015625,-0.6455078125,0.0283203125
524,1.419,IMU0,2.1341463414634148,122.6829268292683,-2.0121951219512195,-0.0703125,-0.6396484375,0.0234375
525,1.419,IMU1,2.5609756097560976,121.40243902439025,-1.3414634146341464,-0.0625,-0.634765625,0.0283203125
526,1.419,IMU2,2.804878048780488,122.92682926829269,-1.829268292682927,-0.078125,-0.6435546875,0.037109375
527,1.429,IMU0,1.9512195121951221,122.43902439024392,-2.0121951219512195,-0.0595703125,-0.6357421875,0.025390625
528,1.429,IMU1,2.439024390243903,121.28048780487806,-1.402439024390244,-0.0517578125,-0.630859375,0.033203125
529,1.429,IMU2,2.682926829268293,122.7439024390244,-1.8902439024390245,-0.0654296875,-0.640625,0.037109375
530,1.439,IMU0,1.7682926829268295,122.07317073170732,-2.0121951219512195,-0.064453125,-0.6376953125,0.02734375
531,1.439,IMU1,2.1341463414634148,120.91463414634147,-1.4634146341463417,-0.056640625,-0.6337890625,0.03515625
532,1.439,IMU2,2.5,122.43902439024392,-1.9512195121951221,-0.0693359375,-0.640625,0.0419921875
533,1.449,IMU0,1.707317073170732,121.76829268292684,-2.0121951219512195,-0.060546875,-0.638671875,0.02734375
534,1.449,IMU1,2.0121951219512195,120.54878048780489,-1.4634146341463417,-0.052734375,-0.6337890625,0.0361328125
535,1.449,IMU2,2.3170731707317076,121.95121951219514,-1.9512195121951221,-0.06640625,-0.6416015625,0.0419921875
536,1.459,IMU0,1.3414634146341464,121.58536585365854,-2.073170731707317,-0.056640625,-0.6328125,0.0341796875
537,1.459,IMU1,1.707317073170732,120.3658536585366,-1.4634146341463417,-0.0498046875,-0.6259765625,0.0419921875
538,1.459,IMU2,2.0121951219512195,121.70731707317074,-2.0121951219512195,-0.064453125,-0.63671875,0.048828125
539,1.469,IMU0,1.0365853658536586,121.46341463414635,-2.0121951219512195,-0.0576171875,-0.6240234375,0.03125
540,1.469,IMU1,1.402439024390244,120.1829268292683,-1.4634146341463417,-0.048828125,-0.6181640625,0.0390625
541,1.469,IMU2,1.707317073170732,121.64634146341464,-2.0121951219512195,-0.0654296875,-0.6279296875,0.044921875
542,1.479,IMU0,0.7926829268292683,121.15853658536587,-2.0121951219512195,-0.0546875,-0.6201171875,0.015625
543,1.479,IMU1,1.2195121951219514,119.81707317073172,-1.4634146341463417,-0.0478515625,-0.6142578125,0.0244140625
544,1.479,IMU2,1.4634146341463417,121.34146341463416,-2.0121951219512195,-0.0625,-0.6240234375,0.0302734375
545,1.489,IMU0,0.7926829268292683,120.60975609756099,-2.073170731707317,-0.05859375,-0.62109375,0.017578125
546,1.489,IMU1,1.1585365853658538,119.39024390243904,-1.524390243902439,-0.05078125,-0.6162109375,0.0244140625
547,1.489,IMU2,1.4634146341463417,120.79268292682927,-1.9512195121951221,-0.0654296875,-0.6240234375,0.0302734375
548,1.499,IMU0,0.7317073170731708,120.12195121951221,-2.0121951219512195,-0.0458984375,-0.6103515625,0.0185546875
549,1.499,IMU1,1.0975609756097562,118.90243902439025,-1.4634146341463417,-0.0380859375,-0.60546875,0.0244140625
550,1.499,IMU2,1.402439024390244,120.3048780487805,-1.9512195121951221,-0.052734375,-0.61328125,0.0322265625
551,1.509,IMU0,0.6707317073170732,119.87804878048782,-2.0121951219512195,-0.0546875,-0.6142578125,0.0185546875
552,1.509,IMU1,1.0975609756097562,118.59756097560977,-1.4634146341463417,-0.046875,-0.609375,0.0244140625
553,1.509,IMU2,1.402439024390244,120.00000000000001,-1.9512195121951221,-0.0615234375,-0.6171875,0.03125
554,1.519,IMU0,0.6097560975609757,119.57317073170732,-2.0121951219512195,-0.0439453125,-0.615234375,0.0205078125
555,1.519,IMU1,1.0975609756097562,118.35365853658537,-1.402439024390244,-0.0361328125,-0.6083984375,0.0263671875
556,1.519,IMU2,1.3414634146341464,119.75609756097562,-1.9512195121951221,-0.0498046875,-0.6181640625,0.033203125
557,1.529,IMU0,0.426829268292683,119.39024390243904,-1.8902439024390245,-0.0380859375,-0.615234375,0.02734375
558,1.529,IMU1,0.853658536585366,118.23170731707319,-1.3414634146341464,-0.03125,-0.6083984375,0.03515625
559,1.529,IMU2,1.1585365853658538,119.57317073170732,-1.829268292682927,-0.0439453125,-0.6181640625,0.0400390625
560,1.539,IMU0,0.30487804878048785,118.96341463414635,-1.707317073170732,-0.0400390625,-0.6171875,0.0107421875
561,1.539,IMU1,0.7317073170731708,117.6829268292683,-1.1585365853658538,-0.03125,-0.6103515625,0.017578125
562,1.539,IMU2,0.9756097560975611,119.20731707317074,-1.6463414634146343,-0.044921875,-0.619140625,0.0263671875
563,1.549,IMU0,0.12195121951219513,118.78048780487806,-1.6463414634146343,-0.0439453125,-0.607421875,0.025390625
564,1.549,IMU1,0.48780487804878053,117.56097560975611,-1.0975609756097562,-0.03515625,-0.6005859375,0.033203125
565,1.549,IMU2,0.853658536585366,119.02439024390245,-1.5853658536585367,-0.0498046875,-0.6083984375,0.0400390625
566,1.559,IMU0,0.0,118.71951219512196,-1.5853658536585367,-0.041015625,-0.6015625,0.0087890625
567,1.559,IMU1,0.426829268292683,117.56097560975611,-1.0975609756097562,-0.033203125,-0.59375,0.0166015625
568,1.559,IMU2,0.7926829268292683,119.02439024390245,-1.5853658536585367,-0.0478515625,-0.603515625,0.0205078125
569,1.569,IMU0,0.0,118.35365853658537,-1.6463414634146343,-0.0380859375,-0.603515625,-0.0009765625
570,1.569,IMU1,0.5487804878048781,117.13414634146342,-1.0975609756097562,-0.0302734375,-0.59765625,0.0068359375
571,1.569,IMU2,0.7926829268292683,118.59756097560977,-1.5853658536585367,-0.0478515625,-0.6064453125,0.013671875
572,1.579,IMU0,0.0,118.17073170731709,-1.5853658536585367,-0.0283203125,-0.5966796875,0.0185546875
573,1.579,IMU1,0.5487804878048781,117.01219512195122,-0.9756097560975611,-0.01953125,-0.5908203125,0.0263671875
574,1.579,IMU2,0.7926829268292683,118.47560975609757,-1.402439024390244,-0.03515625,-0.599609375,0.033203125
575,1.589,IMU0,0.0,118.17073170731709,-1.4634146341463417,-0.0341796875,-0.591796875,-0.0009765625
576,1.589,IMU1,0.6097560975609757,116.95121951219514,-0.853658536585366,-0.0244140625,-0.5869140625,0.005859375
577,1.589,IMU2,0.853658536585366,118.41463414634147,-1.3414634146341464,-0.0400390625,-0.5966796875,0.0087890625
578,1.599,IMU0,0.24390243902439027,118.29268292682927,-1.402439024390244,-0.0283203125,-0.5908203125,-0.0048828125
579,1.599,IMU1,0.7317073170731708,117.01219512195122,-0.7317073170731708,-0.01953125,-0.5849609375,0.0029296875
580,1.599,IMU2,0.9756097560975611,118.47560975609757,-1.2804878048780488,-0.0322265625,-0.5947265625,0.0078125
581,1.609,IMU0,0.3658536585365854,118.23170731707319,-1.0975609756097562,-0.021484375,-0.5908203125,0.00390625
582,1.609,IMU1,0.9756097560975611,117.01219512195122,-0.5487804878048781,-0.013671875,-0.583984375,0.0107421875
583,1.609,IMU2,1.0975609756097562,118.41463414634147,-1.0365853658536586,-0.0263671875,-0.595703125,0.015625
584,1.619,IMU0,0.5487804878048781,118.17073170731709,-0.9146341463414634,-0.0283203125,-0.5888671875,-0.00390625
585,1.619,IMU1,0.9756097560975611,116.95121951219514,-0.30487804878048785,-0.0205078125,-0.5830078125,0.001953125
586,1.619,IMU2,1.2804878048780488,118.29268292682927,-0.7926829268292683,-0.033203125,-0.5927734375,0.01171875
587,1.629,IMU0,0.6707317073170732,118.10975609756099,-0.5487804878048781,-0.0185546875,-0.5859375,0.01171875
588,1.629,IMU1,1.1585365853658538,116.89024390243904,-0.06097560975609757,-0.01171875,-0.578125,0.0166015625
589,1.629,IMU2,1.3414634146341464,118.35365853658537,-0.5487804878048781,-0.0283203125,-0.5888671875,0.0234375
590,1.639,IMU0,0.7317073170731708,117.8048780487805,-0.3658536585365854,-0.03125,-0.580078125,-0.00390625
591,1.639,IMU1,1.2804878048780488,116.58536585365854,0.1829268292682927,-0.025390625,-0.5732421875,0.0
592,1.639,IMU2,1.4634146341463417,117.98780487804879,-0.3658536585365854,-0.037109375,-0.5849609375,0.0068359375
593,1.649,IMU0,0.7926829268292683,117.8658536585366,-0.24390243902439027,-0.0244140625,-0.583984375,0.009765625
594,1.649,IMU1,1.2195121951219514,116.64634146341464,0.3658536585365854,-0.0185546875,-0.576171875,0.017578125
595,1.649,IMU2,1.524390243902439,118.04878048780489,-0.1829268292682927,-0.0322265625,-0.5869140625,0.021484375
596,1.659,IMU0,0.7926829268292683,117.8048780487805,0.0,-0.033203125,-0.5751953125,0.0048828125
597,1.659,IMU1,1.2804878048780488,116.52439024390245,0.6097560975609757,-0.025390625,-0.5673828125,0.013671875
598,1.659,IMU2,1.4634146341463417,117.92682926829269,0.06097560975609757,-0.037109375,-0.578125,0.017578125
599,1.669,IMU0,0.6097560975609757,117.56097560975611,0.24390243902439027,-0.025390625,-0.57421875,0.0107421875
600,1.669,IMU1,1.1585365853658538,116.34146341463416,0.853658536585366,-0.0166015625,-0.56640625,0.021484375
601,1.669,IMU2,1.402439024390244,117.8048780487805,0.30487804878048785,-0.03125,-0.578125,0.0283203125
602,1.679,IMU0,0.6097560975609757,117.50000000000001,0.426829268292683,-0.0390625,-0.5673828125,0.0048828125
603,1.679,IMU1,1.0365853658536586,116.28048780487806,1.0365853658536586,-0.0322265625,-0.5625,0.0146484375
604,1.679,IMU2,1.2804878048780488,117.7439024390244,0.426829268292683,-0.046875,-0.5732421875,0.0205078125
605,1.689,IMU0,0.48780487804878053,117.37804878048782,0.5487804878048781,-0.0341796875,-0.568359375,0.0048828125
606,1.689,IMU1,1.0365853658536586,116.15853658536587,1.0975609756097562,-0.02734375,-0.5615234375,0.0126953125
607,1.689,IMU2,1.2195121951219514,117.56097560975611,0.5487804878048781,-0.0380859375,-0.572265625,0.017578125
608,1.699,IMU0,0.5487804878048781,116.95121951219514,0.6097560975609757,-0.044921875,-0.5625,0.0048828125
609,1.699,IMU1,1.0365853658536586,115.67073170731709,1.1585365853658538,-0.0390625,-0.556640625,0.013671875
610,1.699,IMU2,1.2195121951219514,117.07317073170732,0.6097560975609757,-0.052734375,-0.56640625,0.0166015625
611,1.709,IMU0,0.5487804878048781,116.46341463414635,0.5487804878048781,-0.044921875,-0.5615234375,-0.005859375
612,1.709,IMU1,1.0365853658536586,115.2439024390244,1.1585365853658538,-0.0380859375,-0.5546875,0.0029296875
613,1.709,IMU2,1.2804878048780488,116.64634146341464,0.5487804878048781,-0.05078125,-0.564453125,0.005859375
614,1.719,IMU0,0.6097560975609757,116.21951219512196,0.5487804878048781,-0.0419921875,-0.556640625,0.005859375
615,1.719,IMU1,1.0975609756097562,114.93902439024392,1.0975609756097562,-0.0341796875,-0.55078125,0.0126953125
616,1.719,IMU2,1.2804878048780488,116.40243902439025,0.5487804878048781,-0.0498046875,-0.556640625,0.015625
617,1.729,IMU0,0.6707317073170732,116.15853658536587,0.48780487804878053,-0.0419921875,-0.5546875,-0.0107421875
618,1.729,IMU1,1.2195121951219514,114.93902439024392,1.0365853658536586,-0.03515625,-0.548828125,-0.0009765625
619,1.729,IMU2,1.402439024390244,116.34146341463416,0.48780487804878053,-0.0498046875,-0.5556640625,0.001953125
620,1.739,IMU0,0.7317073170731708,115.97560975609757,0.426829268292683,-0.0361328125,-0.5478515625,-0.0029296875
621,1.739,IMU1,1.2195121951219514,114.69512195121952,0.9146341463414634,-0.029296875,-0.5419921875,0.0068359375
622,1.739,IMU2,1.4634146341463417,116.09756097560977,0.48780487804878053,-0.0400390625,-0.55078125,0.0126953125
623,1.749,IMU0,0.9146341463414634,115.67073170731709,0.3658536585365854,-0.041015625,-0.548828125,-0.00390625
624,1.749,IMU1,1.4634146341463417,114.32926829268294,0.9146341463414634,-0.03515625,-0.54296875,0.0068359375
625,1.749,IMU2,1.6463414634146343,115.85365853658537,0.426829268292683,-0.044921875,-0.5517578125,0.0078125
626,1.759,IMU0,1.0365853658536586,115.54878048780489,0.426829268292683,-0.025390625,-0.5458984375,-0.0068359375
627,1.759,IMU1,1.6463414634146343,114.20731707317074,0.9756097560975611,-0.0185546875,-0.541015625,0.00390625
628,1.759,IMU2,1.829268292682927,115.67073170731709,0.48780487804878053,-0.0322265625,-0.548828125,0.009765625
629,1.769,IMU0,1.0365853658536586,115.1829268292683,0.48780487804878053,-0.03515625,-0.544921875,0.0166015625
630,1.769,IMU1,1.5853658536585367,113.90243902439025,1.0365853658536586,-0.02734375,-0.5400390625,0.025390625
631,1.769,IMU2,1.829268292682927,115.3048780487805,0.5487804878048781,-0.0419921875,-0.548828125,0.0302734375
632,1.779,IMU0,0.9756097560975611,114.69512195121952,0.5487804878048781,-0.0263671875,-0.54296875,0.0
633,1.779,IMU1,1.524390243902439,113.41463414634147,1.0975609756097562,-0.0185546875,-0.5380859375,0.0087890625
634,1.779,IMU2,1.707317073170732,114.87804878048782,0.6707317073170732,-0.0322265625,-0.546875,0.015625
635,1.789,IMU0,0.853658536585366,114.39024390243904,0.6707317073170732,-0.0283203125,-0.541015625,0.0166015625
636,1.789,IMU1,1.524390243902439,113.10975609756099,1.1585365853658538,-0.021484375,-0.5361328125,0.025390625
637,1.789,IMU2,1.707317073170732,114.63414634146342,0.7317073170731708,-0.0341796875,-0.5439453125,0.029296875
638,1.799,IMU0,0.853658536585366,114.14634146341464,0.7317073170731708,-0.0302734375,-0.53515625,0.0107421875
639,1.799,IMU1,1.402439024390244,112.8658536585366,1.2804878048780488,-0.0224609375,-0.529296875,0.0185546875
640,1.799,IMU2,1.6463414634146343,114.39024390243904,0.7926829268292683,-0.037109375,-0.5380859375,0.021484375
641,1.809,IMU0,0.6707317073170732,113.78048780487806,0.853658536585366,-0.02734375,-0.5341796875,0.0126953125
642,1.809,IMU1,1.2195121951219514,112.50000000000001,1.3414634146341464,-0.01953125,-0.529296875,0.021484375
643,1.809,IMU2,1.402439024390244,113.96341463414635,0.9756097560975611,-0.033203125,-0.5390625,0.0244140625
644,1.819,IMU0,0.426829268292683,113.47560975609757,0.9146341463414634,-0.0283203125,-0.537109375,0.0224609375
645,1.819,IMU1,1.0365853658536586,112.13414634146342,1.524390243902439,-0.021484375,-0.5322265625,0.0302734375
646,1.819,IMU2,1.1585365853658538,113.59756097560977,1.0975609756097562,-0.0380859375,-0.541015625,0.0302734375
647,1.829,IMU0,0.30487804878048785,113.47560975609757,1.0365853658536586,-0.02734375,-0.5302734375,-0.005859375
648,1.829,IMU1,0.853658536585366,112.19512195121952,1.5853658536585367,-0.021484375,-0.525390625,0.0
649,1.829,IMU2,0.9756097560975611,113.65853658536587,1.1585365853658538,-0.03515625,-0.5341796875,0.005859375
650,1.839,IMU0,0.24390243902439027,113.41463414634147,1.2195121951219514,-0.0283203125,-0.53515625,0.0107421875
651,1.839,IMU1,0.7926829268292683,112.13414634146342,1.707317073170732,-0.0234375,-0.529296875,0.0166015625
652,1.839,IMU2,0.9146341463414634,113.59756097560977,1.3414634146341464,-0.0390625,-0.5400390625,0.0234375
653,1.849,IMU0,0.12195121951219513,113.35365853658537,1.2804878048780488,-0.0380859375,-0.533203125,-0.00390625
654,1.849,IMU1,0.7317073170731708,112.13414634146342,1.829268292682927,-0.029296875,-0.52734375,-0.0009765625
655,1.849,IMU2,0.7926829268292683,113.59756097560977,1.402439024390244,-0.04296875,-0.5380859375,0.005859375
656,1.859,IMU0,0.0,113.10975609756099,1.402439024390244,-0.0302734375,-0.5283203125,-0.0009765625
657,1.859,IMU1,0.6097560975609757,112.01219512195122,1.8902439024390245,-0.025390625,-0.5224609375,0.0048828125
658,1.859,IMU2,0.6707317073170732,113.41463414634147,1.402439024390244,-0.0380859375,-0.533203125,0.013671875
659,1.869,IMU0,0.0,113.10975609756099,1.3414634146341464,-0.0419921875,-0.52734375,-0.0009765625
660,1.869,IMU1,0.6097560975609757,111.89024390243904,1.829268292682927,-0.037109375,-0.521484375,-0.00390625
661,1.869,IMU2,0.7317073170731708,113.35365853658537,1.4634146341463417,-0.048828125,-0.5322265625,0.0078125
662,1.879,IMU0,0.12195121951219513,113.17073170731709,1.402439024390244,-0.029296875,-0.5234375,-0.013671875
663,1.879,IMU1,0.7317073170731708,111.89024390243904,1.9512195121951221,-0.0234375,-0.5166015625,-0.013671875
664,1.879,IMU2,0.7926829268292683,113.35365853658537,1.4634146341463417,-0.0361328125,-0.52734375,-0.001953125
665,1.889,IMU0,0.24390243902439027,113.10975609756099,1.402439024390244,-0.048828125,-0.51953125,-0.0087890625
666,1.889,IMU1,0.853658536585366,111.82926829268294,1.9512195121951221,-0.0439453125,-0.513671875,-0.00390625
667,1.889,IMU2,0.9756097560975611,113.23170731707319,1.4634146341463417,-0.0576171875,-0.521484375,0.001953125
668,1.899,IMU0,0.3658536585365854,112.92682926829269,1.3414634146341464,-0.041015625,-0.517578125,-0.0205078125
669,1.899,IMU1,0.853658536585366,111.58536585365854,1.8902439024390245,-0.0361328125,-0.5126953125,-0.013671875
670,1.899,IMU2,1.0365853658536586,113.10975609756099,1.402439024390244,-0.048828125,-0.5205078125,-0.0078125
671,1.909,IMU0,0.3658536585365854,112.56097560975611,1.2804878048780488,-0.048828125,-0.513671875,-0.0107421875
672,1.909,IMU1,0.9756097560975611,111.21951219512196,1.829268292682927,-0.04296875,-0.5078125,-0.0048828125
673,1.909,IMU2,1.1585365853658538,112.6829268292683,1.2804878048780488,-0.0556640625,-0.517578125,0.001953125
674,1.919,IMU0,0.48780487804878053,112.13414634146342,1.2195121951219514,-0.0498046875,-0.51171875,-0.0244140625
675,1.919,IMU1,1.0365853658536586,110.85365853658537,1.7682926829268295,-0.0439453125,-0.5068359375,-0.0166015625
676,1.919,IMU2,1.2804878048780488,112.31707317073172,1.2804878048780488,-0.056640625,-0.5146484375,-0.009765625
677,1.929,IMU0,0.6707317073170732,111.89024390243904,1.1585365853658538,-0.0537109375,-0.5087890625,-0.0341796875
678,1.929,IMU1,1.2195121951219514,110.67073170731709,1.6463414634146343,-0.0478515625,-0.5048828125,-0.0263671875
679,1.929,IMU2,1.4634146341463417,112.07317073170732,1.2195121951219514,-0.0595703125,-0.5126953125,-0.021484375
680,1.939,IMU0,1.0365853658536586,111.70731707317074,1.0365853658536586,-0.0654296875,-0.505859375,-0.037109375
681,1.939,IMU1,1.5853658536585367,110.48780487804879,1.524390243902439,-0.060546875,-0.4990234375,-0.0302734375
682,1.939,IMU2,1.707317073170732,111.89024390243904,1.0365853658536586,-0.0732421875,-0.5087890625,-0.025390625
683,1.949,IMU0,1.3414634146341464,111.28048780487806,0.853658536585366,-0.0576171875,-0.5029296875,-0.0400390625
684,1.949,IMU1,1.9512195121951221,110.1219512195122,1.402439024390244,-0.0537109375,-0.4970703125,-0.03515625
685,1.949,IMU2,2.1341463414634148,111.52439024390245,0.9146341463414634,-0.0654296875,-0.505859375,-0.029296875
686,1.959,IMU0,1.7682926829268295,110.85365853658537,0.6097560975609757,-0.0654296875,-0.5009765625,-0.033203125
687,1.959,IMU1,2.3170731707317076,109.63414634146342,1.1585365853658538,-0.0595703125,-0.4951171875,-0.02734375
688,1.959,IMU2,2.5,111.03658536585367,0.6707317073170732,-0.07421875,-0.50390625,-0.021484375
689,1.969,IMU0,2.1951219512195124,110.60975609756099,0.426829268292683,-0.0546875,-0.5,-0.041015625
690,1.969,IMU1,2.804878048780488,109.39024390243904,1.0365853658536586,-0.048828125,-0.4951171875,-0.0322265625
691,1.969,IMU2,2.8658536585365857,110.91463414634147,0.48780487804878053,-0.0625,-0.5048828125,-0.0234375
692,1.979,IMU0,2.378048780487805,110.3048780487805,0.1829268292682927,-0.0673828125,-0.4970703125,-0.02734375
693,1.979,IMU1,2.987804878048781,109.14634146341464,0.7317073170731708,-0.0625,-0.4912109375,-0.01953125
694,1.979,IMU2,3.1097560975609757,110.54878048780489,0.1829268292682927,-0.07421875,-0.5,-0.0126953125
695,1.989,IMU0,2.5,110.00000000000001,-0.06097560975609757,-0.048828125,-0.4921875,-0.0302734375
696,1.989,IMU1,3.1707317073170733,108.84146341463416,0.5487804878048781,-0.0439453125,-0.486328125,-0.0224609375
697,1.989,IMU2,3.2926829268292686,110.1829268292683,0.0,-0.056640625,-0.494140625,-0.0146484375
698,1.999,IMU0,2.804878048780488,109.63414634146342,-0.1829268292682927,-0.056640625,-0.490234375,-0.0390625
699,1.999,IMU1,3.414634146341464,108.41463414634147,0.3658536585365854,-0.052734375,-0.484375,-0.03125
700,1.999,IMU2,3.536585365853659,109.81707317073172,-0.12195121951219513,-0.064453125,-0.4921875,-0.0224609375
701,2.009,IMU0,3.048780487804878,109.45121951219514,-0.24390243902439027,-0.04296875,-0.4892578125,-0.037109375
702,2.009,IMU1,3.7195121951219514,108.17073170731709,0.30487804878048785,-0.0380859375,-0.484375,-0.03125
703,2.009,IMU2,3.8414634146341466,109.63414634146342,-0.1829268292682927,-0.05078125,-0.4921875,-0.0244140625
704,2.019,IMU0,3.4756097560975614,109.14634146341464,-0.24390243902439027,-0.05078125,-0.48828125,-0.0419921875
705,2.019,IMU1,4.024390243902439,107.8658536585366,0.3658536585365854,-0.044921875,-0.4833984375,-0.03515625
706,2.019,IMU2,4.146341463414634,109.32926829268294,-0.1829268292682927,-0.05859375,-0.4912109375,-0.03125
707,2.029,IMU0,3.780487804878049,108.84146341463416,-0.1829268292682927,-0.0498046875,-0.4873046875,-0.033203125
708,2.029,IMU1,4.390243902439025,107.43902439024392,0.3658536585365854,-0.04296875,-0.482421875,-0.0263671875
709,2.029,IMU2,4.51219512195122,108.96341463414635,-0.1829268292682927,-0.056640625,-0.490234375,-0.01953125
710,2.039,IMU0,4.085365853658537,108.41463414634147,-0.24390243902439027,-0.05078125,-0.4892578125,-0.02734375
711,2.039,IMU1,4.634146341463415,107.07317073170732,0.3658536585365854,-0.044921875,-0.4833984375,-0.01953125
712,2.039,IMU2,4.817073170731708,108.53658536585367,-0.1829268292682927,-0.05859375,-0.4912109375,-0.0146484375
713,2.049,IMU0,4.329268292682928,107.98780487804879,-0.3658536585365854,-0.0576171875,-0.48828125,-0.025390625
714,2.049,IMU1,4.878048780487806,106.76829268292684,0.24390243902439027,-0.05078125,-0.4814453125,-0.0185546875
715,2.049,IMU2,5.060975609756098,108.17073170731709,-0.24390243902439027,-0.0634765625,-0.490234375,-0.009765625
716,2.059,IMU0,4.451219512195122,107.56097560975611,-0.3658536585365854,-0.0439453125,-0.4833984375,-0.005859375
717,2.059,IMU1,5.060975609756098,106.28048780487806,0.1829268292682927,-0.037109375,-0.4765625,-0.0009765625
718,2.059,IMU2,5.182926829268293,107.7439024390244,-0.30487804878048785,-0.05078125,-0.486328125,0.005859375
719,2.069,IMU0,4.451219512195122,107.31707317073172,-0.3658536585365854,-0.05078125,-0.48046875,0.0
720,2.069,IMU1,5.060975609756098,106.03658536585367,0.1829268292682927,-0.0439453125,-0.47265625,0.0048828125
721,2.069,IMU2,5.182926829268293,107.56097560975611,-0.30487804878048785,-0.056640625,-0.482421875,0.01171875
722,2.079,IMU0,4.390243902439025,107.37804878048782,-0.30487804878048785,-0.0439453125,-0.4814453125,0.001953125
723,2.079,IMU1,5.0,106.15853658536587,0.24390243902439027,-0.037109375,-0.4736328125,0.0087890625
724,2.079,IMU2,5.121951219512195,107.6219512195122,-0.24390243902439027,-0.0517578125,-0.4853515625,0.0166015625
725,2.089,IMU0,4.329268292682928,107.43902439024392,-0.30487804878048785,-0.0517578125,-0.4765625,0.009765625
726,2.089,IMU1,5.0,106.15853658536587,0.30487804878048785,-0.0439453125,-0.4697265625,0.0166015625
727,2.089,IMU2,5.060975609756098,107.6219512195122,-0.1829268292682927,-0.056640625,-0.4794921875,0.025390625
728,2.099,IMU0,4.2682926829268295,107.50000000000001,-0.30487804878048785,-0.0517578125,-0.4755859375,0.005859375
729,2.099,IMU1,4.939024390243903,106.28048780487806,0.30487804878048785,-0.044921875,-0.46875,0.0126953125
730,2.099,IMU2,5.0,107.6219512195122,-0.24390243902439027,-0.0576171875,-0.4794921875,0.0205078125
731,2.109,IMU0,4.2682926829268295,107.50000000000001,-0.30487804878048785,-0.0517578125,-0.4755859375,0.005859375
732,2.109,IMU1,4.817073170731708,106.09756097560977,0.1829268292682927,-0.0517578125,-0.4658203125,0.0205078125
733,2.109,IMU2,4.939024390243903,107.43902439024392,-0.3658536585365854,-0.0654296875,-0.474609375,0.02734375
734,2.119,IMU0,3.963414634146342,107.25609756097562,-0.5487804878048781,-0.0537109375,-0.466796875,0.0244140625
735,2.119,IMU1,4.695121951219512,105.91463414634147,0.06097560975609757,-0.0498046875,-0.4609375,0.03125
736,2.119,IMU2,4.75609756097561,107.37804878048782,-0.48780487804878053,-0.0595703125,-0.4697265625,0.03515625
737,2.129,IMU0,3.780487804878049,107.13414634146342,-0.6097560975609757,-0.0517578125,-0.4609375,0.021484375
738,2.129,IMU1,4.390243902439025,105.85365853658537,-0.06097560975609757,-0.0478515625,-0.455078125,0.03125
739,2.129,IMU2,4.51219512195122,107.31707317073172,-0.6707317073170732,-0.0595703125,-0.46484375,0.0361328125
740,2.139,IMU0,3.4756097560975614,106.95121951219514,-0.7317073170731708,-0.0576171875,-0.462890625,0.0283203125
741,2.139,IMU1,4.085365853658537,105.73170731707317,-0.24390243902439027,-0.052734375,-0.4580078125,0.0380859375
742,2.139,IMU2,4.207317073170732,107.13414634146342,-0.7926829268292683,-0.0615234375,-0.466796875,0.0419921875
743,2.149,IMU0,3.1707317073170733,106.89024390243904,-0.9146341463414634,-0.048828125,-0.4619140625,0.029296875
744,2.149,IMU1,3.780487804878049,105.60975609756099,-0.3658536585365854,-0.0439453125,-0.45703125,0.0380859375
745,2.149,IMU2,3.8414634146341466,107.07317073170732,-0.853658536585366,-0.0537109375,-0.4638671875,0.0439453125
746,2.159,IMU0,2.682926829268293,106.89024390243904,-1.0365853658536586,-0.0517578125,-0.4619140625,0.0390625
747,2.159,IMU1,3.2926829268292686,105.60975609756099,-0.426829268292683,-0.0458984375,-0.4560546875,0.046875
748,2.159,IMU2,3.353658536585366,107.01219512195122,-0.9756097560975611,-0.05859375,-0.46484375,0.0546875
749,2.169,IMU0,2.1951219512195124,106.76829268292684,-1.1585365853658538,-0.044921875,-0.4541015625,0.041015625
750,2.169,IMU1,2.7439024390243905,105.54878048780489,-0.6097560975609757,-0.041015625,-0.447265625,0.0478515625
751,2.169,IMU2,2.8658536585365857,106.89024390243904,-1.1585365853658538,-0.0517578125,-0.45703125,0.0556640625
752,2.179,IMU0,1.6463414634146343,106.52439024390245,-1.2195121951219514,-0.04296875,-0.453125,0.03515625
753,2.179,IMU1,2.378048780487805,105.2439024390244,-0.6707317073170732,-0.0380859375,-0.4462890625,0.041015625
754,2.179,IMU2,2.378048780487805,106.64634146341464,-1.2195121951219514,-0.0498046875,-0.4560546875,0.048828125
755,2.189,IMU0,1.2804878048780488,106.03658536585367,-1.2195121951219514,-0.0322265625,-0.453125,0.03515625
756,2.189,IMU1,1.8902439024390245,104.81707317073172,-0.6707317073170732,-0.02734375,-0.447265625,0.041015625
757,2.189,IMU2,2.0121951219512195,106.21951219512196,-1.2195121951219514,-0.0390625,-0.4560546875,0.0478515625
758,2.199,IMU0,0.9756097560975611,105.67073170731709,-1.1585365853658538,-0.0361328125,-0.4521484375,0.0302734375
759,2.199,IMU1,1.5853658536585367,104.51219512195122,-0.6707317073170732,-0.0322265625,-0.4453125,0.0341796875
760,2.199,IMU2,1.707317073170732,105.79268292682927,-1.1585365853658538,-0.04296875,-0.4541015625,0.041015625
761,2.209,IMU0,0.7317073170731708,105.2439024390244,-1.1585365853658538,-0.0302734375,-0.447265625,0.0283203125
762,2.209,IMU1,1.3414634146341464,104.02439024390245,-0.6707317073170732,-0.02734375,-0.4404296875,0.033203125
763,2.209,IMU2,1.402439024390244,105.3658536585366,-1.1585365853658538,-0.0390625,-0.451171875,0.0380859375
764,2.219,IMU0,0.426829268292683,105.00000000000001,-1.0975609756097562,-0.03125,-0.4423828125,0.0361328125
765,2.219,IMU1,1.0975609756097562,103.65853658536587,-0.6097560975609757,-0.02734375,-0.4365234375,0.041015625
766,2.219,IMU2,1.1585365853658538,105.1219512195122,-1.0365853658536586,-0.0390625,-0.447265625,0.048828125
767,2.229,IMU0,0.1829268292682927,104.63414634146342,-1.0365853658536586,-0.0302734375,-0.439453125,0.0244140625
768,2.229,IMU1,0.853658536585366,103.35365853658537,-0.48780487804878053,-0.0263671875,-0.43359375,0.02734375
769,2.229,IMU2,0.853658536585366,104.81707317073172,-1.0365853658536586,-0.0380859375,-0.4423828125,0.0361328125
770,2.239,IMU0,-0.06097560975609757,104.39024390243904,-0.9756097560975611,-0.03125,-0.4384765625,0.025390625
771,2.239,IMU1,0.6707317073170732,103.04878048780489,-0.3658536585365854,-0.0263671875,-0.43359375,0.029296875
772,2.239,IMU2,0.6097560975609757,104.63414634146342,-0.9146341463414634,-0.0390625,-0.44140625,0.0380859375
773,2.249,IMU0,-0.24390243902439027,104.02439024390245,-0.9146341463414634,-0.0341796875,-0.4443359375,0.0146484375
774,2.249,IMU1,0.48780487804878053,102.7439024390244,-0.3658536585365854,-0.0283203125,-0.4375,0.0205078125
775,2.249,IMU2,0.48780487804878053,104.26829268292684,-0.853658536585366,-0.0419921875,-0.447265625,0.02734375
776,2.259,IMU0,-0.3658536585365854,103.71951219512196,-0.853658536585366,-0.033203125,-0.44140625,0.0078125
777,2.259,IMU1,0.24390243902439027,102.50000000000001,-0.3658536585365854,-0.02734375,-0.4345703125,0.0146484375
778,2.259,IMU2,0.3658536585365854,103.96341463414635,-0.853658536585366,-0.0400390625,-0.4443359375,0.0205078125
779,2.269,IMU0,-0.48780487804878053,103.65853658536587,-0.9146341463414634,-0.029296875,-0.4365234375,0.001953125
780,2.269,IMU1,0.1829268292682927,102.37804878048782,-0.3658536585365854,-0.0244140625,-0.4287109375,0.0087890625
781,2.269,IMU2,0.1829268292682927,103.90243902439025,-0.853658536585366,-0.037109375,-0.4384765625,0.015625
782,2.279,IMU0,-0.48780487804878053,103.41463414634147,-0.853658536585366,-0.0244140625,-0.431640625,-0.001953125
783,2.279,IMU1,0.24390243902439027,102.13414634146342,-0.30487804878048785,-0.01953125,-0.4248046875,0.0029296875
784,2.279,IMU2,0.30487804878048785,103.71951219512196,-0.7926829268292683,-0.0322265625,-0.43359375,0.0107421875
785,2.289,IMU0,-0.426829268292683,103.35365853658537,-0.7317073170731708,-0.0244140625,-0.4296875,-0.00390625
786,2.289,IMU1,0.30487804878048785,102.13414634146342,-0.1829268292682927,-0.0185546875,-0.4228515625,0.00390625
787,2.289,IMU2,0.3658536585365854,103.59756097560977,-0.7317073170731708,-0.03125,-0.431640625,0.0087890625
788,2.299,IMU0,-0.30487804878048785,103.35365853658537,-0.6097560975609757,-0.0224609375,-0.4306640625,-0.0029296875
789,2.299,IMU1,0.3658536585365854,102.01219512195122,-0.06097560975609757,-0.017578125,-0.4248046875,0.00390625
790,2.299,IMU2,0.426829268292683,103.59756097560977,-0.6097560975609757,-0.0283203125,-0.4326171875,0.0087890625
791,2.309,IMU0,-0.30487804878048785,103.41463414634147,-0.48780487804878053,-0.02734375,-0.4296875,-0.0029296875
792,2.309,IMU1,0.426829268292683,102.13414634146342,0.06097560975609757,-0.021484375,-0.4228515625,0.0048828125
793,2.309,IMU2,0.48780487804878053,103.65853658536587,-0.48780487804878053,-0.0341796875,-0.4326171875,0.009765625
794,2.319,IMU0,-0.24390243902439027,103.59756097560977,-0.426829268292683,-0.0224609375,-0.423828125,-0.005859375
795,2.319,IMU1,0.426829268292683,102.31707317073172,0.1829268292682927,-0.017578125,-0.41796875,0.0029296875
796,2.319,IMU2,0.48780487804878053,103.78048780487806,-0.426829268292683,-0.029296875,-0.427734375,0.0078125
797,2.329,IMU0,-0.3658536585365854,103.59756097560977,-0.30487804878048785,-0.0234375,-0.4208984375,0.0
798,2.329,IMU1,0.3658536585365854,102.31707317073172,0.24390243902439027,-0.0185546875,-0.4150390625,0.0068359375
799,2.329,IMU2,0.426829268292683,103.84146341463415,-0.30487804878048785,-0.0302734375,-0.42578125,0.01171875
800,2.339,IMU0,-0.3658536585365854,103.53658536585367,-0.24390243902439027,-0.0244140625,-0.4189453125,-0.00390625
801,2.339,IMU1,0.3658536585365854,102.19512195121952,0.30487804878048785,-0.01953125,-0.412109375,0.00390625
802,2.339,IMU2,0.3658536585365854,103.78048780487806,-0.1829268292682927,-0.03125,-0.4228515625,0.0087890625
803,2.349,IMU0,-0.3658536585365854,103.35365853658537,-0.12195121951219513,-0.0166015625,-0.4150390625,-0.015625
804,2.349,IMU1,0.24390243902439027,102.07317073170732,0.426829268292683,-0.01171875,-0.4091796875,-0.0078125
805,2.349,IMU2,0.3658536585365854,103.59756097560977,-0.06097560975609757,-0.0234375,-0.4189453125,-0.0029296875
806,2.359,IMU0,-0.30487804878048785,102.92682926829269,-0.06097560975609757,-0.0244140625,-0.4130859375,-0.0068359375
807,2.359,IMU1,0.3658536585365854,101.64634146341464,0.5487804878048781,-0.0185546875,-0.408203125,0.0
808,2.359,IMU2,0.3658536585365854,103.17073170731709,0.0,-0.03125,-0.4169921875,0.005859375
809,2.369,IMU0,-0.24390243902439027,102.50000000000001,0.0,-0.017578125,-0.4140625,-0.0166015625
810,2.369,IMU1,0.426829268292683,101.21951219512196,0.6097560975609757,-0.01171875,-0.4072265625,-0.0078125
811,2.369,IMU2,0.48780487804878053,102.6829268292683,0.0,-0.0234375,-0.4169921875,-0.0068359375
812,2.379,IMU0,-0.12195121951219513,102.07317073170732,0.12195121951219513,-0.015625,-0.4140625,-0.0146484375
813,2.379,IMU1,0.5487804878048781,100.79268292682927,0.6707317073170732,-0.01171875,-0.408203125,-0.0107421875
814,2.379,IMU2,0.6707317073170732,102.19512195121952,0.12195121951219513,-0.0224609375,-0.4169921875,-0.005859375
815,2.389,IMU0,-0.06097560975609757,101.70731707317074,0.30487804878048785,-0.015625,-0.412109375,-0.0166015625
816,2.389,IMU1,0.7317073170731708,100.42682926829269,0.7926829268292683,-0.0107421875,-0.404296875,-0.01171875
817,2.389,IMU2,0.7317073170731708,101.95121951219512,0.24390243902439027,-0.0234375,-0.4140625,-0.00390625
818,2.399,IMU0,0.1829268292682927,101.46341463414635,0.48780487804878053,-0.0126953125,-0.4052734375,-0.01171875
819,2.399,IMU1,0.9146341463414634,100.1219512195122,0.9756097560975611,-0.0048828125,-0.3974609375,-0.005859375
820,2.399,IMU2,0.9146341463414634,101.64634146341464,0.3658536585365854,-0.0185546875,-0.4072265625,-0.0009765625
821,2.409,IMU0,0.24390243902439027,101.34146341463415,0.6097560975609757,-0.01953125,-0.404296875,-0.0078125
822,2.409,IMU1,0.9146341463414634,99.93902439024392,1.1585365853658538,-0.013671875,-0.3974609375,-0.001953125
823,2.409,IMU2,0.9756097560975611,101.52439024390245,0.6097560975609757,-0.025390625,-0.40625,0.0048828125
824,2.419,IMU0,0.1829268292682927,101.03658536585367,0.853658536585366,-0.0126953125,-0.40625,-0.0078125
825,2.419,IMU1,0.9756097560975611,99.69512195121952,1.2804878048780488,-0.0068359375,-0.400390625,-0.00390625
826,2.419,IMU2,0.9146341463414634,101.21951219512196,0.853658536585366,-0.0185546875,-0.41015625,0.00390625
827,2.429,IMU0,0.24390243902439027,100.73170731707317,1.0365853658536586,-0.0185546875,-0.40234375,-0.01171875
828,2.429,IMU1,1.0365853658536586,99.32926829268294,1.524390243902439,-0.013671875,-0.3974609375,-0.0078125
829,2.429,IMU2,0.9756097560975611,100.91463414634147,1.0365853658536586,-0.0244140625,-0.40625,0.001953125
830,2.439,IMU0,0.24390243902439027,100.42682926829269,1.2804878048780488,-0.017578125,-0.400390625,-0.0048828125
831,2.439,IMU1,0.9756097560975611,99.08536585365854,1.707317073170732,-0.0126953125,-0.3955078125,0.0009765625
832,2.439,IMU2,1.0365853658536586,100.54878048780489,1.2195121951219514,-0.025390625,-0.404296875,0.0068359375
833,2.449,IMU0,0.24390243902439027,100.1829268292683,1.2804878048780488,-0.0283203125,-0.400390625,-0.0126953125
834,2.449,IMU1,0.9146341463414634,98.78048780487806,1.7682926829268295,-0.0224609375,-0.39453125,-0.0068359375
835,2.449,IMU2,0.9756097560975611,100.3048780487805,1.2804878048780488,-0.0361328125,-0.4013671875,0.0009765625
836,2.459,IMU0,0.24390243902439027,99.87804878048782,1.2804878048780488,-0.0224609375,-0.39453125,-0.009765625
837,2.459,IMU1,0.9756097560975611,98.53658536585367,1.7682926829268295,-0.017578125,-0.3896484375,-0.0048828125
838,2.459,IMU2,0.9756097560975611,100.06097560975611,1.2804878048780488,-0.029296875,-0.396484375,-0.0009765625
839,2.469,IMU0,0.30487804878048785,99.51219512195122,1.2804878048780488,-0.02734375,-0.392578125,-0.009765625
840,2.469,IMU1,0.9756097560975611,98.23170731707317,1.829268292682927,-0.0234375,-0.38671875,-0.005859375
841,2.469,IMU2,1.0975609756097562,99.75609756097562,1.2804878048780488,-0.0341796875,-0.39453125,0.0
842,2.479,IMU0,0.30487804878048785,99.45121951219512,1.3414634146341464,-0.021484375,-0.3916015625,-0.01171875
843,2.479,IMU1,1.0365853658536586,98.10975609756099,1.829268292682927,-0.017578125,-0.3857421875,-0.0048828125
844,2.479,IMU2,1.0975609756097562,99.63414634146342,1.3414634146341464,-0.029296875,-0.392578125,0.0
845,2.489,IMU0,0.3658536585365854,99.20731707317074,1.3414634146341464,-0.0283203125,-0.388671875,-0.009765625
846,2.489,IMU1,1.0975609756097562,97.92682926829269,1.829268292682927,-0.025390625,-0.380859375,-0.001953125
847,2.489,IMU2,1.1585365853658538,99.39024390243904,1.402439024390244,-0.03515625,-0.390625,0.001953125
848,2.499,IMU0,0.3658536585365854,98.84146341463415,1.3414634146341464,-0.0244140625,-0.388671875,-0.01171875
849,2.499,IMU1,1.0975609756097562,97.5609756097561,1.8902439024390245,-0.0205078125,-0.3818359375,-0.00390625
850,2.499,IMU2,1.1585365853658538,99.02439024390245,1.402439024390244,-0.0322265625,-0.3916015625,0.0029296875
851,2.509,IMU0,0.30487804878048785,98.53658536585367,1.3414634146341464,-0.0283203125,-0.38671875,-0.0087890625
852,2.509,IMU1,1.0975609756097562,97.19512195121952,1.829268292682927,-0.0234375,-0.380859375,-0.001953125
853,2.509,IMU2,1.0975609756097562,98.71951219512196,1.402439024390244,-0.03515625,-0.388671875,0.0029296875
854,2.519,IMU0,0.24390243902439027,98.29268292682927,1.3414634146341464,-0.0302734375,-0.3818359375,-0.0087890625
855,2.519,IMU1,1.0975609756097562,96.95121951219512,1.8902439024390245,-0.0244140625,-0.376953125,-0.0029296875
856,2.519,IMU2,1.0365853658536586,98.47560975609757,1.3414634146341464,-0.0361328125,-0.3828125,0.0009765625
857,2.529,IMU0,0.30487804878048785,98.17073170731709,1.2804878048780488,-0.0263671875,-0.380859375,-0.015625
858,2.529,IMU1,1.0975609756097562,96.82926829268294,1.8902439024390245,-0.0205078125,-0.3759765625,-0.0126953125
859,2.529,IMU2,1.0975609756097562,98.35365853658537,1.2804878048780488,-0.0322265625,-0.3837890625,-0.005859375
860,2.539,IMU0,0.426829268292683,98.17073170731709,1.2195121951219514,-0.03125,-0.37890625,-0.015625
861,2.539,IMU1,1.1585365853658538,96.76829268292684,1.829268292682927,-0.0263671875,-0.3740234375,-0.0107421875
862,2.539,IMU2,1.1585365853658538,98.35365853658537,1.2195121951219514,-0.0380859375,-0.380859375,-0.00390625
863,2.549,IMU0,0.5487804878048781,98.10975609756099,1.1585365853658538,-0.021484375,-0.3798828125,-0.017578125
864,2.549,IMU1,1.3414634146341464,96.70731707317074,1.7682926829268295,-0.017578125,-0.3740234375,-0.009765625
865,2.549,IMU2,1.2195121951219514,98.23170731707317,1.0975609756097562,-0.029296875,-0.3828125,-0.0009765625
866,2.559,IMU0,0.6097560975609757,97.8048780487805,1.1585365853658538,-0.021484375,-0.3828125,-0.0224609375
867,2.559,IMU1,1.402439024390244,96.52439024390245,1.707317073170732,-0.017578125,-0.3759765625,-0.013671875
868,2.559,IMU2,1.402439024390244,97.98780487804879,1.0975609756097562,-0.0302734375,-0.384765625,-0.0048828125
869,2.569,IMU0,0.6097560975609757,97.6219512195122,1.2195121951219514,-0.015625,-0.380859375,-0.01171875
870,2.569,IMU1,1.4634146341463417,96.34146341463415,1.7682926829268295,-0.01171875,-0.3740234375,-0.0048828125
871,2.569,IMU2,1.4634146341463417,97.8048780487805,1.1585365853658538,-0.021484375,-0.3828125,0.001953125
872,2.579,IMU0,0.6707317073170732,97.37804878048782,1.2804878048780488,-0.0205078125,-0.376953125,-0.0224609375
873,2.579,IMU1,1.524390243902439,95.97560975609757,1.7682926829268295,-0.015625,-0.3701171875,-0.015625
874,2.579,IMU2,1.4634146341463417,97.50000000000001,1.2195121951219514,-0.0263671875,-0.3798828125,-0.0078125
875,2.589,IMU0,0.6097560975609757,97.01219512195122,1.3414634146341464,-0.0107421875,-0.3740234375,-0.0126953125
876,2.589,IMU1,1.4634146341463417,95.73170731707317,1.829268292682927,-0.0087890625,-0.3662109375,-0.0068359375
877,2.589,IMU2,1.402439024390244,97.25609756097562,1.2804878048780488,-0.01953125,-0.376953125,0.0009765625
878,2.599,IMU0,0.6707317073170732,96.64634146341464,1.4634146341463417,-0.013671875,-0.375,-0.0205078125
879,2.599,IMU1,1.524390243902439,95.3658536585366,1.9512195121951221,-0.0107421875,-0.3671875,-0.0126953125
880,2.599,IMU2,1.4634146341463417,96.76829268292684,1.402439024390244,-0.0224609375,-0.3779296875,-0.0068359375
881,2.609,IMU0,0.7317073170731708,96.21951219512196,1.524390243902439,-0.0146484375,-0.3701171875,-0.0244140625
882,2.609,IMU1,1.5853658536585367,94.93902439024392,2.0121951219512195,-0.0107421875,-0.36328125,-0.017578125
883,2.609,IMU2,1.524390243902439,96.40243902439025,1.5853658536585367,-0.021484375,-0.373046875,-0.009765625
884,2.619,IMU0,0.7926829268292683,95.85365853658537,1.707317073170732,-0.015625,-0.369140625,-0.017578125
885,2.619,IMU1,1.707317073170732,94.51219512195122,2.1951219512195124,-0.01171875,-0.3623046875,-0.0087890625
886,2.619,IMU2,1.6463414634146343,96.03658536585367,1.707317073170732,-0.0224609375,-0.37109375,-0.005859375
887,2.629,IMU0,0.9146341463414634,95.54878048780489,1.829268292682927,-0.021484375,-0.3681640625,-0.02734375
888,2.629,IMU1,1.7682926829268295,94.14634146341464,2.378048780487805,-0.017578125,-0.3603515625,-0.0205078125
889,2.629,IMU2,1.707317073170732,95.67073170731709,1.8902439024390245,-0.0283203125,-0.369140625,-0.015625
890,2.639,IMU0,1.0365853658536586,95.2439024390244,1.9512195121951221,-0.017578125,-0.3642578125,-0.015625
891,2.639,IMU1,1.8902439024390245,93.90243902439025,2.5,-0.0146484375,-0.359375,-0.0078125
892,2.639,IMU2,1.829268292682927,95.48780487804879,1.9512195121951221,-0.025390625,-0.3671875,-0.00390625
893,2.649,IMU0,1.0365853658536586,95.00000000000001,1.9512195121951221,-0.029296875,-0.365234375,-0.0234375
894,2.649,IMU1,1.9512195121951221,93.59756097560977,2.439024390243903,-0.0263671875,-0.3623046875,-0.0166015625
895,2.649,IMU2,1.9512195121951221,95.2439024390244,1.8902439024390245,-0.0380859375,-0.3701171875,-0.0107421875
896,2.659,IMU0,1.0975609756097562,94.93902439024392,1.9512195121951221,-0.021484375,-0.3603515625,-0.013671875
897,2.659,IMU1,1.9512195121951221,93.53658536585367,2.439024390243903,-0.017578125,-0.3544921875,-0.0078125
898,2.659,IMU2,1.8902439024390245,95.0609756097561,2.0121951219512195,-0.0283203125,-0.3642578125,0.0
899,2.669,IMU0,1.0365853658536586,94.81707317073172,2.073170731707317,-0.0244140625,-0.357421875,-0.015625
900,2.669,IMU1,2.0121951219512195,93.41463414634147,2.5609756097560976,-0.0205078125,-0.3515625,-0.0087890625
901,2.669,IMU2,1.829268292682927,94.93902439024392,2.073170731707317,-0.0322265625,-0.3623046875,-0.0009765625
902,2.679,IMU0,1.0365853658536586,94.87804878048782,2.073170731707317,-0.025390625,-0.359375,-0.013671875
903,2.679,IMU1,1.8902439024390245,93.59756097560977,2.6219512195121952,-0.0205078125,-0.353515625,-0.0048828125
904,2.679,IMU2,1.829268292682927,95.00000000000001,2.073170731707317,-0.0322265625,-0.36328125,0.0
905,2.689,IMU0,0.9756097560975611,94.87804878048782,2.1341463414634148,-0.02734375,-0.3583984375,-0.0107421875
906,2.689,IMU1,1.829268292682927,93.53658536585367,2.6219512195121952,-0.0234375,-0.353515625,-0.0029296875
907,2.689,IMU2,1.829268292682927,95.00000000000001,2.1341463414634148,-0.03515625,-0.36328125,0.0029296875
908,2.699,IMU0,1.0365853658536586,94.81707317073172,2.1341463414634148,-0.033203125,-0.359375,-0.017578125
909,2.699,IMU1,1.8902439024390245,93.47560975609757,2.5609756097560976,-0.0302734375,-0.3525390625,-0.0087890625
910,2.699,IMU2,1.829268292682927,94.87804878048782,2.1341463414634148,-0.0419921875,-0.3642578125,-0.00390625
911,2.709,IMU0,0.9756097560975611,94.69512195121952,2.073170731707317,-0.03515625,-0.35546875,-0.00390625
912,2.709,IMU1,1.7682926829268295,93.35365853658537,2.5609756097560976,-0.0302734375,-0.3505859375,0.00390625
913,2.709,IMU2,1.829268292682927,94.81707317073172,2.073170731707317,-0.0419921875,-0.359375,0.0078125
914,2.719,IMU0,0.853658536585366,94.45121951219512,1.8902439024390245,-0.0400390625,-0.3544921875,-0.01171875
915,2.719,IMU1,1.707317073170732,93.17073170731707,2.439024390243903,-0.03515625,-0.34765625,-0.005859375
916,2.719,IMU2,1.707317073170732,94.57317073170732,1.9512195121951221,-0.0478515625,-0.3564453125,0.0009765625
917,2.729,IMU0,0.7926829268292683,94.08536585365854,1.8902439024390245,-0.033203125,-0.3525390625,-0.0068359375
918,2.729,IMU1,1.707317073170732,92.8048780487805,2.378048780487805,-0.029296875,-0.3466796875,0.0009765625
919,2.729,IMU2,1.5853658536585367,94.26829268292684,1.829268292682927,-0.041015625,-0.35546875,0.0078125
920,2.739,IMU0,0.7926829268292683,93.78048780487806,1.7682926829268295,-0.0439453125,-0.3515625,-0.001953125
921,2.739,IMU1,1.6463414634146343,92.50000000000001,2.25609756097561,-0.0400390625,-0.3466796875,0.0029296875
922,2.739,IMU2,1.524390243902439,93.96341463414635,1.707317073170732,-0.052734375,-0.35546875,0.009765625
923,2.749,IMU0,0.6707317073170732,93.59756097560977,1.6463414634146343,-0.041015625,-0.349609375,-0.0068359375
924,2.749,IMU1,1.5853658536585367,92.31707317073172,2.073170731707317,-0.0361328125,-0.3447265625,-0.0009765625
925,2.749,IMU2,1.402439024390244,93.78048780487806,1.5853658536585367,-0.046875,-0.3525390625,0.0048828125
926,2.759,IMU0,0.6097560975609757,93.41463414634147,1.4634146341463417,-0.0400390625,-0.3466796875,-0.001953125
927,2.759,IMU1,1.4634146341463417,92.07317073170732,1.9512195121951221,-0.0361328125,-0.33984375,0.0029296875
928,2.759,IMU2,1.3414634146341464,93.53658536585367,1.4634146341463417,-0.048828125,-0.349609375,0.0107421875
929,2.769,IMU0,0.5487804878048781,93.23170731707317,1.3414634146341464,-0.0380859375,-0.3427734375,-0.0078125
930,2.769,IMU1,1.3414634146341464,91.95121951219512,1.829268292682927,-0.0341796875,-0.3369140625,-0.0048828125
931,2.769,IMU2,1.2804878048780488,93.29268292682927,1.2804878048780488,-0.044921875,-0.3466796875,0.0048828125
932,2.779,IMU0,0.426829268292683,93.10975609756099,1.2195121951219514,-0.0390625,-0.341796875,-0.0009765625
933,2.779,IMU1,1.2195121951219514,91.82926829268294,1.707317073170732,-0.0361328125,-0.3359375,0.00390625
934,2.779,IMU2,1.1585365853658538,93.23170731707317,1.1585365853658538,-0.0478515625,-0.345703125,0.01171875
935,2.789,IMU0,0.30487804878048785,92.98780487804879,1.0975609756097562,-0.0341796875,-0.3427734375,-0.0107421875
936,2.789,IMU1,1.1585365853658538,91.70731707317074,1.5853658536585367,-0.03125,-0.3349609375,-0.005859375
937,2.789,IMU2,1.0365853658536586,93.10975609756099,1.0365853658536586,-0.04296875,-0.3447265625,0.001953125
938,2.799,IMU0,0.1829268292682927,92.7439024390244,0.9756097560975611,-0.0419921875,-0.33984375,-0.009765625
939,2.799,IMU1,1.0975609756097562,91.46341463414635,1.524390243902439,-0.0390625,-0.3330078125,-0.00390625
940,2.799,IMU2,0.9756097560975611,92.92682926829269,0.9756097560975611,-0.048828125,-0.3427734375,0.005859375
941,2.809,IMU0,0.1829268292682927,92.37804878048782,0.9146341463414634,-0.0390625,-0.33984375,-0.009765625
942,2.809,IMU1,1.0365853658536586,91.15853658536587,1.402439024390244,-0.0361328125,-0.3330078125,-0.00390625
943,2.809,IMU2,0.9146341463414634,92.5609756097561,0.853658536585366,-0.044921875,-0.341796875,0.0048828125
944,2.819,IMU0,0.1829268292682927,92.13414634146342,0.853658536585366,-0.0390625,-0.337890625,-0.0078125
945,2.819,IMU1,1.0365853658536586,90.73170731707317,1.3414634146341464,-0.037109375,-0.3310546875,-0.00390625
946,2.819,IMU2,0.853658536585366,92.25609756097562,0.7926829268292683,-0.046875,-0.33984375,0.0009765625
947,2.829,IMU0,0.1829268292682927,91.95121951219512,0.7317073170731708,-0.0400390625,-0.3349609375,-0.0107421875
948,2.829,IMU1,0.9756097560975611,90.60975609756099,1.2195121951219514,-0.0361328125,-0.328125,-0.001953125
949,2.829,IMU2,0.853658536585366,92.13414634146342,0.6707317073170732,-0.0478515625,-0.337890625,0.001953125
950,2.839,IMU0,0.06097560975609757,91.58536585365854,0.48780487804878053,-0.044921875,-0.333984375,-0.0087890625
951,2.839,IMU1,0.9756097560975611,90.2439024390244,0.9756097560975611,-0.0390625,-0.3271484375,-0.001953125
952,2.839,IMU2,0.853658536585366,91.76829268292684,0.426829268292683,-0.0517578125,-0.3369140625,0.0068359375
953,2.849,IMU0,0.0,91.40243902439025,0.3658536585365854,-0.03515625,-0.3310546875,-0.005859375
954,2.849,IMU1,0.9146341463414634,90.0609756097561,0.7926829268292683,-0.0302734375,-0.3251953125,0.0009765625
955,2.849,IMU2,0.7926829268292683,91.64634146341464,0.30487804878048785,-0.0419921875,-0.333984375,0.0068359375
956,2.859,IMU0,0.0,91.21951219512196,0.24390243902439027,-0.037109375,-0.3310546875,-0.0087890625
957,2.859,IMU1,0.9146341463414634,89.93902439024392,0.6707317073170732,-0.033203125,-0.3251953125,-0.00390625
958,2.859,IMU2,0.7926829268292683,91.46341463414635,0.1829268292682927,-0.0439453125,-0.3349609375,0.0009765625
959,2.869,IMU0,-0.06097560975609757,91.28048780487806,0.12195121951219513,-0.0390625,-0.3291015625,-0.00390625
960,2.869,IMU1,0.7926829268292683,90.00000000000001,0.5487804878048781,-0.03515625,-0.322265625,0.0009765625
961,2.869,IMU2,0.6707317073170732,91.40243902439025,0.12195121951219513,-0.0439453125,-0.330078125,0.0087890625
962,2.879,IMU0,-0.1829268292682927,91.28048780487806,-0.06097560975609757,-0.0380859375,-0.32421875,-0.0126953125
963,2.879,IMU1,0.7926829268292683,89.93902439024392,0.3658536585365854,-0.033203125,-0.3173828125,-0.0048828125
964,2.879,IMU2,0.6097560975609757,91.40243902439025,-0.06097560975609757,-0.0458984375,-0.3271484375,0.001953125
965,2.889,IMU0,-0.12195121951219513,91.21951219512196,-0.24390243902439027,-0.0361328125,-0.3232421875,-0.009765625
966,2.889,IMU1,0.7317073170731708,89.87804878048782,0.1829268292682927,-0.0322265625,-0.3173828125,-0.001953125
967,2.889,IMU2,0.6097560975609757,91.34146341463415,-0.30487804878048785,-0.041015625,-0.326171875,0.0009765625
968,2.899,IMU0,-0.06097560975609757,91.03658536585367,-0.30487804878048785,-0.0302734375,-0.32421875,-0.009765625
969,2.899,IMU1,0.7926829268292683,89.69512195121952,0.12195121951219513,-0.02734375,-0.318359375,-0.00390625
970,2.899,IMU2,0.6097560975609757,91.21951219512196,-0.426829268292683,-0.037109375,-0.3271484375,0.0009765625
971,2.909,IMU0,0.0,90.79268292682927,-0.3658536585365854,-0.03125,-0.32421875,-0.0146484375
972,2.909,IMU1,0.853658536585366,89.39024390243904,0.12195121951219513,-0.02734375,-0.318359375,-0.009765625
973,2.909,IMU2,0.6707317073170732,90.91463414634147,-0.426829268292683,-0.0380859375,-0.3291015625,-0.0009765625
974,2.919,IMU0,0.0,90.48780487804879,-0.3658536585365854,-0.0263671875,-0.3212890625,-0.00390625
975,2.919,IMU1,0.9146341463414634,89.08536585365854,0.12195121951219513,-0.0234375,-0.3154296875,0.0029296875
976,2.919,IMU2,0.6707317073170732,90.67073170731707,-0.426829268292683,-0.0341796875,-0.3251953125,0.0107421875
977,2.929,IMU0,-0.06097560975609757,90.2439024390244,-0.3658536585365854,-0.033203125,-0.3212890625,-0.013671875
978,2.929,IMU1,0.7926829268292683,88.90243902439025,0.12195121951219513,-0.029296875,-0.3134765625,-0.0068359375
979,2.929,IMU2,0.6707317073170732,90.48780487804879,-0.426829268292683,-0.041015625,-0.32421875,0.001953125
980,2.939,IMU0,-0.12195121951219513,90.1219512195122,-0.426829268292683,-0.0283203125,-0.3193359375,-0.01171875
981,2.939,IMU1,0.853658536585366,88.78048780487805,0.06097560975609757,-0.025390625,-0.3115234375,-0.005859375
982,2.939,IMU2,0.6097560975609757,90.3048780487805,-0.48780487804878053,-0.03515625,-0.3212890625,0.00390625
983,2.949,IMU0,-0.1829268292682927,89.93902439024392,-0.48780487804878053,-0.0302734375,-0.3154296875,-0.009765625
984,2.949,IMU1,0.7926829268292683,88.71951219512196,-0.06097560975609757,-0.02734375,-0.3095703125,-0.00390625
985,2.949,IMU2,0.6097560975609757,90.1219512195122,-0.5487804878048781,-0.0361328125,-0.318359375,0.0029296875
986,2.959,IMU0,-0.12195121951219513,89.87804878048782,-0.5487804878048781,-0.029296875,-0.3125,-0.0126953125
987,2.959,IMU1,0.7317073170731708,88.59756097560977,-0.06097560975609757,-0.025390625,-0.3056640625,-0.0048828125
988,2.959,IMU2,0.6097560975609757,90.00000000000001,-0.6097560975609757,-0.037109375,-0.3154296875,-0.0009765625
989,2.969,IMU0,-0.24390243902439027,89.87804878048782,-0.6097560975609757,-0.0302734375,-0.3125,-0.0087890625
990,2.969,IMU1,0.6707317073170732,88.59756097560977,-0.1829268292682927,-0.0263671875,-0.3056640625,-0.001953125
991,2.969,IMU2,0.5487804878048781,90.0609756097561,-0.6097560975609757,-0.0380859375,-0.3134765625,0.005859375
992,2.979,IMU0,-0.24390243902439027,89.87804878048782,-0.7317073170731708,-0.02734375,-0.3134765625,-0.015625
993,2.979,IMU1,0.6707317073170732,88.59756097560977,-0.24390243902439027,-0.0244140625,-0.306640625,-0.005859375
994,2.979,IMU2,0.48780487804878053,90.0609756097561,-0.7317073170731708,-0.03515625,-0.314453125,-0.0029296875
995,2.989,IMU0,-0.30487804878048785,89.87804878048782,-0.7926829268292683,-0.0244140625,-0.3125,-0.0078125
996,2.989,IMU1,0.6097560975609757,88.59756097560977,-0.30487804878048785,-0.0224609375,-0.306640625,0.0
997,2.989,IMU2,0.48780487804878053,90.1219512195122,-0.853658536585366,-0.0322265625,-0.314453125,0.0009765625
998,2.999,IMU0,-0.30487804878048785,89.81707317073172,-0.7926829268292683,-0.01953125,-0.30859375,-0.0166015625
999,2.999,IMU1,0.6097560975609757,88.41463414634147,-0.30487804878048785,-0.015625,-0.302734375,-0.0078125
1000,2.999,IMU2,0.48780487804878053,90.00000000000001,-0.7926829268292683,-0.0283203125,-0.310546875,0.0
1001,3.009,IMU0,-0.24390243902439027,89.69512195121952,-0.6707317073170732,-0.0234375,-0.3056640625,-0.0146484375
1002,3.009,IMU1,0.6707317073170732,88.29268292682927,-0.24390243902439027,-0.017578125,-0.298828125,-0.0087890625
1003,3.009,IMU2,0.48780487804878053,89.87804878048782,-0.7317073170731708,-0.0302734375,-0.3076171875,-0.0029296875
1004,3.019,IMU0,-0.1829268292682927,89.45121951219512,-0.6707317073170732,-0.0166015625,-0.3037109375,-0.013671875
1005,3.019,IMU1,0.6707317073170732,88.10975609756099,-0.12195121951219513,-0.013671875,-0.2978515625,-0.0087890625
1006,3.019,IMU2,0.6097560975609757,89.63414634146342,-0.7317073170731708,-0.0244140625,-0.3076171875,-0.0009765625
1007,3.029,IMU0,-0.1829268292682927,89.32926829268294,-0.6097560975609757,-0.0205078125,-0.3046875,-0.015625
1008,3.029,IMU1,0.7926829268292683,87.98780487804879,0.0,-0.0185546875,-0.2978515625,-0.0078125
1009,3.029,IMU2,0.6707317073170732,89.51219512195122,-0.6097560975609757,-0.0283203125,-0.306640625,-0.0009765625
1010,3.039,IMU0,-0.06097560975609757,89.20731707317074,-0.48780487804878053,-0.01953125,-0.3046875,-0.009765625
1011,3.039,IMU1,0.853658536585366,87.8658536585366,0.06097560975609757,-0.0166015625,-0.298828125,-0.0048828125
1012,3.039,IMU2,0.7317073170731708,89.39024390243904,-0.5487804878048781,-0.02734375,-0.3056640625,0.001953125
1013,3.049,IMU0,-0.06097560975609757,89.08536585365854,-0.48780487804878053,-0.0205078125,-0.3017578125,-0.0107421875
1014,3.049,IMU1,0.7926829268292683,87.7439024390244,0.06097560975609757,-0.0185546875,-0.294921875,-0.0048828125
1015,3.049,IMU2,0.6707317073170732,89.20731707317074,-0.48780487804878053,-0.0283203125,-0.3037109375,0.005859375
1016,3.059,IMU0,-0.12195121951219513,89.02439024390245,-0.426829268292683,-0.0185546875,-0.2998046875,-0.01171875
1017,3.059,IMU1,0.7317073170731708,87.6219512195122,0.12195121951219513,-0.0146484375,-0.2919921875,-0.0048828125
1018,3.059,IMU2,0.6097560975609757,89.20731707317074,-0.426829268292683,-0.025390625,-0.302734375,0.0048828125
1019,3.069,IMU0,-0.1829268292682927,88.96341463414635,-0.3658536585365854,-0.0205078125,-0.2998046875,-0.01171875
1020,3.069,IMU1,0.7926829268292683,87.5609756097561,0.1829268292682927,-0.017578125,-0.29296875,-0.00390625
1021,3.069,IMU2,0.5487804878048781,89.14634146341464,-0.426829268292683,-0.02734375,-0.3017578125,0.001953125
1022,3.079,IMU0,-0.24390243902439027,88.90243902439025,-0.426829268292683,-0.021484375,-0.294921875,-0.009765625
1023,3.079,IMU1,0.6707317073170732,87.50000000000001,0.12195121951219513,-0.017578125,-0.2890625,-0.0029296875
1024,3.079,IMU2,0.48780487804878053,89.02439024390245,-0.426829268292683,-0.0283203125,-0.2978515625,0.00390625
1025,3.089,IMU0,-0.3658536585365854,88.84146341463415,-0.426829268292683,-0.0166015625,-0.2939453125,-0.0146484375
1026,3.089,IMU1,0.6097560975609757,87.50000000000001,0.1829268292682927,-0.0126953125,-0.287109375,-0.0078125
1027,3.089,IMU2,0.426829268292683,88.96341463414635,-0.426829268292683,-0.0224609375,-0.2958984375,-0.0009765625
1028,3.099,IMU0,-0.3658536585365854,88.53658536585367,-0.24390243902439027,-0.0166015625,-0.2919921875,-0.01171875
1029,3.099,IMU1,0.6097560975609757,87.25609756097562,0.24390243902439027,-0.0146484375,-0.28515625,-0.0068359375
1030,3.099,IMU2,0.426829268292683,88.71951219512196,-0.30487804878048785,-0.0234375,-0.294921875,0.001953125
1031,3.109,IMU0,-0.3658536585365854,88.29268292682927,-0.12195121951219513,-0.0126953125,-0.2919921875,-0.017578125
1032,3.109,IMU1,0.5487804878048781,87.01219512195122,0.3658536585365854,-0.0107421875,-0.28515625,-0.0126953125
1033,3.109,IMU2,0.426829268292683,88.47560975609757,-0.24390243902439027,-0.01953125,-0.2958984375,-0.005859375
1034,3.119,IMU0,-0.3658536585365854,88.17073170731707,0.0,-0.0166015625,-0.294921875,-0.0126953125
1035,3.119,IMU1,0.5487804878048781,86.76829268292684,0.48780487804878053,-0.013671875,-0.2880859375,-0.0068359375
1036,3.119,IMU2,0.426829268292683,88.29268292682927,-0.06097560975609757,-0.0234375,-0.2978515625,0.0009765625
1037,3.129,IMU0,-0.426829268292683,88.04878048780489,0.1829268292682927,-0.013671875,-0.2919921875,-0.0146484375
1038,3.129,IMU1,0.6097560975609757,86.70731707317074,0.6707317073170732,-0.009765625,-0.2841796875,-0.009765625
1039,3.129,IMU2,0.3658536585365854,88.23170731707317,0.12195121951219513,-0.01953125,-0.29296875,-0.0029296875
1040,3.139,IMU0,-0.426829268292683,88.10975609756099,0.24390243902439027,-0.0234375,-0.287109375,-0.01171875
1041,3.139,IMU1,0.48780487804878053,86.76829268292684,0.6707317073170732,-0.01953125,-0.28125,-0.0048828125
1042,3.139,IMU2,0.3658536585365854,88.29268292682927,0.1829268292682927,-0.029296875,-0.2900390625,0.0009765625
1043,3.149,IMU0,-0.426829268292683,88.10975609756099,0.30487804878048785,-0.015625,-0.28515625,-0.013671875
1044,3.149,IMU1,0.5487804878048781,86.82926829268294,0.7317073170731708,-0.0126953125,-0.2783203125,-0.0078125
1045,3.149,IMU2,0.3658536585365854,88.29268292682927,0.24390243902439027,-0.0224609375,-0.287109375,-0.0029296875
1046,3.159,IMU0,-0.3658536585365854,88.04878048780489,0.30487804878048785,-0.0224609375,-0.28515625,-0.013671875
1047,3.159,IMU1,0.6097560975609757,86.70731707317074,0.7317073170731708,-0.0205078125,-0.27734375,-0.0078125
1048,3.159,IMU2,0.30487804878048785,88.23170731707317,0.24390243902439027,-0.029296875,-0.287109375,0.0
1049,3.169,IMU0,-0.3658536585365854,87.92682926829269,0.30487804878048785,-0.0166015625,-0.283203125,-0.0146484375
1050,3.169,IMU1,0.5487804878048781,86.58536585365854,0.7317073170731708,-0.013671875,-0.2763671875,-0.0078125
1051,3.169,IMU2,0.3658536585365854,88.10975609756099,0.1829268292682927,-0.0234375,-0.28515625,-0.0009765625
1052,3.179,IMU0,-0.426829268292683,87.7439024390244,0.30487804878048785,-0.0166015625,-0.279296875,-0.0126953125
1053,3.179,IMU1,0.5487804878048781,86.40243902439025,0.7926829268292683,-0.0146484375,-0.2724609375,-0.0078125
1054,3.179,IMU2,0.3658536585365854,87.92682926829269,0.24390243902439027,-0.0234375,-0.28125,0.0
1055,3.189,IMU0,-0.426829268292683,87.43902439024392,0.426829268292683,-0.015625,-0.28125,-0.0107421875
1056,3.189,IMU1,0.5487804878048781,86.15853658536587,0.7926829268292683,-0.013671875,-0.2734375,-0.0048828125
1057,3.189,IMU2,0.3658536585365854,87.6219512195122,0.30487804878048785,-0.0234375,-0.2822265625,0.0029296875
1058,3.199,IMU0,-0.48780487804878053,87.25609756097562,0.426829268292683,-0.015625,-0.28125,-0.0126953125
1059,3.199,IMU1,0.48780487804878053,85.97560975609757,0.853658536585366,-0.013671875,-0.2744140625,-0.0078125
1060,3.199,IMU2,0.3658536585365854,87.50000000000001,0.30487804878048785,-0.0224609375,-0.2822265625,0.001953125
1061,3.209,IMU0,-0.426829268292683,86.95121951219512,0.426829268292683,-0.0166015625,-0.28125,-0.0087890625
1062,3.209,IMU1,0.48780487804878053,85.48780487804879,0.9756097560975611,-0.0146484375,-0.275390625,-0.0029296875
1063,3.209,IMU2,0.30487804878048785,87.07317073170732,0.3658536585365854,-0.0244140625,-0.283203125,0.005859375
1064,3.219,IMU0,-0.48780487804878053,86.52439024390245,0.48780487804878053,-0.017578125,-0.279296875,-0.0146484375
1065,3.219,IMU1,0.5487804878048781,85.0609756097561,1.0365853658536586,-0.013671875,-0.2724609375,-0.0087890625
1066,3.219,IMU2,0.3658536585365854,86.64634146341464,0.48780487804878053,-0.0234375,-0.28125,0.0
1067,3.229,IMU0,-0.426829268292683,86.03658536585367,0.5487804878048781,-0.0185546875,-0.2763671875,-0.013671875
1068,3.229,IMU1,0.426829268292683,84.57317073170732,1.0365853658536586,-0.015625,-0.26953125,-0.0068359375
1069,3.229,IMU2,0.3658536585365854,86.09756097560977,0.48780487804878053,-0.0263671875,-0.2783203125,0.0029296875
1070,3.239,IMU0,-0.48780487804878053,85.60975609756099,0.6097560975609757,-0.017578125,-0.2734375,-0.009765625
1071,3.239,IMU1,0.3658536585365854,84.20731707317074,1.0365853658536586,-0.0146484375,-0.265625,-0.00390625
1072,3.239,IMU2,0.24390243902439027,85.73170731707317,0.5487804878048781,-0.0263671875,-0.275390625,0.00390625
1073,3.249,IMU0,-0.6097560975609757,85.3658536585366,0.6097560975609757,-0.01953125,-0.2734375,-0.01171875
1074,3.249,IMU1,0.3658536585365854,83.96341463414635,1.0975609756097562,-0.0185546875,-0.2666015625,-0.00390625
1075,3.249,IMU2,0.1829268292682927,85.54878048780489,0.5487804878048781,-0.0283203125,-0.275390625,0.00390625
1076,3.259,IMU0,-0.6707317073170732,85.2439024390244,0.6097560975609757,-0.021484375,-0.2734375,-0.009765625
1077,3.259,IMU1,0.30487804878048785,83.90243902439025,1.0365853658536586,-0.0185546875,-0.265625,-0.00390625
1078,3.259,IMU2,0.1829268292682927,85.42682926829269,0.5487804878048781,-0.029296875,-0.2744140625,0.0048828125
1079,3.269,IMU0,-0.7317073170731708,85.1829268292683,0.5487804878048781,-0.025390625,-0.271484375,-0.0126953125
1080,3.269,IMU1,0.24390243902439027,83.84146341463415,0.9756097560975611,-0.0205078125,-0.263671875,-0.0068359375
1081,3.269,IMU2,0.12195121951219513,85.42682926829269,0.48780487804878053,-0.033203125,-0.2724609375,0.0029296875
1082,3.279,IMU0,-0.7317073170731708,85.2439024390244,0.48780487804878053,-0.025390625,-0.2685546875,-0.0068359375
1083,3.279,IMU1,0.24390243902439027,83.84146341463415,0.9756097560975611,-0.0205078125,-0.2607421875,-0.0009765625
1084,3.279,IMU2,0.06097560975609757,85.42682926829269,0.48780487804878053,-0.0322265625,-0.26953125,0.0048828125
1085,3.289,IMU0,-0.7926829268292683,85.2439024390244,0.5487804878048781,-0.025390625,-0.265625,-0.01171875
1086,3.289,IMU1,0.1829268292682927,83.78048780487805,0.9756097560975611,-0.0224609375,-0.2587890625,-0.0078125
1087,3.289,IMU2,0.0,85.42682926829269,0.426829268292683,-0.033203125,-0.267578125,-0.0009765625
1088,3.299,IMU0,-0.853658536585366,85.3048780487805,0.426829268292683,-0.029296875,-0.2666015625,-0.005859375
1089,3.299,IMU1,0.12195121951219513,83.90243902439025,0.853658536585366,-0.0263671875,-0.2587890625,0.0
1090,3.299,IMU2,-0.06097560975609757,85.42682926829269,0.3658536585365854,-0.037109375,-0.267578125,0.005859375
1091,3.309,IMU0,-0.9146341463414634,85.3658536585366,0.3658536585365854,-0.0283203125,-0.263671875,-0.0126953125
1092,3.309,IMU1,0.06097560975609757,84.02439024390245,0.7926829268292683,-0.025390625,-0.2568359375,-0.005859375
1093,3.309,IMU2,-0.12195121951219513,85.48780487804879,0.30487804878048785,-0.03515625,-0.265625,0.001953125
1094,3.319,IMU0,-1.0365853658536586,85.1829268292683,0.24390243902439027,-0.033203125,-0.263671875,-0.009765625
