,ts,id,Gx,Gy,Gz,Ax,Ay,Az
0,-0.324,IMU0,-0.5487804878048781,0.24390243902439027,-0.30487804878048785,-0.9443359375,0.072265625,0.2861328125
1,-0.324,IMU1,2.073170731707317,-0.9756097560975611,-0.12195121951219513,-0.9423828125,0.0712890625,0.2939453125
2,-0.324,IMU2,0.6707317073170732,0.5487804878048781,-0.6097560975609757,-0.95703125,0.0693359375,0.2822265625
3,-0.314,IMU0,-0.426829268292683,0.12195121951219513,-0.06097560975609757,-0.9453125,0.0712890625,0.2841796875
4,-0.314,IMU1,2.1951219512195124,-1.1585365853658538,0.12195121951219513,-0.9423828125,0.0693359375,0.2919921875
5,-0.314,IMU2,0.7317073170731708,0.426829268292683,-0.3658536585365854,-0.9580078125,0.068359375,0.279296875
6,-0.304,IMU0,-0.48780487804878053,0.1829268292682927,-0.1829268292682927,-0.9462890625,0.0693359375,0.287109375
7,-0.304,IMU1,2.1951219512195124,-1.0365853658536586,0.06097560975609757,-0.943359375,0.06640625,0.2958984375
8,-0.304,IMU2,0.7317073170731708,0.48780487804878053,-0.48780487804878053,-0.9599609375,0.06640625,0.283203125
9,-0.294,IMU0,-0.5487804878048781,0.1829268292682927,-0.24390243902439027,-0.9443359375,0.0703125,0.2841796875
10,-0.294,IMU1,2.1341463414634148,-1.0365853658536586,-0.06097560975609757,-0.9423828125,0.068359375,0.2939453125
11,-0.294,IMU2,0.5487804878048781,0.3658536585365854,-0.6707317073170732,-0.95703125,0.068359375,0.2802734375
12,-0.284,IMU0,-0.5487804878048781,0.12195121951219513,-0.12195121951219513,-0.9462890625,0.0751953125,0.283203125
13,-0.284,IMU1,2.073170731707317,-1.1585365853658538,0.06097560975609757,-0.9423828125,0.0703125,0.29296875
14,-0.284,IMU2,0.6707317073170732,0.3658536585365854,-0.48780487804878053,-0.9580078125,0.0712890625,0.2783203125
15,-0.274,IMU0,-0.48780487804878053,0.1829268292682927,-0.1829268292682927,-0.9453125,0.072265625,0.28515625
16,-0.274,IMU1,2.073170731707317,-1.0975609756097562,0.0,-0.943359375,0.0703125,0.29296875
17,-0.274,IMU2,0.6097560975609757,0.426829268292683,-0.5487804878048781,-0.958984375,0.0693359375,0.283203125
18,-0.264,IMU0,-0.5487804878048781,0.24390243902439027,-0.12195121951219513,-0.9462890625,0.0693359375,0.2861328125
19,-0.264,IMU1,2.0121951219512195,-1.0365853658536586,0.0,-0.943359375,0.0673828125,0.2958984375
20,-0.264,IMU2,0.5487804878048781,0.5487804878048781,-0.426829268292683,-0.958984375,0.0654296875,0.2841796875
21,-0.254,IMU0,-0.5487804878048781,0.30487804878048785,-0.06097560975609757,-0.9482421875,0.07421875,0.283203125
22,-0.254,IMU1,2.1341463414634148,-0.9756097560975611,0.12195121951219513,-0.9462890625,0.0703125,0.29296875
23,-0.254,IMU2,0.7317073170731708,0.6097560975609757,-0.3658536585365854,-0.9619140625,0.0703125,0.28125
24,-0.244,IMU0,-0.6707317073170732,0.5487804878048781,-0.3658536585365854,-0.947265625,0.0703125,0.2841796875
25,-0.244,IMU1,2.073170731707317,-0.7317073170731708,-0.1829268292682927,-0.9462890625,0.068359375,0.29296875
26,-0.244,IMU2,0.48780487804878053,0.9146341463414634,-0.6707317073170732,-0.9619140625,0.064453125,0.2861328125
27,-0.234,IMU0,-0.1829268292682927,-0.1829268292682927,-0.426829268292683,-0.9384765625,0.06640625,0.2802734375
28,-0.234,IMU1,2.439024390243903,-1.402439024390244,-0.3658536585365854,-0.9375,0.064453125,0.2890625
29,-0.234,IMU2,1.0365853658536586,0.12195121951219513,-0.7926829268292683,-0.953125,0.0595703125,0.275390625
30,-0.224,IMU0,-1.0975609756097562,-0.6097560975609757,-0.9756097560975611,-0.9501953125,0.05859375,0.2861328125
31,-0.224,IMU1,1.524390243902439,-1.829268292682927,-0.853658536585366,-0.9521484375,0.0546875,0.2890625
32,-0.224,IMU2,0.24390243902439027,-0.30487804878048785,-1.3414634146341464,-0.9580078125,0.0556640625,0.2685546875
33,-0.214,IMU0,-1.1585365853658538,-0.48780487804878053,-1.4634146341463417,-0.9794921875,0.078125,0.2978515625
34,-0.214,IMU1,1.2804878048780488,-1.5853658536585367,-1.2804878048780488,-0.982421875,0.0732421875,0.3017578125
35,-0.214,IMU2,0.12195121951219513,-0.3658536585365854,-1.9512195121951221,-0.990234375,0.0751953125,0.2861328125
36,-0.204,IMU0,-0.7926829268292683,-0.7926829268292683,-1.402439024390244,-0.9501953125,0.0830078125,0.27734375
37,-0.204,IMU1,1.707317073170732,-2.1341463414634148,-1.1585365853658538,-0.951171875,0.072265625,0.2783203125
38,-0.204,IMU2,0.5487804878048781,-0.426829268292683,-1.829268292682927,-0.9658203125,0.087890625,0.2607421875
39,-0.194,IMU0,-0.48780487804878053,-0.7926829268292683,-1.2804878048780488,-0.935546875,0.0810546875,0.279296875
40,-0.194,IMU1,2.6219512195121952,-1.4634146341463417,-1.0365853658536586,-0.9326171875,0.0908203125,0.2861328125
41,-0.194,IMU2,1.0365853658536586,-0.1829268292682927,-1.6463414634146343,-0.951171875,0.060546875,0.2705078125
42,-0.184,IMU0,0.1829268292682927,0.3658536585365854,-1.1585365853658538,-0.958984375,0.0791015625,0.3037109375
43,-0.184,IMU1,2.7439024390243905,-0.853658536585366,-0.9756097560975611,-0.9560546875,0.07421875,0.3134765625
44,-0.184,IMU2,1.402439024390244,0.7926829268292683,-1.524390243902439,-0.98046875,0.0732421875,0.3046875
45,-0.174,IMU0,-1.3414634146341464,-0.3658536585365854,-4.024390243902439,-0.9912109375,0.0439453125,0.27734375
46,-0.174,IMU1,1.0365853658536586,-0.6097560975609757,-4.024390243902439,-0.98046875,0.0849609375,0.306640625
47,-0.174,IMU2,-0.426829268292683,0.5487804878048781,-4.51219512195122,-1.0,0.06640625,0.2880859375
48,-0.164,IMU0,-3.4756097560975614,0.7926829268292683,-7.073170731707318,-1.1572265625,0.03125,0.3818359375
49,-0.164,IMU1,-0.6707317073170732,-1.9512195121951221,-7.378048780487806,-1.146484375,0.0322265625,0.3935546875
50,-0.164,IMU2,-2.1341463414634148,0.1829268292682927,-7.682926829268293,-1.19140625,0.0244140625,0.359375
51,-0.154,IMU0,-3.231707317073171,0.853658536585366,-7.378048780487806,-1.2734375,0.09765625,0.4794921875
52,-0.154,IMU1,-0.9756097560975611,-0.1829268292682927,-7.134146341463415,-1.298828125,0.052734375,0.4912109375
53,-0.154,IMU2,-2.1951219512195124,1.4634146341463417,-7.682926829268293,-1.3095703125,0.06640625,0.4873046875
54,-0.144,IMU0,-2.8658536585365857,-2.7439024390243905,-5.975609756097562,-1.43359375,0.076171875,0.5244140625
55,-0.144,IMU1,-0.12195121951219513,-4.329268292682928,-5.426829268292684,-1.427734375,0.0478515625,0.533203125
56,-0.144,IMU2,-1.4634146341463417,-2.682926829268293,-6.036585365853659,-1.439453125,0.0556640625,0.521484375
57,-0.134,IMU0,-2.5,-4.634146341463415,-2.682926829268293,-1.580078125,0.0234375,0.556640625
58,-0.134,IMU1,0.0,-5.548780487804878,-2.1341463414634148,-1.580078125,-0.001953125,0.5673828125
59,-0.134,IMU2,-1.0975609756097562,-4.085365853658537,-2.804878048780488,-1.591796875,0.0068359375,0.5595703125
60,-0.124,IMU0,-1.2195121951219514,-5.7926829268292686,3.2926829268292686,-1.7275390625,0.0556640625,0.662109375
61,-0.124,IMU1,1.0975609756097562,-6.951219512195123,3.9024390243902443,-1.716796875,0.0673828125,0.658203125
62,-0.124,IMU2,-0.12195121951219513,-5.487804878048781,3.2926829268292686,-1.73046875,0.0693359375,0.6376953125
63,-0.114,IMU0,0.12195121951219513,-2.9268292682926833,3.353658536585366,-1.7978515625,0.14453125,0.7197265625
64,-0.114,IMU1,2.5609756097560976,-4.329268292682928,3.231707317073171,-1.78515625,0.1416015625,0.716796875
65,-0.114,IMU2,1.2195121951219514,-2.9268292682926833,2.7439024390243905,-1.8125,0.1533203125,0.6982421875
66,-0.104,IMU0,-1.0975609756097562,0.9146341463414634,-1.0975609756097562,-1.8115234375,0.1630859375,0.650390625
67,-0.104,IMU1,1.7682926829268295,-0.5487804878048781,-1.0365853658536586,-1.8212890625,0.1220703125,0.6484375
68,-0.104,IMU2,0.6097560975609757,0.853658536585366,-1.524390243902439,-1.83984375,0.134765625,0.6298828125
69,-0.094,IMU0,-1.8902439024390245,-0.426829268292683,-1.3414634146341464,-1.9912109375,0.1337890625,0.7353515625
70,-0.094,IMU1,0.7926829268292683,-2.3170731707317076,-1.0365853658536586,-1.99609375,0.1181640625,0.7900390625
71,-0.094,IMU2,-0.5487804878048781,-0.9756097560975611,-1.5853658536585367,-2.0126953125,0.1279296875,0.7626953125
72,-0.084,IMU0,-1.0365853658536586,-0.24390243902439027,-0.853658536585366,-2.1259765625,0.1650390625,0.771484375
73,-0.084,IMU1,1.402439024390244,-1.3414634146341464,-0.6097560975609757,-2.1162109375,0.1572265625,0.767578125
74,-0.084,IMU2,0.0,0.0,-1.1585365853658538,-2.1337890625,0.169921875,0.7548828125
75,-0.074,IMU0,-0.6707317073170732,-0.9146341463414634,0.853658536585366,-2.2421875,0.18359375,0.8466796875
76,-0.074,IMU1,2.1341463414634148,-1.2195121951219514,1.0975609756097562,-2.265625,0.123046875,0.8720703125
77,-0.074,IMU2,0.9756097560975611,-0.1829268292682927,0.5487804878048781,-2.2861328125,0.140625,0.8466796875
78,-0.064,IMU0,0.1829268292682927,-0.3658536585365854,-1.524390243902439,-2.5166015625,0.2255859375,0.9091796875
79,-0.064,IMU1,2.5,-0.9756097560975611,-1.3414634146341464,-2.521484375,0.23046875,0.916015625
80,-0.064,IMU2,1.1585365853658538,0.7926829268292683,-1.829268292682927,-2.5458984375,0.248046875,0.890625
81,-0.054,IMU0,2.0121951219512195,-1.524390243902439,0.24390243902439027,-2.703125,0.1787109375,1.017578125
82,-0.054,IMU1,4.390243902439025,-3.048780487804878,0.3658536585365854,-2.689453125,0.220703125,1.056640625
83,-0.054,IMU2,2.8658536585365857,-1.524390243902439,-0.24390243902439027,-2.7158203125,0.2412109375,1.0400390625
84,-0.044,IMU0,1.707317073170732,-4.2682926829268295,-2.682926829268293,-2.8798828125,0.16015625,1.0390625
85,-0.044,IMU1,4.085365853658537,-5.487804878048781,-2.1341463414634148,-2.859375,0.2373046875,1.064453125
86,-0.044,IMU2,2.8658536585365857,-4.2682926829268295,-2.6219512195121952,-2.876953125,0.2626953125,1.04296875
87,-0.034,IMU0,1.3414634146341464,-6.097560975609756,2.1951219512195124,-2.8974609375,0.19140625,1.111328125
88,-0.034,IMU1,3.780487804878049,-6.52439024390244,2.804878048780488,-2.8662109375,0.248046875,1.1357421875
89,-0.034,IMU2,2.5609756097560976,-5.060975609756098,2.3170731707317076,-2.8857421875,0.2705078125,1.1123046875
90,-0.024,IMU0,2.6219512195121952,-2.5609756097560976,7.073170731707318,-2.947265625,0.26171875,1.1640625
91,-0.024,IMU1,4.573170731707317,-3.414634146341464,7.25609756097561,-2.9169921875,0.2919921875,1.1875
92,-0.024,IMU2,3.231707317073171,-2.073170731707317,6.707317073170732,-2.9453125,0.306640625,1.1689453125
93,-0.014,IMU0,-1.829268292682927,3.048780487804878,1.829268292682927,-2.966796875,0.28125,1.189453125
94,-0.014,IMU1,0.06097560975609757,2.804878048780488,1.3414634146341464,-2.9755859375,0.21875,1.1845703125
95,-0.014,IMU2,-1.2804878048780488,4.451219512195122,0.7317073170731708,-3.0185546875,0.2333984375,1.154296875
96,-0.004,IMU0,-3.536585365853659,9.878048780487806,-5.0,-3.0595703125,0.2568359375,1.2333984375
97,-0.004,IMU1,-1.829268292682927,9.146341463414634,-5.0,-3.0625,0.166015625,1.240234375
98,-0.004,IMU2,-2.987804878048781,10.30487804878049,-5.609756097560976,-3.09375,0.181640625,1.2392578125
99,0.006,IMU0,-3.5975609756097566,10.609756097560977,-5.426829268292684,-3.1171875,0.17578125,1.2392578125
100,0.006,IMU1,-1.2804878048780488,9.26829268292683,-5.121951219512195,-3.0830078125,0.17578125,1.25
101,0.006,IMU2,-2.804878048780488,10.24390243902439,-5.670731707317073,-3.103515625,0.21875,1.2392578125
102,0.016,IMU0,-3.7195121951219514,8.231707317073171,-4.146341463414634,-3.091796875,0.1806640625,1.23046875
103,0.016,IMU1,-1.8902439024390245,6.646341463414635,-3.780487804878049,-3.0498046875,0.244140625,1.240234375
104,0.016,IMU2,-3.1097560975609757,7.8048780487804885,-4.2682926829268295,-3.0732421875,0.2802734375,1.2099609375
105,0.026,IMU0,-2.8658536585365857,6.219512195121951,-0.48780487804878053,-3.060546875,0.283203125,1.2333984375
106,0.026,IMU1,-0.9756097560975611,4.939024390243903,-0.3658536585365854,-3.048828125,0.2548828125,1.2470703125
107,0.026,IMU2,-1.5853658536585367,6.097560975609756,-0.853658536585366,-3.07421875,0.255859375,1.203125
108,0.036,IMU0,-2.0121951219512195,4.573170731707317,0.0,-3.1162109375,0.25,1.2529296875
109,0.036,IMU1,-0.06097560975609757,3.353658536585366,0.24390243902439027,-3.115234375,0.1875,1.2685546875
110,0.036,IMU2,-1.1585365853658538,4.2682926829268295,-0.3658536585365854,-3.146484375,0.220703125,1.263671875
111,0.046,IMU0,-2.7439024390243905,1.707317073170732,-2.804878048780488,-3.3330078125,0.3193359375,1.3623046875
112,0.046,IMU1,-0.48780487804878053,0.5487804878048781,-2.5609756097560976,-3.3095703125,0.2900390625,1.357421875
113,0.046,IMU2,-1.8902439024390245,1.5853658536585367,-3.1707317073170733,-3.345703125,0.3125,1.328125
114,0.056,IMU0,-1.402439024390244,-2.25609756097561,-1.3414634146341464,-3.51171875,0.2626953125,1.4140625
115,0.056,IMU1,0.9756097560975611,-3.231707317073171,-1.2195121951219514,-3.494140625,0.2138671875,1.4140625
116,0.056,IMU2,-0.12195121951219513,-1.9512195121951221,-1.707317073170732,-3.515625,0.2587890625,1.408203125
117,0.066,IMU0,-0.24390243902439027,-4.451219512195122,1.6463414634146343,-3.671875,0.318359375,1.501953125
118,0.066,IMU1,2.1341463414634148,-5.914634146341464,1.7682926829268295,-3.6484375,0.2900390625,1.4853515625
119,0.066,IMU2,0.9756097560975611,-4.573170731707317,1.2804878048780488,-3.67578125,0.3115234375,1.46484375
120,0.076,IMU0,0.0,-5.0,0.06097560975609757,-3.7568359375,0.369140625,1.515625
121,0.076,IMU1,1.829268292682927,-6.341463414634147,0.426829268292683,-3.74609375,0.3310546875,1.546875
122,0.076,IMU2,1.1585365853658538,-4.878048780487806,-0.30487804878048785,-3.7822265625,0.3642578125,1.505859375
123,0.086,IMU0,-0.3658536585365854,-2.7439024390243905,-3.2926829268292686,-3.8779296875,0.3935546875,1.5693359375
124,0.086,IMU1,2.5609756097560976,-3.9024390243902443,-3.048780487804878,-3.8583984375,0.3544921875,1.603515625
125,0.086,IMU2,1.0365853658536586,-2.1951219512195124,-3.658536585365854,-3.8974609375,0.38671875,1.5546875
126,0.096,IMU0,-0.7317073170731708,-1.2804878048780488,-5.121951219512195,-3.97265625,0.3701171875,1.5947265625
127,0.096,IMU1,1.5853658536585367,-2.378048780487805,-4.939024390243903,-3.955078125,0.3193359375,1.6142578125
128,0.096,IMU2,0.3658536585365854,-1.0365853658536586,-5.487804878048781,-3.9853515625,0.37109375,1.60546875
129,0.106,IMU0,-0.5487804878048781,-1.2195121951219514,-3.658536585365854,-4.1015625,0.3779296875,1.630859375
130,0.106,IMU1,1.6463414634146343,-2.5609756097560976,-3.536585365853659,-4.080078125,0.34375,1.6435546875
131,0.106,IMU2,0.6097560975609757,-1.0365853658536586,-4.024390243902439,-4.1083984375,0.373046875,1.623046875
132,0.116,IMU0,-0.6707317073170732,-3.5975609756097566,-2.9268292682926833,-4.16796875,0.400390625,1.6708984375
133,0.116,IMU1,1.0365853658536586,-4.695121951219512,-2.8658536585365857,-4.1396484375,0.375,1.6767578125
134,0.116,IMU2,0.5487804878048781,-3.780487804878049,-3.414634146341464,-4.177734375,0.3896484375,1.65234375
135,0.126,IMU0,-0.7926829268292683,-5.975609756097562,-2.6219512195121952,-4.1845703125,0.44921875,1.6904296875
136,0.126,IMU1,0.48780487804878053,-6.829268292682928,-2.439024390243903,-4.1640625,0.40234375,1.6689453125
137,0.126,IMU2,0.06097560975609757,-5.548780487804878,-2.987804878048781,-4.1982421875,0.435546875,1.64453125
138,0.136,IMU0,-0.3658536585365854,-7.01219512195122,-2.1341463414634148,-4.171875,0.439453125,1.6982421875
139,0.136,IMU1,1.829268292682927,-7.8048780487804885,-2.0121951219512195,-4.154296875,0.3876953125,1.7294921875
140,0.136,IMU2,0.7317073170731708,-6.158536585365854,-2.439024390243903,-4.185546875,0.44140625,1.69140625
141,0.146,IMU0,-0.426829268292683,-5.731707317073171,-1.4634146341463417,-4.2001953125,0.396484375,1.7001953125
142,0.146,IMU1,2.439024390243903,-7.01219512195122,-1.4634146341463417,-4.171875,0.34375,1.6904296875
143,0.146,IMU2,0.48780487804878053,-5.426829268292684,-1.6463414634146343,-4.18359375,0.40234375,1.701171875
144,0.156,IMU0,1.1585365853658538,-4.51219512195122,4.207317073170732,-4.1689453125,0.3828125,1.6982421875
145,0.156,IMU1,2.804878048780488,-5.731707317073171,4.390243902439025,-4.1474609375,0.3466796875,1.7138671875
146,0.156,IMU2,2.3170731707317076,-4.695121951219512,3.9024390243902443,-4.1728515625,0.380859375,1.6845703125
147,0.166,IMU0,2.8658536585365857,-2.987804878048781,5.853658536585367,-4.1953125,0.3974609375,1.7197265625
148,0.166,IMU1,4.451219512195122,-4.390243902439025,6.219512195121951,-4.169921875,0.375,1.734375
149,0.166,IMU2,4.085365853658537,-3.536585365853659,5.487804878048781,-4.20703125,0.3818359375,1.6875
150,0.176,IMU0,3.8414634146341466,-3.9024390243902443,4.2682926829268295,-4.21484375,0.412109375,1.7509765625
151,0.176,IMU1,6.52439024390244,-5.121951219512195,4.51219512195122,-4.1923828125,0.3828125,1.7451171875
152,0.176,IMU2,4.939024390243903,-3.658536585365854,3.963414634146342,-4.2265625,0.388671875,1.693359375
153,0.186,IMU0,4.817073170731708,-5.548780487804878,5.731707317073171,-4.265625,0.427734375,1.7314453125
154,0.186,IMU1,7.560975609756098,-6.890243902439025,5.731707317073171,-4.232421875,0.3974609375,1.7197265625
155,0.186,IMU2,5.7926829268292686,-5.548780487804878,5.548780487804878,-4.263671875,0.3984375,1.6875
156,0.196,IMU0,6.097560975609756,-9.085365853658537,9.939024390243903,-4.20703125,0.443359375,1.724609375
157,0.196,IMU1,8.231707317073171,-10.182926829268293,10.0,-4.1796875,0.40625,1.748046875
158,0.196,IMU2,6.7682926829268295,-8.719512195121952,9.695121951219512,-4.2119140625,0.4169921875,1.7265625
159,0.206,IMU0,6.097560975609756,-8.109756097560977,8.902439024390244,-4.14453125,0.4755859375,1.7529296875
160,0.206,IMU1,7.560975609756098,-9.390243902439025,9.329268292682928,-4.1337890625,0.427734375,1.76171875
161,0.206,IMU2,6.402439024390245,-8.292682926829269,8.414634146341465,-4.181640625,0.451171875,1.7275390625
162,0.216,IMU0,3.5975609756097566,-6.829268292682928,2.9268292682926833,-4.1552734375,0.435546875,1.7578125
163,0.216,IMU1,5.853658536585367,-8.414634146341465,3.2926829268292686,-4.1396484375,0.3828125,1.7431640625
164,0.216,IMU2,4.146341463414634,-8.048780487804878,2.5609756097560976,-4.173828125,0.419921875,1.7099609375
165,0.226,IMU0,3.963414634146342,-7.682926829268293,7.073170731707318,-4.2001953125,0.40625,1.75390625
166,0.226,IMU1,6.707317073170732,-9.085365853658537,7.073170731707318,-4.16796875,0.34375,1.7490234375
167,0.226,IMU2,5.2439024390243905,-9.390243902439025,7.01219512195122,-4.1943359375,0.4052734375,1.71484375
168,0.236,IMU0,5.487804878048781,-11.036585365853659,13.109756097560977,-4.18359375,0.416015625,1.7353515625
169,0.236,IMU1,9.02439024390244,-12.74390243902439,13.04878048780488,-4.162109375,0.3564453125,1.7421875
170,0.236,IMU2,7.01219512195122,-12.134146341463415,12.682926829268293,-4.1865234375,0.4296875,1.71484375
171,0.246,IMU0,3.963414634146342,-15.000000000000002,10.426829268292684,-4.1025390625,0.431640625,1.6875
172,0.246,IMU1,6.829268292682928,-15.975609756097562,10.670731707317074,-4.0927734375,0.37109375,1.7138671875
173,0.246,IMU2,4.878048780487806,-15.365853658536587,9.573170731707318,-4.125,0.4599609375,1.68359375
174,0.256,IMU0,2.378048780487805,-12.195121951219512,6.036585365853659,-4.001953125,0.4345703125,1.6953125
175,0.256,IMU1,4.75609756097561,-13.475609756097562,6.158536585365854,-3.986328125,0.3828125,1.703125
176,0.256,IMU2,2.9268292682926833,-12.073170731707318,5.609756097560976,-4.013671875,0.453125,1.6884765625
177,0.266,IMU0,2.439024390243903,-9.146341463414634,3.8414634146341466,-3.9951171875,0.4189453125,1.6611328125
178,0.266,IMU1,5.121951219512195,-9.939024390243903,3.963414634146342,-3.970703125,0.3662109375,1.66796875
179,0.266,IMU2,3.414634146341464,-9.390243902439025,3.658536585365854,-3.9873046875,0.439453125,1.6552734375
180,0.276,IMU0,3.1707317073170733,-9.51219512195122,9.02439024390244,-3.974609375,0.4052734375,1.646484375
181,0.276,IMU1,5.914634146341464,-10.30487804878049,8.963414634146343,-3.9482421875,0.357421875,1.650390625
182,0.276,IMU2,4.51219512195122,-9.146341463414634,9.085365853658537,-3.955078125,0.4296875,1.6416015625
183,0.286,IMU0,0.853658536585366,-10.182926829268293,6.463414634146342,-3.9130859375,0.4580078125,1.6123046875
184,0.286,IMU1,3.2926829268292686,-11.097560975609756,6.829268292682928,-3.9052734375,0.4140625,1.623046875
185,0.286,IMU2,1.9512195121951221,-9.26829268292683,5.670731707317073,-3.927734375,0.474609375,1.6181640625
186,0.296,IMU0,-1.5853658536585367,-8.536585365853659,-1.1585365853658538,-3.8876953125,0.4560546875,1.642578125
187,0.296,IMU1,1.0975609756097562,-10.0,-0.9756097560975611,-3.8720703125,0.4130859375,1.669921875
188,0.296,IMU2,-0.6097560975609757,-8.78048780487805,-1.4634146341463417,-3.88671875,0.4736328125,1.65625
189,0.306,IMU0,-1.7682926829268295,-6.646341463414635,-1.0975609756097562,-3.8349609375,0.43359375,1.6953125
190,0.306,IMU1,0.1829268292682927,-7.987804878048781,-0.9146341463414634,-3.8212890625,0.3974609375,1.71484375
191,0.306,IMU2,-0.426829268292683,-6.341463414634147,-1.402439024390244,-3.8330078125,0.4423828125,1.7060546875
192,0.316,IMU0,-2.804878048780488,-1.0975609756097562,-3.048780487804878,-3.8115234375,0.4677734375,1.7275390625
193,0.316,IMU1,-1.5853658536585367,-2.1341463414634148,-2.682926829268293,-3.8037109375,0.435546875,1.7568359375
194,0.316,IMU2,-1.3414634146341464,-0.24390243902439027,-3.780487804878049,-3.8193359375,0.4853515625,1.7294921875
195,0.326,IMU0,-4.085365853658537,4.024390243902439,-4.573170731707317,-3.794921875,0.4833984375,1.779296875
196,0.326,IMU1,-3.9024390243902443,3.7195121951219514,-4.207317073170732,-3.7763671875,0.4541015625,1.8056640625
197,0.326,IMU2,-3.536585365853659,4.634146341463415,-4.939024390243903,-3.798828125,0.5048828125,1.775390625
198,0.336,IMU0,-4.207317073170732,7.743902439024391,-4.939024390243903,-3.837890625,0.537109375,1.78515625
199,0.336,IMU1,-2.3170731707317076,6.2804878048780495,-4.75609756097561,-3.818359375,0.5087890625,1.806640625
200,0.336,IMU2,-3.780487804878049,7.743902439024391,-5.121951219512195,-3.8466796875,0.5400390625,1.783203125
201,0.346,IMU0,-2.682926829268293,7.439024390243903,-1.829268292682927,-3.8505859375,0.4970703125,1.8251953125
202,0.346,IMU1,-0.9756097560975611,6.158536585365854,-1.7682926829268295,-3.833984375,0.466796875,1.8349609375
203,0.346,IMU2,-1.5853658536585367,6.585365853658537,-1.829268292682927,-3.8271484375,0.5205078125,1.818359375
204,0.356,IMU0,-1.1585365853658538,6.7682926829268295,0.0,-3.7421875,0.4814453125,1.7646484375
205,0.356,IMU1,1.2195121951219514,4.939024390243903,0.06097560975609757,-3.7255859375,0.4501953125,1.7685546875
206,0.356,IMU2,0.12195121951219513,7.378048780487806,-0.06097560975609757,-3.751953125,0.4794921875,1.7451171875
207,0.366,IMU0,-0.426829268292683,3.4756097560975614,0.7317073170731708,-3.671875,0.5009765625,1.736328125
208,0.366,IMU1,2.6219512195121952,2.5609756097560976,0.5487804878048781,-3.6591796875,0.470703125,1.7451171875
209,0.366,IMU2,1.2804878048780488,4.207317073170732,0.12195121951219513,-3.68359375,0.5224609375,1.7099609375
210,0.376,IMU0,1.2804878048780488,-1.829268292682927,-3.231707317073171,-3.6162109375,0.568359375,1.68359375
211,0.376,IMU1,4.634146341463415,-2.1341463414634148,-3.1097560975609757,-3.615234375,0.5341796875,1.7001953125
212,0.376,IMU2,2.5,-1.2195121951219514,-4.085365853658537,-3.64453125,0.5625,1.681640625
213,0.386,IMU0,2.1951219512195124,-3.9024390243902443,-5.670731707317073,-3.6171875,0.4912109375,1.6923828125
214,0.386,IMU1,4.207317073170732,-4.878048780487806,-4.634146341463415,-3.58203125,0.4814453125,1.703125
215,0.386,IMU2,4.085365853658537,-4.329268292682928,-5.060975609756098,-3.6083984375,0.4873046875,1.66796875
216,0.396,IMU0,4.573170731707317,-11.52439024390244,4.146341463414634,-3.55078125,0.505859375,1.611328125
217,0.396,IMU1,6.707317073170732,-12.987804878048781,4.634146341463415,-3.5419921875,0.4697265625,1.5966796875
218,0.396,IMU2,5.609756097560976,-11.341463414634147,3.8414634146341466,-3.5595703125,0.4970703125,1.583984375
219,0.406,IMU0,1.8902439024390245,-14.939024390243905,0.9146341463414634,-3.298828125,0.5068359375,1.5439453125
220,0.406,IMU1,4.2682926829268295,-16.219512195121954,0.24390243902439027,-3.2685546875,0.474609375,1.529296875
221,0.406,IMU2,2.804878048780488,-14.573170731707318,-0.30487804878048785,-3.3369140625,0.501953125,1.5224609375
222,0.416,IMU0,-0.9756097560975611,-7.378048780487806,-6.646341463414635,-3.134765625,0.5146484375,1.5517578125
223,0.416,IMU1,1.9512195121951221,-8.902439024390244,-6.829268292682928,-3.1201171875,0.470703125,1.5478515625
224,0.416,IMU2,0.30487804878048785,-7.987804878048781,-6.890243902439025,-3.1533203125,0.51171875,1.5419921875
225,0.426,IMU0,-1.0975609756097562,0.30487804878048785,-5.2439024390243905,-3.158203125,0.4931640625,1.568359375
226,0.426,IMU1,0.5487804878048781,-0.3658536585365854,-4.451219512195122,-3.1416015625,0.4580078125,1.576171875
227,0.426,IMU2,-0.6707317073170732,-0.48780487804878053,-4.75609756097561,-3.150390625,0.486328125,1.5576171875
228,0.436,IMU0,1.8902439024390245,3.4756097560975614,2.6219512195121952,-3.154296875,0.5400390625,1.529296875
229,0.436,IMU1,3.8414634146341466,2.7439024390243905,3.048780487804878,-3.1474609375,0.50390625,1.5458984375
230,0.436,IMU2,2.682926829268293,2.3170731707317076,2.3170731707317076,-3.1591796875,0.5341796875,1.517578125
231,0.446,IMU0,1.0365853658536586,3.4756097560975614,1.6463414634146343,-3.11328125,0.5859375,1.50390625
232,0.446,IMU1,3.4756097560975614,2.6219512195121952,1.3414634146341464,-3.1123046875,0.53515625,1.5087890625
233,0.446,IMU2,2.073170731707317,2.8658536585365857,0.6707317073170732,-3.1337890625,0.5830078125,1.4951171875
234,0.456,IMU0,-0.06097560975609757,-0.5487804878048781,-1.0975609756097562,-3.0947265625,0.53515625,1.4423828125
235,0.456,IMU1,2.682926829268293,-1.524390243902439,-0.5487804878048781,-3.080078125,0.48828125,1.443359375
236,0.456,IMU2,0.48780487804878053,-1.2195121951219514,-1.4634146341463417,-3.09375,0.53125,1.4248046875
237,0.466,IMU0,-1.2804878048780488,-5.609756097560976,-2.1951219512195124,-2.955078125,0.5087890625,1.400390625
238,0.466,IMU1,0.7926829268292683,-6.829268292682928,-2.1951219512195124,-2.927734375,0.4443359375,1.4052734375
239,0.466,IMU2,0.6707317073170732,-5.853658536585367,-2.682926829268293,-2.9697265625,0.50390625,1.37890625
240,0.476,IMU0,-0.30487804878048785,-3.231707317073171,-2.6219512195121952,-2.7880859375,0.5146484375,1.41796875
241,0.476,IMU1,2.6219512195121952,-4.085365853658537,-2.8658536585365857,-2.783203125,0.458984375,1.416015625
242,0.476,IMU2,1.1585365853658538,-3.048780487804878,-2.987804878048781,-2.8076171875,0.5107421875,1.4013671875
243,0.486,IMU0,1.2195121951219514,4.207317073170732,-1.6463414634146343,-2.7099609375,0.5185546875,1.3779296875
244,0.486,IMU1,3.231707317073171,3.5975609756097566,-0.853658536585366,-2.6943359375,0.474609375,1.3720703125
245,0.486,IMU2,1.9512195121951221,4.329268292682928,-1.829268292682927,-2.7080078125,0.5126953125,1.3447265625
246,0.496,IMU0,2.439024390243903,9.939024390243903,1.2195121951219514,-2.6455078125,0.5712890625,1.349609375
247,0.496,IMU1,5.182926829268293,8.841463414634147,1.4634146341463417,-2.6435546875,0.5615234375,1.3359375
248,0.496,IMU2,3.658536585365854,9.573170731707318,0.7926829268292683,-2.6572265625,0.5703125,1.3251953125
249,0.506,IMU0,2.1341463414634148,8.048780487804878,-5.3048780487804885,-2.712890625,0.720703125,1.263671875
250,0.506,IMU1,3.2926829268292686,6.52439024390244,-5.731707317073171,-2.7158203125,0.69140625,1.28125
251,0.506,IMU2,3.658536585365854,8.170731707317074,-5.7926829268292686,-2.748046875,0.7177734375,1.2607421875
252,0.516,IMU0,-1.524390243902439,2.8658536585365857,-14.02439024390244,-2.625,0.728515625,1.271484375
253,0.516,IMU1,1.4634146341463417,1.7682926829268295,-14.26829268292683,-2.6240234375,0.71875,1.2568359375
254,0.516,IMU2,-0.12195121951219513,3.780487804878049,-14.451219512195124,-2.65234375,0.7275390625,1.255859375
255,0.526,IMU0,-2.987804878048781,1.8902439024390245,-14.573170731707318,-2.55078125,0.6796875,1.236328125
256,0.526,IMU1,0.24390243902439027,1.524390243902439,-13.841463414634148,-2.529296875,0.6943359375,1.248046875
257,0.526,IMU2,-1.829268292682927,3.231707317073171,-14.756097560975611,-2.5478515625,0.68359375,1.2109375
258,0.536,IMU0,-1.9512195121951221,1.0365853658536586,-10.609756097560977,-2.5087890625,0.72265625,1.052734375
259,0.536,IMU1,0.30487804878048785,-0.7317073170731708,-10.487804878048781,-2.4638671875,0.7421875,1.0576171875
260,0.536,IMU2,-0.9146341463414634,1.3414634146341464,-10.975609756097562,-2.51171875,0.7294921875,1.08203125
261,0.546,IMU0,0.1829268292682927,1.707317073170732,-6.890243902439025,-2.3232421875,0.6279296875,1.03515625
262,0.546,IMU1,3.7195121951219514,0.48780487804878053,-5.7926829268292686,-2.2900390625,0.6279296875,1.0400390625
263,0.546,IMU2,1.2195121951219514,2.682926829268293,-6.890243902439025,-2.296875,0.6259765625,1.0322265625
264,0.556,IMU0,-0.3658536585365854,3.780487804878049,-1.0975609756097562,-2.2900390625,0.6318359375,0.9072265625
265,0.556,IMU1,2.1341463414634148,3.1707317073170733,-0.853658536585366,-2.3037109375,0.5966796875,0.923828125
266,0.556,IMU2,0.6707317073170732,5.121951219512195,-1.4634146341463417,-2.3037109375,0.625,0.8974609375
267,0.566,IMU0,-6.52439024390244,-1.5853658536585367,1.5853658536585367,-2.283203125,0.6396484375,0.80078125
268,0.566,IMU1,-3.4756097560975614,-2.7439024390243905,1.7682926829268295,-2.275390625,0.62890625,0.810546875
269,0.566,IMU2,-4.451219512195122,-2.0121951219512195,1.2804878048780488,-2.2958984375,0.65234375,0.8232421875
270,0.576,IMU0,-6.036585365853659,4.75609756097561,3.7195121951219514,-2.13671875,0.4306640625,0.8046875
271,0.576,IMU1,-1.9512195121951221,4.329268292682928,4.634146341463415,-2.0927734375,0.458984375,0.8203125
272,0.576,IMU2,-4.695121951219512,5.487804878048781,3.658536585365854,-2.109375,0.4462890625,0.802734375
273,0.586,IMU0,-0.48780487804878053,20.853658536585368,10.670731707317074,-2.1533203125,0.4501953125,0.869140625
274,0.586,IMU1,2.987804878048781,19.390243902439025,10.731707317073171,-2.140625,0.41796875,0.869140625
275,0.586,IMU2,-0.12195121951219513,20.0,10.24390243902439,-2.1630859375,0.400390625,0.8447265625
276,0.596,IMU0,2.378048780487805,24.634146341463417,5.121951219512195,-2.2412109375,0.4970703125,0.8173828125
277,0.596,IMU1,4.390243902439025,23.414634146341466,5.609756097560976,-2.234375,0.4990234375,0.8359375
278,0.596,IMU2,3.4756097560975614,25.243902439024392,5.487804878048781,-2.2734375,0.5,0.8056640625
279,0.606,IMU0,2.073170731707317,24.695121951219516,-0.853658536585366,-2.09765625,0.4892578125,0.87890625
280,0.606,IMU1,3.536585365853659,23.414634146341466,-0.426829268292683,-2.1103515625,0.4560546875,0.89453125
281,0.606,IMU2,2.9268292682926833,24.81707317073171,-0.7926829268292683,-2.1396484375,0.455078125,0.859375
282,0.616,IMU0,3.353658536585366,26.707317073170735,0.9756097560975611,-2.05859375,0.5087890625,0.87890625
283,0.616,IMU1,3.780487804878049,25.365853658536587,1.402439024390244,-2.064453125,0.474609375,0.880859375
284,0.616,IMU2,4.085365853658537,27.25609756097561,0.853658536585366,-2.0830078125,0.466796875,0.8662109375
285,0.626,IMU0,-2.073170731707317,21.402439024390247,-12.134146341463415,-2.107421875,0.5576171875,0.927734375
286,0.626,IMU1,-0.1829268292682927,20.182926829268293,-11.097560975609756,-2.1328125,0.51953125,0.93359375
287,0.626,IMU2,-0.7317073170731708,22.80487804878049,-10.792682926829269,-2.1728515625,0.513671875,0.9208984375
288,0.636,IMU0,-10.609756097560977,8.841463414634147,-43.963414634146346,-2.40625,0.625,0.9326171875
289,0.636,IMU1,-8.963414634146343,7.682926829268293,-42.6219512195122,-2.435546875,0.6044921875,0.9755859375
290,0.636,IMU2,-9.817073170731708,10.060975609756099,-42.13414634146342,-2.49609375,0.6181640625,0.958984375
291,0.646,IMU0,-6.890243902439025,0.7317073170731708,-47.25609756097561,-2.2783203125,0.6376953125,1.0712890625
292,0.646,IMU1,-5.670731707317073,-0.7317073170731708,-47.37804878048781,-2.2529296875,0.6201171875,1.05859375
293,0.646,IMU2,-6.219512195121951,1.0365853658536586,-48.59756097560976,-2.2431640625,0.6171875,1.0322265625
294,0.656,IMU0,1.2804878048780488,2.3170731707317076,-22.195121951219512,-2.2177734375,0.5830078125,0.9619140625
295,0.656,IMU1,2.25609756097561,0.1829268292682927,-22.5609756097561,-2.1865234375,0.5498046875,0.9384765625
296,0.656,IMU2,0.9756097560975611,1.524390243902439,-23.902439024390247,-2.171875,0.5498046875,0.8984375
297,0.666,IMU0,3.658536585365854,1.402439024390244,-10.365853658536587,-2.3095703125,0.7314453125,0.77734375
298,0.666,IMU1,6.707317073170732,-0.3658536585365854,-9.939024390243903,-2.31640625,0.720703125,0.7998046875
299,0.666,IMU2,4.695121951219512,1.9512195121951221,-10.426829268292684,-2.33203125,0.7451171875,0.7734375
300,0.676,IMU0,0.48780487804878053,-7.01219512195122,-11.76829268292683,-2.294921875,0.787109375,0.7998046875
301,0.676,IMU1,3.5975609756097566,-8.475609756097562,-11.341463414634147,-2.3017578125,0.7744140625,0.8115234375
302,0.676,IMU2,1.6463414634146343,-5.731707317073171,-11.76829268292683,-2.3251953125,0.7880859375,0.806640625
303,0.686,IMU0,-2.1951219512195124,-2.1951219512195124,-12.256097560975611,-2.1181640625,0.7392578125,0.8076171875
304,0.686,IMU1,0.6707317073170732,-4.085365853658537,-12.317073170731708,-2.1064453125,0.7177734375,0.798828125
305,0.686,IMU2,-1.524390243902439,-1.9512195121951221,-12.987804878048781,-2.109375,0.7275390625,0.7890625
306,0.696,IMU0,-3.1707317073170733,4.2682926829268295,-9.085365853658537,-2.0546875,0.716796875,0.75
307,0.696,IMU1,-0.9756097560975611,2.7439024390243905,-8.841463414634147,-2.0556640625,0.6884765625,0.7568359375
308,0.696,IMU2,-2.378048780487805,3.9024390243902443,-9.26829268292683,-2.0693359375,0.6962890625,0.736328125
309,0.706,IMU0,-5.975609756097562,6.646341463414635,-8.78048780487805,-2.0458984375,0.697265625,0.8115234375
310,0.706,IMU1,-3.1097560975609757,5.182926829268293,-8.536585365853659,-2.0478515625,0.6787109375,0.8125
311,0.706,IMU2,-4.451219512195122,6.7682926829268295,-9.146341463414634,-2.0615234375,0.689453125,0.80859375
312,0.716,IMU0,-7.621951219512196,5.731707317073171,-13.658536585365855,-2.1025390625,0.625,0.8388671875
313,0.716,IMU1,-4.390243902439025,3.963414634146342,-13.231707317073171,-2.1083984375,0.6044921875,0.8359375
314,0.716,IMU2,-6.951219512195123,5.365853658536586,-13.658536585365855,-2.1337890625,0.6171875,0.828125
315,0.726,IMU0,-9.329268292682928,3.963414634146342,-17.25609756097561,-2.1376953125,0.62109375,0.8623046875
316,0.726,IMU1,-6.463414634146342,0.9146341463414634,-16.890243902439025,-2.1357421875,0.6123046875,0.8720703125
317,0.726,IMU2,-9.146341463414634,2.378048780487805,-17.25609756097561,-2.1611328125,0.625,0.85546875
318,0.736,IMU0,-8.78048780487805,1.9512195121951221,-24.634146341463417,-2.1826171875,0.66796875,0.931640625
319,0.736,IMU1,-5.487804878048781,-0.3658536585365854,-24.390243902439025,-2.177734375,0.6640625,0.955078125
320,0.736,IMU2,-8.719512195121952,1.2804878048780488,-24.81707317073171,-2.1953125,0.677734375,0.9384765625
321,0.746,IMU0,-7.560975609756098,0.0,-24.451219512195124,-2.1435546875,0.6279296875,0.9755859375
322,0.746,IMU1,-5.426829268292684,-2.439024390243903,-24.26829268292683,-2.138671875,0.619140625,0.9736328125
323,0.746,IMU2,-7.621951219512196,-0.9756097560975611,-24.878048780487806,-2.1494140625,0.6328125,0.951171875
324,0.756,IMU0,-7.195121951219513,0.30487804878048785,-20.121951219512198,-2.087890625,0.6337890625,0.984375
325,0.756,IMU1,-5.487804878048781,-2.0121951219512195,-19.939024390243905,-2.0771484375,0.626953125,0.978515625
326,0.756,IMU2,-6.402439024390245,-0.3658536585365854,-20.60975609756098,-2.087890625,0.640625,0.9521484375
327,0.766,IMU0,-4.085365853658537,2.7439024390243905,-13.475609756097562,-2.1474609375,0.658203125,0.9873046875
328,0.766,IMU1,-3.231707317073171,2.0121951219512195,-13.170731707317074,-2.140625,0.6494140625,0.9794921875
329,0.766,IMU2,-2.682926829268293,3.780487804878049,-13.902439024390246,-2.1552734375,0.662109375,0.9638671875
330,0.776,IMU0,-5.426829268292684,0.12195121951219513,-13.29268292682927,-2.1650390625,0.7109375,0.98828125
331,0.776,IMU1,-4.329268292682928,-0.7317073170731708,-12.865853658536587,-2.166015625,0.7001953125,0.9833984375
332,0.776,IMU2,-4.207317073170732,1.3414634146341464,-13.536585365853659,-2.1865234375,0.7119140625,0.9765625
333,0.786,IMU0,-6.219512195121951,-1.1585365853658538,-13.78048780487805,-2.1533203125,0.740234375,0.9638671875
334,0.786,IMU1,-4.207317073170732,-2.5609756097560976,-13.597560975609758,-2.1416015625,0.736328125,0.9697265625
335,0.786,IMU2,-4.146341463414634,-0.853658536585366,-14.329268292682928,-2.1611328125,0.7451171875,0.9501953125
336,0.796,IMU0,-7.682926829268293,-0.5487804878048781,-12.682926829268293,-2.1904296875,0.6953125,0.966796875
337,0.796,IMU1,-5.7926829268292686,-1.6463414634146343,-12.500000000000002,-2.1767578125,0.69140625,0.9619140625
338,0.796,IMU2,-5.182926829268293,0.30487804878048785,-13.170731707317074,-2.1982421875,0.69921875,0.9453125
339,0.806,IMU0,-7.073170731707318,-1.524390243902439,-9.207317073170733,-2.201171875,0.7109375,0.9677734375
340,0.806,IMU1,-3.7195121951219514,-2.378048780487805,-9.329268292682928,-2.18359375,0.70703125,0.9765625
341,0.806,IMU2,-5.365853658536586,-0.7926829268292683,-9.817073170731708,-2.2041015625,0.7138671875,0.947265625
342,0.816,IMU0,-7.378048780487806,0.0,-10.914634146341465,-2.2236328125,0.7509765625,0.947265625
343,0.816,IMU1,-4.390243902439025,-0.7317073170731708,-10.792682926829269,-2.212890625,0.75,0.9599609375
344,0.816,IMU2,-6.219512195121951,0.9756097560975611,-11.341463414634147,-2.2353515625,0.7548828125,0.927734375
345,0.826,IMU0,-8.353658536585366,1.0975609756097562,-10.914634146341465,-2.1640625,0.7138671875,0.966796875
346,0.826,IMU1,-5.365853658536586,0.9146341463414634,-10.975609756097562,-2.158203125,0.7021484375,0.9794921875
347,0.826,IMU2,-7.134146341463415,2.1951219512195124,-11.341463414634147,-2.1640625,0.7119140625,0.94140625
348,0.836,IMU0,-4.634146341463415,6.402439024390245,-3.1707317073170733,-2.177734375,0.755859375,0.9970703125
349,0.836,IMU1,-1.0365853658536586,5.609756097560976,-3.2926829268292686,-2.1748046875,0.734375,0.9873046875
350,0.836,IMU2,-3.414634146341464,7.378048780487806,-3.658536585365854,-2.181640625,0.7509765625,0.970703125
351,0.846,IMU0,-2.3170731707317076,11.219512195121952,-3.658536585365854,-2.2109375,0.8076171875,0.958984375
352,0.846,IMU1,0.853658536585366,10.670731707317074,-3.4756097560975614,-2.2119140625,0.787109375,0.958984375
353,0.846,IMU2,-0.7317073170731708,12.560975609756099,-4.085365853658537,-2.2265625,0.802734375,0.9501953125
354,0.856,IMU0,-0.3658536585365854,11.463414634146343,-2.8658536585365857,-2.158203125,0.8046875,0.9267578125
355,0.856,IMU1,2.1341463414634148,11.097560975609756,-2.682926829268293,-2.154296875,0.7783203125,0.9306640625
356,0.856,IMU2,1.524390243902439,12.500000000000002,-3.231707317073171,-2.169921875,0.80078125,0.9208984375
357,0.866,IMU0,-0.3658536585365854,14.878048780487806,-3.353658536585366,-2.05859375,0.75,0.9404296875
358,0.866,IMU1,2.1341463414634148,11.097560975609756,-2.682926829268293,-2.154296875,0.7783203125,0.9306640625
359,0.866,IMU2,0.9756097560975611,16.646341463414636,-3.5975609756097566,-2.076171875,0.7470703125,0.9375
360,0.876,IMU0,0.5487804878048781,21.76829268292683,-3.5975609756097566,-1.9814453125,0.8017578125,0.908203125
361,0.876,IMU1,3.9024390243902443,20.853658536585368,-3.414634146341464,-1.9892578125,0.7646484375,0.9150390625
362,0.876,IMU2,2.0121951219512195,23.353658536585368,-3.8414634146341466,-2.001953125,0.80078125,0.908203125
363,0.886,IMU0,-0.24390243902439027,29.87804878048781,-8.048780487804878,-2.0595703125,0.8154296875,0.931640625
364,0.886,IMU1,2.9268292682926833,28.902439024390247,-7.8048780487804885,-2.0615234375,0.783203125,0.9443359375
365,0.886,IMU2,0.6097560975609757,31.463414634146343,-8.170731707317074,-2.0791015625,0.8125,0.9248046875
366,0.896,IMU0,0.48780487804878053,28.353658536585368,-7.560975609756098,-2.07421875,0.8076171875,0.923828125
367,0.896,IMU1,3.1707317073170733,27.743902439024392,-7.317073170731708,-2.0703125,0.775390625,0.953125
368,0.896,IMU2,1.6463414634146343,29.451219512195124,-7.682926829268293,-2.087890625,0.80859375,0.9208984375
369,0.906,IMU0,-1.8902439024390245,25.365853658536587,-8.536585365853659,-1.970703125,0.763671875,0.896484375
370,0.906,IMU1,1.0975609756097562,24.939024390243905,-8.475609756097562,-1.96875,0.7373046875,0.908203125
371,0.906,IMU2,0.12195121951219513,26.707317073170735,-8.78048780487805,-1.9697265625,0.763671875,0.8759765625
372,0.916,IMU0,1.2804878048780488,28.719512195121954,-4.51219512195122,-1.888671875,0.833984375,0.91015625
373,0.916,IMU1,4.75609756097561,27.865853658536587,-4.207317073170732,-1.9013671875,0.8095703125,0.9326171875
374,0.916,IMU2,2.439024390243903,29.87804878048781,-4.695121951219512,-1.912109375,0.8330078125,0.892578125
375,0.926,IMU0,2.3170731707317076,35.91463414634147,-7.195121951219513,-1.9130859375,0.8125,0.9443359375
376,0.926,IMU1,5.365853658536586,35.30487804878049,-6.52439024390244,-1.9052734375,0.7919921875,0.9599609375
377,0.926,IMU2,2.25609756097561,36.28048780487805,-7.134146341463415,-1.9130859375,0.8134765625,0.931640625
378,0.936,IMU0,2.987804878048781,37.926829268292686,-1.9512195121951221,-1.9169921875,0.75390625,0.91015625
379,0.936,IMU1,6.402439024390245,37.43902439024391,-1.1585365853658538,-1.9140625,0.7373046875,0.90234375
380,0.936,IMU2,3.1707317073170733,38.963414634146346,-1.9512195121951221,-1.9052734375,0.7568359375,0.89453125
381,0.946,IMU0,3.414634146341464,38.963414634146346,-0.24390243902439027,-1.8125,0.7109375,0.9228515625
382,0.946,IMU1,5.609756097560976,37.926829268292686,-0.1829268292682927,-1.8046875,0.712890625,0.91796875
383,0.946,IMU2,3.231707317073171,38.29268292682927,-0.30487804878048785,-1.826171875,0.7109375,0.9013671875
384,0.956,IMU0,4.390243902439025,41.21951219512196,0.0,-1.802734375,0.72265625,0.95703125
385,0.956,IMU1,6.097560975609756,39.69512195121951,0.12195121951219513,-1.8095703125,0.7021484375,0.953125
386,0.956,IMU2,5.426829268292684,41.28048780487805,-0.12195121951219513,-1.8173828125,0.7265625,0.9521484375
387,0.966,IMU0,3.7195121951219514,40.97560975609756,-3.231707317073171,-1.650390625,0.7041015625,0.91015625
388,0.966,IMU1,4.817073170731708,40.0609756097561,-3.1707317073170733,-1.642578125,0.7353515625,0.9248046875
389,0.966,IMU2,4.75609756097561,41.524390243902445,-3.414634146341464,-1.6611328125,0.72265625,0.9248046875
390,0.976,IMU0,1.402439024390244,41.707317073170735,-8.597560975609756,-1.5732421875,0.7353515625,0.9169921875
391,0.976,IMU1,2.3170731707317076,41.28048780487805,-8.414634146341465,-1.5703125,0.76171875,0.91015625
392,0.976,IMU2,2.804878048780488,42.743902439024396,-8.841463414634147,-1.583984375,0.75390625,0.921875
393,0.986,IMU0,0.7317073170731708,37.5,-6.707317073170732,-1.609375,0.6689453125,0.9521484375
394,0.986,IMU1,2.9268292682926833,36.09756097560976,-5.7926829268292686,-1.57421875,0.6767578125,0.955078125
395,0.986,IMU2,2.378048780487805,37.31707317073171,-6.707317073170732,-1.59765625,0.67578125,0.943359375
396,0.996,IMU0,2.439024390243903,33.109756097560975,-0.12195121951219513,-1.5185546875,0.673828125,0.88671875
397,0.996,IMU1,3.963414634146342,31.89024390243903,0.24390243902439027,-1.4990234375,0.673828125,0.921875
398,0.996,IMU2,3.1707317073170733,32.43902439024391,-0.24390243902439027,-1.5263671875,0.671875,0.8876953125
399,1.006,IMU0,3.780487804878049,31.158536585365855,-0.853658536585366,-1.400390625,0.6025390625,0.9306640625
400,1.006,IMU1,5.3048780487804885,30.243902439024392,0.12195121951219513,-1.3779296875,0.591796875,0.94140625
401,1.006,IMU2,5.0,30.426829268292686,-0.7317073170731708,-1.3876953125,0.591796875,0.9189453125
402,1.016,IMU0,4.390243902439025,31.463414634146343,3.1097560975609757,-1.2314453125,0.5791015625,0.8974609375
403,1.016,IMU1,6.158536585365854,30.975609756097565,3.536585365853659,-1.228515625,0.5302734375,0.921875
404,1.016,IMU2,4.634146341463415,31.402439024390247,3.048780487804878,-1.2470703125,0.5546875,0.8759765625
405,1.026,IMU0,6.890243902439025,32.07317073170732,8.353658536585366,-1.23828125,0.607421875,0.912109375
406,1.026,IMU1,8.841463414634147,30.243902439024392,8.536585365853659,-1.2490234375,0.57421875,0.90234375
407,1.026,IMU2,7.621951219512196,31.463414634146343,8.170731707317074,-1.26171875,0.59375,0.89453125
408,1.036,IMU0,7.378048780487806,31.89024390243903,9.451219512195122,-1.2119140625,0.609375,0.900390625
409,1.036,IMU1,10.426829268292684,30.60975609756098,9.634146341463415,-1.23046875,0.611328125,0.896484375
410,1.036,IMU2,9.085365853658537,32.5609756097561,9.207317073170733,-1.2353515625,0.6201171875,0.8701171875
411,1.046,IMU0,7.8048780487804885,31.646341463414636,7.987804878048781,-1.2001953125,0.58984375,0.84765625
412,1.046,IMU1,9.451219512195122,29.451219512195124,7.865853658536586,-1.2021484375,0.6083984375,0.87109375
413,1.046,IMU2,8.353658536585366,32.01219512195122,7.621951219512196,-1.22265625,0.6025390625,0.8818359375
414,1.056,IMU0,6.829268292682928,28.84146341463415,7.682926829268293,-1.0693359375,0.5322265625,0.7578125
415,1.056,IMU1,8.963414634146343,27.80487804878049,8.719512195121952,-1.0380859375,0.5234375,0.7744140625
416,1.056,IMU2,8.353658536585366,29.75609756097561,7.926829268292684,-1.04296875,0.525390625,0.7666015625
417,1.066,IMU0,9.146341463414634,33.90243902439025,12.560975609756099,-1.0498046875,0.5234375,0.8388671875
418,1.066,IMU1,10.975609756097562,33.47560975609756,13.109756097560977,-1.0615234375,0.5068359375,0.853515625
419,1.066,IMU2,10.365853658536587,35.0609756097561,12.621951219512196,-1.0634765625,0.5166015625,0.8359375
420,1.076,IMU0,11.219512195121952,31.951219512195124,18.353658536585368,-1.126953125,0.51171875,0.8515625
421,1.076,IMU1,12.621951219512196,31.158536585365855,19.02439024390244,-1.1083984375,0.55078125,0.8505859375
422,1.076,IMU2,12.073170731707318,32.43902439024391,18.414634146341466,-1.1240234375,0.541015625,0.8251953125
423,1.086,IMU0,10.609756097560977,32.80487804878049,17.621951219512198,-1.037109375,0.4375,0.806640625
424,1.086,IMU1,12.926829268292684,32.01219512195122,17.926829268292686,-1.0224609375,0.4677734375,0.806640625
425,1.086,IMU2,11.829268292682928,33.84146341463415,17.378048780487806,-1.0361328125,0.4560546875,0.80078125
426,1.096,IMU0,8.658536585365855,33.41463414634146,18.597560975609756,-1.072265625,0.4697265625,0.810546875
427,1.096,IMU1,10.182926829268293,32.86585365853659,18.78048780487805,-1.0869140625,0.4208984375,0.83984375
428,1.096,IMU2,9.878048780487806,34.146341463414636,18.231707317073173,-1.1044921875,0.431640625,0.81640625
429,1.106,IMU0,9.817073170731708,30.792682926829272,22.195121951219512,-1.107421875,0.4453125,0.7919921875
430,1.106,IMU1,11.646341463414634,29.39024390243903,22.439024390243905,-1.12109375,0.4345703125,0.80859375
431,1.106,IMU2,10.853658536585368,30.487804878048784,21.951219512195124,-1.1318359375,0.4375,0.80859375
432,1.116,IMU0,8.292682926829269,24.390243902439025,21.585365853658537,-1.1220703125,0.4091796875,0.822265625
433,1.116,IMU1,10.731707317073171,22.80487804878049,21.951219512195124,-1.109375,0.4169921875,0.828125
434,1.116,IMU2,10.0,24.02439024390244,21.34146341463415,-1.125,0.4150390625,0.8017578125
435,1.126,IMU0,6.7682926829268295,21.52439024390244,19.512195121951223,-1.0517578125,0.4365234375,0.7529296875
436,1.126,IMU1,9.085365853658537,20.914634146341466,19.75609756097561,-1.052734375,0.431640625,0.7646484375
437,1.126,IMU2,8.597560975609756,21.76829268292683,19.207317073170735,-1.0693359375,0.4384765625,0.7490234375
438,1.136,IMU0,5.853658536585367,18.414634146341466,18.963414634146343,-1.07421875,0.384765625,0.7666015625
439,1.136,IMU1,9.329268292682928,18.29268292682927,19.02439024390244,-1.068359375,0.4208984375,0.78515625
440,1.136,IMU2,8.109756097560977,20.182926829268293,18.53658536585366,-1.0830078125,0.4169921875,0.7783203125
441,1.146,IMU0,6.951219512195123,15.914634146341465,19.878048780487806,-1.125,0.4111328125,0.7841796875
442,1.146,IMU1,9.695121951219512,15.54878048780488,20.0609756097561,-1.1240234375,0.4033203125,0.771484375
443,1.146,IMU2,8.719512195121952,16.646341463414636,19.512195121951223,-1.13671875,0.404296875,0.7646484375
444,1.156,IMU0,7.134146341463415,14.451219512195124,19.878048780487806,-1.111328125,0.4853515625,0.8203125
445,1.156,IMU1,8.963414634146343,13.597560975609758,20.243902439024392,-1.1171875,0.49609375,0.8173828125
446,1.156,IMU2,8.109756097560977,14.02439024390244,19.75609756097561,-1.134765625,0.4970703125,0.7998046875
447,1.166,IMU0,6.52439024390244,16.890243902439025,16.76829268292683,-1.109375,0.4814453125,0.833984375
448,1.166,IMU1,8.475609756097562,15.54878048780488,16.951219512195124,-1.115234375,0.466796875,0.8349609375
449,1.166,IMU2,7.195121951219513,16.402439024390244,16.52439024390244,-1.126953125,0.466796875,0.8203125
450,1.176,IMU0,8.109756097560977,18.170731707317074,17.621951219512198,-1.18359375,0.443359375,0.7880859375
451,1.176,IMU1,10.30487804878049,16.585365853658537,17.743902439024392,-1.1767578125,0.4599609375,0.8046875
452,1.176,IMU2,8.719512195121952,17.134146341463417,17.378048780487806,-1.1904296875,0.4599609375,0.7734375
453,1.186,IMU0,8.658536585365855,17.5609756097561,20.975609756097562,-1.166015625,0.4267578125,0.7939453125
454,1.186,IMU1,11.158536585365855,16.402439024390244,21.097560975609756,-1.162109375,0.427734375,0.8330078125
455,1.186,IMU2,9.634146341463415,17.5,20.60975609756098,-1.1728515625,0.4296875,0.8134765625
456,1.196,IMU0,11.158536585365855,16.951219512195124,24.207317073170735,-1.1865234375,0.4130859375,0.7978515625
457,1.196,IMU1,13.109756097560977,15.914634146341465,24.26829268292683,-1.18359375,0.421875,0.810546875
458,1.196,IMU2,12.134146341463415,17.134146341463417,23.78048780487805,-1.1923828125,0.419921875,0.7919921875
459,1.206,IMU0,10.792682926829269,13.29268292682927,22.25609756097561,-1.2138671875,0.4326171875,0.7900390625
460,1.206,IMU1,12.560975609756099,12.439024390243903,22.621951219512198,-1.216796875,0.4208984375,0.779296875
461,1.206,IMU2,11.707317073170733,12.926829268292684,22.073170731707318,-1.2353515625,0.4267578125,0.759765625
462,1.216,IMU0,10.426829268292684,6.7682926829268295,20.48780487804878,-1.205078125,0.4033203125,0.7724609375
463,1.216,IMU1,13.170731707317074,6.158536585365854,20.670731707317074,-1.2119140625,0.4072265625,0.7568359375
464,1.216,IMU2,11.890243902439025,6.951219512195123,20.182926829268293,-1.2294921875,0.40625,0.744140625
465,1.226,IMU0,9.329268292682928,3.658536585365854,13.963414634146343,-1.041015625,0.5087890625,0.7138671875
466,1.226,IMU1,12.682926829268293,2.439024390243903,14.390243902439027,-1.0546875,0.4775390625,0.7392578125
467,1.226,IMU2,10.853658536585368,3.5975609756097566,13.78048780487805,-1.0791015625,0.49609375,0.7294921875
468,1.236,IMU0,8.658536585365855,6.402439024390245,7.865853658536586,-0.9580078125,0.470703125,0.6708984375
469,1.236,IMU1,10.853658536585368,4.817073170731708,8.109756097560977,-0.951171875,0.4921875,0.7080078125
470,1.236,IMU2,9.51219512195122,6.463414634146342,7.621951219512196,-0.96875,0.474609375,0.689453125
471,1.246,IMU0,9.207317073170733,10.609756097560977,10.975609756097562,-0.9306640625,0.5009765625,0.697265625
472,1.246,IMU1,11.890243902439025,9.451219512195122,10.975609756097562,-0.9267578125,0.4833984375,0.7197265625
473,1.246,IMU2,9.817073170731708,11.036585365853659,10.731707317073171,-0.9296875,0.4931640625,0.7177734375
474,1.256,IMU0,10.24390243902439,12.926829268292684,14.939024390243905,-0.9228515625,0.4814453125,0.58203125
475,1.256,IMU1,13.109756097560977,12.01219512195122,15.000000000000002,-0.9140625,0.4912109375,0.6162109375
476,1.256,IMU2,10.975609756097562,13.109756097560977,14.695121951219514,-0.9287109375,0.48046875,0.5947265625
477,1.266,IMU0,11.646341463414634,12.621951219512196,19.573170731707318,-0.9453125,0.4375,0.6572265625
478,1.266,IMU1,14.51219512195122,11.951219512195124,19.573170731707318,-0.94140625,0.423828125,0.67578125
479,1.266,IMU2,12.378048780487806,12.74390243902439,19.26829268292683,-0.9541015625,0.435546875,0.666015625
480,1.276,IMU0,10.060975609756099,11.036585365853659,17.804878048780488,-0.96484375,0.4912109375,0.6083984375
481,1.276,IMU1,12.865853658536587,10.060975609756099,18.04878048780488,-0.9599609375,0.51171875,0.6298828125
482,1.276,IMU2,11.036585365853659,11.646341463414634,17.5609756097561,-0.9892578125,0.48828125,0.6171875
483,1.286,IMU0,8.170731707317074,7.926829268292684,12.987804878048781,-0.9990234375,0.4453125,0.5947265625
484,1.286,IMU1,10.670731707317074,6.951219512195123,13.231707317073171,-1.001953125,0.4248046875,0.6240234375
485,1.286,IMU2,9.451219512195122,7.926829268292684,12.74390243902439,-1.0185546875,0.4482421875,0.625
486,1.296,IMU0,6.463414634146342,3.414634146341464,13.78048780487805,-0.982421875,0.384765625,0.6162109375
487,1.296,IMU1,9.02439024390244,2.073170731707317,13.841463414634148,-0.974609375,0.39453125,0.6318359375
488,1.296,IMU2,8.170731707317074,4.085365853658537,13.536585365853659,-0.9833984375,0.380859375,0.5869140625
489,1.306,IMU0,6.158536585365854,6.2804878048780495,15.30487804878049,-1.0224609375,0.44140625,0.62890625
490,1.306,IMU1,8.963414634146343,4.939024390243903,15.54878048780488,-1.025390625,0.423828125,0.6533203125
491,1.306,IMU2,7.865853658536586,6.951219512195123,15.000000000000002,-1.0380859375,0.4482421875,0.6455078125
492,1.316,IMU0,4.390243902439025,8.719512195121952,12.682926829268293,-1.0087890625,0.462890625,0.654296875
493,1.316,IMU1,7.01219512195122,7.500000000000001,12.987804878048781,-1.013671875,0.453125,0.658203125
494,1.316,IMU2,5.914634146341464,9.390243902439025,12.317073170731708,-1.033203125,0.4599609375,0.650390625
495,1.326,IMU0,2.5609756097560976,9.878048780487806,11.036585365853659,-0.998046875,0.3310546875,0.625
496,1.326,IMU1,4.817073170731708,8.902439024390244,11.036585365853659,-0.9912109375,0.3212890625,0.615234375
497,1.326,IMU2,4.939024390243903,10.853658536585368,10.731707317073171,-0.9833984375,0.3359375,0.6240234375
498,1.336,IMU0,3.7195121951219514,10.731707317073171,15.731707317073171,-0.998046875,0.43359375,0.623046875
499,1.336,IMU1,6.097560975609756,9.51219512195122,15.914634146341465,-1.0009765625,0.4375,0.59375
500,1.336,IMU2,5.365853658536586,10.975609756097562,15.365853658536587,-1.0146484375,0.4111328125,0.5751953125
501,1.346,IMU0,4.573170731707317,8.048780487804878,16.219512195121954,-1.01171875,0.3994140625,0.6396484375
502,1.346,IMU1,5.7926829268292686,7.500000000000001,16.585365853658537,-1.021484375,0.388671875,0.6328125
503,1.346,IMU2,5.487804878048781,8.475609756097562,15.914634146341465,-1.0322265625,0.4013671875,0.6484375
504,1.356,IMU0,2.5,5.2439024390243905,12.134146341463415,-0.9599609375,0.416015625,0.58984375
505,1.356,IMU1,4.329268292682928,3.8414634146341466,12.378048780487806,-0.9677734375,0.4228515625,0.5966796875
506,1.356,IMU2,3.414634146341464,5.670731707317073,11.890243902439025,-0.9775390625,0.3984375,0.5576171875
507,1.366,IMU0,2.1951219512195124,6.52439024390244,13.231707317073171,-0.88671875,0.3447265625,0.5830078125
508,1.366,IMU1,4.75609756097561,4.817073170731708,13.353658536585368,-0.888671875,0.34765625,0.58984375
509,1.366,IMU2,3.5975609756097566,6.829268292682928,12.926829268292684,-0.90234375,0.3466796875,0.5859375
510,1.376,IMU0,4.51219512195122,11.707317073170733,16.463414634146343,-0.8837890625,0.41015625,0.5419921875
511,1.376,IMU1,6.402439024390245,10.426829268292684,16.585365853658537,-0.873046875,0.42578125,0.5732421875
512,1.376,IMU2,5.487804878048781,12.01219512195122,16.34146341463415,-0.904296875,0.3935546875,0.544921875
513,1.386,IMU0,3.4756097560975614,12.195121951219512,16.951219512195124,-0.9130859375,0.3525390625,0.5517578125
514,1.386,IMU1,6.402439024390245,11.036585365853659,17.25609756097561,-0.9169921875,0.328125,0.578125
515,1.386,IMU2,5.060975609756098,12.621951219512196,16.585365853658537,-0.9306640625,0.3828125,0.5458984375
516,1.396,IMU0,1.0975609756097562,7.8048780487804885,14.26829268292683,-0.9794921875,0.322265625,0.5224609375
517,1.396,IMU1,3.414634146341464,7.01219512195122,14.51219512195122,-0.9755859375,0.34375,0.541015625
518,1.396,IMU2,2.682926829268293,8.109756097560977,13.902439024390246,-0.986328125,0.310546875,0.537109375
519,1.406,IMU0,1.7682926829268295,7.317073170731708,13.29268292682927,-0.9814453125,0.373046875,0.556640625
520,1.406,IMU1,3.5975609756097566,6.646341463414635,13.536585365853659,-0.9765625,0.361328125,0.5859375
521,1.406,IMU2,3.048780487804878,7.987804878048781,12.926829268292684,-0.994140625,0.3720703125,0.568359375
522,1.416,IMU0,3.353658536585366,7.134146341463415,18.170731707317074,-0.9921875,0.28125,0.564453125
523,1.416,IMU1,6.097560975609756,6.219512195121951,18.04878048780488,-0.982421875,0.2734375,0.5849609375
524,1.416,IMU2,4.695121951219512,7.926829268292684,18.10975609756098,-0.9794921875,0.2890625,0.5888671875
525,1.426,IMU0,6.097560975609756,3.780487804878049,25.365853658536587,-0.9404296875,0.3095703125,0.5458984375
526,1.426,IMU1,8.231707317073171,2.8658536585365857,25.426829268292686,-0.9375,0.3154296875,0.55859375
527,1.426,IMU2,7.01219512195122,3.414634146341464,25.0609756097561,-0.955078125,0.2822265625,0.5419921875
528,1.436,IMU0,5.426829268292684,1.2195121951219514,22.5609756097561,-0.82421875,0.3310546875,0.5283203125
529,1.436,IMU1,8.475609756097562,0.48780487804878053,22.80487804878049,-0.833984375,0.3095703125,0.55859375
530,1.436,IMU2,6.158536585365854,1.4634146341463417,21.951219512195124,-0.8564453125,0.3388671875,0.5556640625
531,1.446,IMU0,2.439024390243903,3.2926829268292686,13.963414634146343,-0.806640625,0.310546875,0.5205078125
532,1.446,IMU1,5.548780487804878,2.1341463414634148,14.26829268292683,-0.818359375,0.3115234375,0.5439453125
533,1.446,IMU2,3.780487804878049,3.048780487804878,13.231707317073171,-0.82421875,0.3154296875,0.533203125
534,1.456,IMU0,2.439024390243903,5.365853658536586,10.121951219512196,-0.8544921875,0.3154296875,0.58203125
535,1.456,IMU1,4.878048780487806,4.51219512195122,10.30487804878049,-0.8505859375,0.3076171875,0.5712890625
536,1.456,IMU2,3.2926829268292686,5.731707317073171,9.939024390243903,-0.8740234375,0.3017578125,0.5703125
537,1.466,IMU0,3.1707317073170733,6.097560975609756,12.80487804878049,-0.8828125,0.2451171875,0.58203125
538,1.466,IMU1,5.487804878048781,4.939024390243903,12.74390243902439,-0.8740234375,0.25390625,0.5771484375
539,1.466,IMU2,4.329268292682928,6.219512195121951,12.987804878048781,-0.880859375,0.2509765625,0.5625
540,1.476,IMU0,5.7926829268292686,4.329268292682928,20.79268292682927,-0.8759765625,0.3037109375,0.5703125
541,1.476,IMU1,8.475609756097562,3.1707317073170733,20.853658536585368,-0.87109375,0.3154296875,0.607421875
542,1.476,IMU2,7.134146341463415,4.024390243902439,20.731707317073173,-0.8876953125,0.271484375,0.5634765625
543,1.486,IMU0,8.78048780487805,3.353658536585366,25.670731707317074,-0.802734375,0.28515625,0.4912109375
544,1.486,IMU1,11.951219512195124,2.0121951219512195,26.09756097560976,-0.8017578125,0.265625,0.53125
545,1.486,IMU2,10.121951219512196,3.2926829268292686,25.670731707317074,-0.8076171875,0.318359375,0.51171875
546,1.496,IMU0,5.914634146341464,1.2804878048780488,20.975609756097562,-0.74609375,0.2724609375,0.466796875
547,1.496,IMU1,8.597560975609756,-0.426829268292683,20.0,-0.7607421875,0.291015625,0.51171875
548,1.496,IMU2,7.621951219512196,0.6707317073170732,19.75609756097561,-0.7783203125,0.275390625,0.5107421875
549,1.506,IMU0,4.878048780487806,0.6707317073170732,13.536585365853659,-0.775390625,0.3134765625,0.482421875
550,1.506,IMU1,8.170731707317074,-0.426829268292683,13.78048780487805,-0.771484375,0.2568359375,0.4970703125
551,1.506,IMU2,6.646341463414635,0.426829268292683,13.29268292682927,-0.7822265625,0.2607421875,0.49609375
552,1.516,IMU0,7.378048780487806,-0.30487804878048785,19.207317073170735,-0.6044921875,0.314453125,0.40625
553,1.516,IMU1,10.609756097560977,-1.4634146341463417,19.634146341463417,-0.6123046875,0.2861328125,0.4189453125
554,1.516,IMU2,9.390243902439025,0.5487804878048781,19.02439024390244,-0.6064453125,0.3408203125,0.416015625
555,1.526,IMU0,7.621951219512196,-1.0975609756097562,18.53658536585366,-0.4521484375,0.25390625,0.404296875
556,1.526,IMU1,10.914634146341465,-2.8658536585365857,17.98780487804878,-0.4501953125,0.28515625,0.388671875
557,1.526,IMU2,9.451219512195122,-0.9756097560975611,17.621951219512198,-0.4775390625,0.267578125,0.3974609375
558,1.536,IMU0,8.048780487804878,-1.5853658536585367,16.646341463414636,-0.3271484375,0.3798828125,0.357421875
559,1.536,IMU1,11.28048780487805,-2.3170731707317076,16.70731707317073,-0.34375,0.3427734375,0.349609375
560,1.536,IMU2,10.24390243902439,-1.0365853658536586,16.097560975609756,-0.361328125,0.3330078125,0.345703125
561,1.546,IMU0,4.51219512195122,1.0365853658536586,3.9024390243902443,-0.369140625,0.396484375,0.3515625
562,1.546,IMU1,6.890243902439025,0.9756097560975611,3.963414634146342,-0.3798828125,0.3974609375,0.3720703125
563,1.546,IMU2,5.7926829268292686,2.25609756097561,3.353658536585366,-0.390625,0.396484375,0.349609375
564,1.556,IMU0,0.9756097560975611,-0.7926829268292683,0.1829268292682927,-0.482421875,0.279296875,0.3671875
565,1.556,IMU1,2.439024390243903,-1.4634146341463417,0.0,-0.4736328125,0.3271484375,0.37890625
566,1.556,IMU2,2.1341463414634148,0.0,-0.6097560975609757,-0.4892578125,0.3203125,0.3828125
567,1.566,IMU0,2.0121951219512195,-0.6707317073170732,2.1341463414634148,-0.5439453125,0.3349609375,0.349609375
568,1.566,IMU1,3.9024390243902443,-0.7926829268292683,2.378048780487805,-0.5546875,0.3193359375,0.3369140625
569,1.566,IMU2,4.329268292682928,1.0975609756097562,1.6463414634146343,-0.56640625,0.314453125,0.3330078125
570,1.576,IMU0,3.231707317073171,0.7926829268292683,1.524390243902439,-0.658203125,0.3330078125,0.37890625
571,1.576,IMU1,4.878048780487806,-0.30487804878048785,2.073170731707317,-0.6826171875,0.3134765625,0.3701171875
572,1.576,IMU2,5.365853658536586,1.5853658536585367,1.402439024390244,-0.689453125,0.310546875,0.34375
573,1.586,IMU0,0.7926829268292683,-2.5,0.06097560975609757,-0.748046875,0.314453125,0.359375
574,1.586,IMU1,2.5609756097560976,-3.048780487804878,0.0,-0.7548828125,0.3232421875,0.3759765625
575,1.586,IMU2,2.6219512195121952,-1.5853658536585367,-0.6707317073170732,-0.76953125,0.3203125,0.3740234375
576,1.596,IMU0,1.4634146341463417,-1.402439024390244,0.3658536585365854,-0.7919921875,0.3544921875,0.3984375
577,1.596,IMU1,3.658536585365854,-2.1951219512195124,0.30487804878048785,-0.80078125,0.345703125,0.396484375
578,1.596,IMU2,2.6219512195121952,-0.6707317073170732,-0.24390243902439027,-0.81640625,0.341796875,0.3955078125
579,1.606,IMU0,0.48780487804878053,-0.1829268292682927,-1.1585365853658538,-0.8466796875,0.3349609375,0.41796875
580,1.606,IMU1,2.804878048780488,-1.402439024390244,-0.426829268292683,-0.833984375,0.3359375,0.431640625
581,1.606,IMU2,1.6463414634146343,0.06097560975609757,-0.9146341463414634,-0.8408203125,0.3271484375,0.4208984375
582,1.616,IMU0,0.48780487804878053,4.878048780487806,2.7439024390243905,-0.5859375,0.28515625,0.4013671875
583,1.616,IMU1,1.8902439024390245,5.121951219512195,2.987804878048781,-0.6044921875,0.314453125,0.396484375
584,1.616,IMU2,1.9512195121951221,7.134146341463415,2.3170731707317076,-0.6201171875,0.310546875,0.3837890625
585,1.626,IMU0,0.9756097560975611,10.121951219512196,0.9756097560975611,-0.7802734375,0.2421875,0.3955078125
586,1.626,IMU1,2.3170731707317076,8.475609756097562,1.707317073170732,-0.7705078125,0.2734375,0.3798828125
587,1.626,IMU2,2.9268292682926833,9.451219512195122,1.0365853658536586,-0.779296875,0.2763671875,0.349609375
588,1.636,IMU0,-0.3658536585365854,4.939024390243903,-0.9146341463414634,-0.9638671875,0.33203125,0.4267578125
589,1.636,IMU1,0.1829268292682927,3.536585365853659,-1.2195121951219514,-0.9736328125,0.2919921875,0.431640625
590,1.636,IMU2,-0.1829268292682927,3.8414634146341466,-2.073170731707317,-0.98828125,0.296875,0.44140625
591,1.646,IMU0,1.2195121951219514,-2.682926829268293,1.5853658536585367,-0.966796875,0.3466796875,0.4140625
592,1.646,IMU1,3.5975609756097566,-4.085365853658537,2.25609756097561,-0.9794921875,0.2919921875,0.431640625
593,1.646,IMU2,2.25609756097561,-3.658536585365854,1.5853658536585367,-0.994140625,0.2783203125,0.4228515625
594,1.656,IMU0,-1.9512195121951221,-7.195121951219513,0.6097560975609757,-0.923828125,0.2294921875,0.47265625
595,1.656,IMU1,0.7317073170731708,-7.682926829268293,1.2195121951219514,-0.923828125,0.2529296875,0.4658203125
596,1.656,IMU2,0.426829268292683,-7.073170731707318,0.6097560975609757,-0.9326171875,0.25,0.43359375
597,1.666,IMU0,-1.7682926829268295,-7.743902439024391,2.25609756097561,-0.99609375,0.2431640625,0.4345703125
598,1.666,IMU1,0.30487804878048785,-8.353658536585366,2.0121951219512195,-0.998046875,0.27734375,0.466796875
599,1.666,IMU2,0.06097560975609757,-7.01219512195122,1.1585365853658538,-1.021484375,0.2822265625,0.4423828125
600,1.676,IMU0,-2.9268292682926833,-7.25609756097561,-0.7926829268292683,-1.0703125,0.2744140625,0.470703125
601,1.676,IMU1,-0.30487804878048785,-8.963414634146343,-0.853658536585366,-1.0712890625,0.2470703125,0.4794921875
602,1.676,IMU2,-1.0975609756097562,-7.865853658536586,-1.5853658536585367,-1.0947265625,0.2626953125,0.4853515625
603,1.686,IMU0,-5.609756097560976,-4.939024390243903,-7.500000000000001,-1.0419921875,0.2548828125,0.5087890625
604,1.686,IMU1,-3.7195121951219514,-6.52439024390244,-7.378048780487806,-1.0419921875,0.224609375,0.4873046875
605,1.686,IMU2,-4.085365853658537,-4.939024390243903,-7.926829268292684,-1.052734375,0.216796875,0.4912109375
606,1.696,IMU0,-3.2926829268292686,-0.12195121951219513,-3.231707317073171,-1.111328125,0.2607421875,0.5224609375
607,1.696,IMU1,-1.2804878048780488,-1.2195121951219514,-3.1097560975609757,-1.1025390625,0.296875,0.5302734375
608,1.696,IMU2,-2.7439024390243905,-0.6097560975609757,-3.5975609756097566,-1.1240234375,0.2958984375,0.5302734375
609,1.706,IMU0,-5.121951219512195,1.7682926829268295,-3.7195121951219514,-1.0244140625,0.271484375,0.5068359375
610,1.706,IMU1,-2.0121951219512195,0.5487804878048781,-3.5975609756097566,-1.0302734375,0.2607421875,0.4931640625
611,1.706,IMU2,-4.390243902439025,1.5853658536585367,-4.146341463414634,-1.03515625,0.2666015625,0.4970703125
612,1.716,IMU0,-0.426829268292683,2.8658536585365857,5.487804878048781,-0.935546875,0.2685546875,0.423828125
613,1.716,IMU1,3.1707317073170733,1.402439024390244,5.182926829268293,-0.9228515625,0.2783203125,0.44921875
614,1.716,IMU2,0.12195121951219513,2.9268292682926833,5.2439024390243905,-0.9111328125,0.263671875,0.423828125
615,1.726,IMU0,4.024390243902439,4.878048780487806,16.82926829268293,-0.83203125,0.3056640625,0.3583984375
616,1.726,IMU1,7.439024390243903,4.024390243902439,16.646341463414636,-0.8232421875,0.3134765625,0.3623046875
617,1.726,IMU2,4.51219512195122,5.2439024390243905,16.52439024390244,-0.8359375,0.29296875,0.3427734375
618,1.736,IMU0,7.195121951219513,-3.4756097560975614,26.09756097560976,-0.6171875,0.3291015625,0.2314453125
619,1.736,IMU1,10.30487804878049,-4.451219512195122,25.975609756097562,-0.6201171875,0.3193359375,0.2421875
620,1.736,IMU2,8.414634146341465,-2.987804878048781,25.731707317073173,-0.6220703125,0.3310546875,0.2275390625
621,1.746,IMU0,7.378048780487806,-10.426829268292684,25.365853658536587,-0.552734375,0.328125,0.2041015625
622,1.746,IMU1,11.219512195121952,-10.792682926829269,25.426829268292686,-0.56640625,0.3154296875,0.197265625
623,1.746,IMU2,8.597560975609756,-10.426829268292684,24.878048780487806,-0.576171875,0.3291015625,0.2001953125
624,1.756,IMU0,5.853658536585367,-16.158536585365855,19.81707317073171,-0.42578125,0.275390625,0.14453125
625,1.756,IMU1,9.02439024390244,-16.28048780487805,19.878048780487806,-0.4345703125,0.2880859375,0.1455078125
626,1.756,IMU2,7.317073170731708,-15.182926829268293,19.26829268292683,-0.4423828125,0.2734375,0.15234375
627,1.766,IMU0,4.75609756097561,-19.26829268292683,17.926829268292686,-0.326171875,0.2578125,0.0712890625
628,1.766,IMU1,8.658536585365855,-19.512195121951223,17.98780487804878,-0.3369140625,0.279296875,0.0947265625
629,1.766,IMU2,6.219512195121951,-18.53658536585366,17.31707317073171,-0.3447265625,0.25390625,0.064453125
630,1.776,IMU0,6.219512195121951,-16.158536585365855,17.195121951219512,-0.27734375,0.2568359375,0.05078125
631,1.776,IMU1,8.963414634146343,-16.219512195121954,17.378048780487806,-0.2802734375,0.255859375,0.0791015625
632,1.776,IMU2,7.8048780487804885,-14.878048780487806,16.82926829268293,-0.2900390625,0.271484375,0.0517578125
633,1.786,IMU0,6.341463414634147,-13.963414634146343,19.695121951219512,-0.283203125,0.193359375,0.03515625
634,1.786,IMU1,9.26829268292683,-13.963414634146343,19.695121951219512,-0.27734375,0.193359375,0.0537109375
635,1.786,IMU2,8.048780487804878,-12.74390243902439,19.390243902439025,-0.2802734375,0.216796875,0.037109375
636,1.796,IMU0,7.195121951219513,-10.975609756097562,21.03658536585366,-0.31640625,0.23046875,0.013671875
637,1.796,IMU1,10.365853658536587,-11.036585365853659,21.158536585365855,-0.31640625,0.2470703125,0.03125
638,1.796,IMU2,8.536585365853659,-9.085365853658537,20.60975609756098,-0.33203125,0.2216796875,0.0263671875
639,1.806,IMU0,7.073170731707318,-11.28048780487805,18.414634146341466,-0.361328125,0.263671875,0.005859375
640,1.806,IMU1,9.939024390243903,-11.890243902439025,18.597560975609756,-0.3623046875,0.2568359375,0.03515625
641,1.806,IMU2,8.231707317073171,-10.30487804878049,17.865853658536587,-0.3837890625,0.279296875,0.017578125
642,1.816,IMU0,6.890243902439025,-11.951219512195124,16.463414634146343,-0.3603515625,0.1884765625,0.0185546875
643,1.816,IMU1,10.121951219512196,-13.231707317073171,16.70731707317073,-0.357421875,0.205078125,0.052734375
644,1.816,IMU2,7.621951219512196,-11.28048780487805,16.158536585365855,-0.373046875,0.2001953125,0.0341796875
645,1.826,IMU0,6.7682926829268295,-11.707317073170733,18.719512195121954,-0.3212890625,0.2373046875,0.013671875
646,1.826,IMU1,10.121951219512196,-13.231707317073171,16.70731707317073,-0.357421875,0.205078125,0.052734375
647,1.826,IMU2,8.048780487804878,-11.036585365853659,18.414634146341466,-0.3515625,0.2119140625,0.0224609375
648,1.836,IMU0,7.865853658536586,-11.890243902439025,21.463414634146343,-0.326171875,0.173828125,0.0634765625
649,1.836,IMU1,11.829268292682928,-13.29268292682927,21.402439024390247,-0.333984375,0.166015625,0.0888671875
650,1.836,IMU2,8.719512195121952,-12.01219512195122,21.28048780487805,-0.33203125,0.2041015625,0.052734375
651,1.846,IMU0,9.390243902439025,-14.146341463414636,22.80487804878049,-0.26953125,0.203125,0.0224609375
652,1.846,IMU1,12.439024390243903,-15.365853658536587,22.98780487804878,-0.275390625,0.2236328125,0.0126953125
653,1.846,IMU2,10.792682926829269,-14.390243902439027,22.31707317073171,-0.29296875,0.162109375,0.001953125
654,1.856,IMU0,10.0,-18.902439024390244,19.634146341463417,-0.0947265625,0.1611328125,-0.0546875
655,1.856,IMU1,12.865853658536587,-19.75609756097561,19.878048780487806,-0.1142578125,0.1552734375,-0.0478515625
656,1.856,IMU2,11.829268292682928,-18.353658536585368,19.02439024390244,-0.107421875,0.1806640625,-0.0439453125
657,1.866,IMU0,8.475609756097562,-20.914634146341466,14.02439024390244,0.072265625,0.2001953125,-0.052734375
658,1.866,IMU1,10.975609756097562,-21.646341463414636,14.26829268292683,0.0546875,0.201171875,-0.05078125
659,1.866,IMU2,10.121951219512196,-20.365853658536587,13.414634146341465,0.048828125,0.1767578125,-0.0546875
660,1.876,IMU0,8.353658536585366,-20.853658536585368,9.634146341463415,0.1025390625,0.140625,-0.1474609375
661,1.876,IMU1,11.158536585365855,-22.073170731707318,9.939024390243903,0.091796875,0.1669921875,-0.1337890625
662,1.876,IMU2,9.939024390243903,-20.0609756097561,9.02439024390244,0.08203125,0.1806640625,-0.1298828125
663,1.886,IMU0,6.036585365853659,-22.865853658536587,7.500000000000001,0.1708984375,0.0712890625,-0.1640625
664,1.886,IMU1,9.085365853658537,-23.902439024390247,7.621951219512196,0.1611328125,0.0693359375,-0.1396484375
665,1.886,IMU2,7.439024390243903,-23.04878048780488,7.25609756097561,0.185546875,0.14453125,-0.14453125
666,1.896,IMU0,5.609756097560976,-26.03658536585366,8.170731707317074,0.2451171875,0.1484375,-0.1904296875
667,1.896,IMU1,9.329268292682928,-27.25609756097561,8.231707317073171,0.2294921875,0.12890625,-0.1787109375
668,1.896,IMU2,6.341463414634147,-26.28048780487805,7.8048780487804885,0.2119140625,0.083984375,-0.1884765625
669,1.906,IMU0,3.048780487804878,-29.634146341463417,7.682926829268293,0.32421875,0.2060546875,-0.2109375
670,1.906,IMU1,6.707317073170732,-31.09756097560976,7.8048780487804885,0.3056640625,0.203125,-0.203125
671,1.906,IMU2,3.414634146341464,-29.32926829268293,7.134146341463415,0.2802734375,0.1484375,-0.19921875
672,1.916,IMU0,0.7317073170731708,-31.76829268292683,5.853658536585367,0.365234375,0.15234375,-0.2080078125
673,1.916,IMU1,3.963414634146342,-32.926829268292686,5.914634146341464,0.3642578125,0.1826171875,-0.1923828125
674,1.916,IMU2,1.524390243902439,-31.707317073170735,5.426829268292684,0.3623046875,0.1689453125,-0.2060546875
675,1.926,IMU0,-0.12195121951219513,-34.390243902439025,5.914634146341464,0.4052734375,0.0986328125,-0.2412109375
676,1.926,IMU1,2.7439024390243905,-35.79268292682927,6.036585365853659,0.4013671875,0.146484375,-0.2333984375
677,1.926,IMU2,1.0975609756097562,-33.71951219512196,5.3048780487804885,0.39453125,0.140625,-0.2578125
678,1.936,IMU0,-2.987804878048781,-36.646341463414636,4.695121951219512,0.3837890625,0.013671875,-0.2392578125
679,1.936,IMU1,0.48780487804878053,-38.35365853658537,4.695121951219512,0.3857421875,0.0517578125,-0.2275390625
680,1.936,IMU2,-1.402439024390244,-36.463414634146346,4.085365853658537,0.380859375,0.0517578125,-0.2314453125
681,1.946,IMU0,-2.9268292682926833,-36.09756097560976,6.829268292682928,0.4384765625,-0.0537109375,-0.21484375
682,1.946,IMU1,0.426829268292683,-37.743902439024396,6.829268292682928,0.4384765625,-0.01953125,-0.2158203125
683,1.946,IMU2,-1.402439024390244,-36.34146341463415,6.2804878048780495,0.4296875,-0.0244140625,-0.208984375
684,1.956,IMU0,-1.5853658536585367,-34.63414634146342,9.146341463414634,0.474609375,-0.0693359375,-0.2275390625
685,1.956,IMU1,1.524390243902439,-36.09756097560976,9.146341463414634,0.4716796875,-0.0361328125,-0.220703125
686,1.956,IMU2,-0.7317073170731708,-35.0609756097561,8.597560975609756,0.4609375,-0.0478515625,-0.2236328125
687,1.966,IMU0,1.0975609756097562,-31.52439024390244,10.487804878048781,0.4638671875,-0.0830078125,-0.2177734375
688,1.966,IMU1,4.207317073170732,-33.04878048780488,10.365853658536587,0.470703125,-0.052734375,-0.208984375
689,1.966,IMU2,2.987804878048781,-31.09756097560976,10.426829268292684,0.4697265625,-0.0654296875,-0.21875
690,1.976,IMU0,5.365853658536586,-25.54878048780488,14.878048780487806,0.3828125,-0.056640625,-0.142578125
691,1.976,IMU1,8.109756097560977,-26.89024390243903,14.878048780487806,0.380859375,-0.048828125,-0.1552734375
692,1.976,IMU2,6.52439024390244,-25.731707317073173,14.390243902439027,0.375,-0.0654296875,-0.1796875
693,1.986,IMU0,7.195121951219513,-24.26829268292683,12.256097560975611,0.3662109375,-0.0380859375,-0.2333984375
694,1.986,IMU1,10.121951219512196,-25.48780487804878,12.682926829268293,0.345703125,-0.05078125,-0.2109375
695,1.986,IMU2,8.109756097560977,-24.02439024390244,11.219512195121952,0.326171875,-0.0654296875,-0.2060546875
696,1.996,IMU0,6.707317073170732,-22.134146341463417,5.426829268292684,0.2734375,-0.11328125,-0.16796875
697,1.996,IMU1,9.451219512195122,-23.414634146341466,5.670731707317073,0.263671875,-0.1240234375,-0.1474609375
698,1.996,IMU2,7.926829268292684,-21.951219512195124,5.121951219512195,0.25,-0.1357421875,-0.15625
699,2.006,IMU0,6.158536585365854,-18.658536585365855,4.573170731707317,0.2900390625,-0.142578125,-0.203125
700,2.006,IMU1,8.78048780487805,-20.0609756097561,4.817073170731708,0.2900390625,-0.1123046875,-0.208984375
701,2.006,IMU2,7.25609756097561,-18.597560975609756,4.2682926829268295,0.27734375,-0.130859375,-0.228515625
702,2.016,IMU0,6.585365853658537,-16.463414634146343,6.829268292682928,0.294921875,-0.02734375,-0.208984375
703,2.016,IMU1,9.02439024390244,-17.5609756097561,7.01219512195122,0.2919921875,-0.00390625,-0.2041015625
704,2.016,IMU2,8.109756097560977,-16.402439024390244,6.402439024390245,0.28515625,-0.0205078125,-0.21484375
705,2.026,IMU0,8.231707317073171,-10.182926829268293,10.121951219512196,0.2578125,-0.03125,-0.1923828125
706,2.026,IMU1,10.914634146341465,-11.097560975609756,10.182926829268293,0.2509765625,-0.0537109375,-0.1875
707,2.026,IMU2,9.695121951219512,-9.756097560975611,9.695121951219512,0.2490234375,-0.052734375,-0.1943359375
708,2.036,IMU0,7.500000000000001,-7.500000000000001,10.548780487804878,0.205078125,-0.138671875,-0.17578125
709,2.036,IMU1,9.939024390243903,-8.353658536585366,10.792682926829269,0.201171875,-0.12890625,-0.1572265625
710,2.036,IMU2,8.902439024390244,-6.829268292682928,10.24390243902439,0.19140625,-0.1435546875,-0.1552734375
711,2.046,IMU0,8.231707317073171,-5.365853658536586,12.256097560975611,0.2705078125,-0.03125,-0.1650390625
712,2.046,IMU1,10.853658536585368,-5.731707317073171,12.682926829268293,0.2685546875,0.00390625,-0.1572265625
713,2.046,IMU2,9.695121951219512,-5.182926829268293,11.890243902439025,0.2607421875,-0.0244140625,-0.162109375
714,2.056,IMU0,9.878048780487806,-1.6463414634146343,16.585365853658537,0.3447265625,0.0029296875,-0.19140625
715,2.056,IMU1,12.317073170731708,-2.073170731707317,17.195121951219512,0.333984375,-0.0234375,-0.1875
716,2.056,IMU2,11.463414634146343,-1.1585365853658538,16.158536585365855,0.3388671875,-0.009765625,-0.2021484375
717,2.066,IMU0,10.487804878048781,2.8658536585365857,15.609756097560977,0.2939453125,-0.111328125,-0.1533203125
718,2.066,IMU1,12.439024390243903,1.402439024390244,15.30487804878049,0.3037109375,-0.0234375,-0.1396484375
719,2.066,IMU2,11.890243902439025,3.2926829268292686,15.365853658536587,0.2685546875,-0.1142578125,-0.138671875
720,2.076,IMU0,11.219512195121952,5.731707317073171,13.902439024390246,0.3037109375,0.0634765625,-0.1240234375
721,2.076,IMU1,13.78048780487805,5.487804878048781,13.963414634146343,0.26953125,-0.0341796875,-0.1142578125
722,2.076,IMU2,12.439024390243903,5.853658536585367,13.719512195121952,0.2802734375,0.0625,-0.1279296875
723,2.086,IMU0,10.426829268292684,6.158536585365854,10.670731707317074,0.2666015625,0.0947265625,-0.0947265625
724,2.086,IMU1,12.621951219512196,5.182926829268293,11.219512195121952,0.2666015625,0.146484375,-0.1064453125
725,2.086,IMU2,11.52439024390244,6.219512195121951,10.426829268292684,0.2607421875,0.091796875,-0.1005859375
726,2.096,IMU0,10.609756097560977,3.963414634146342,10.609756097560977,0.203125,0.0185546875,-0.0888671875
727,2.096,IMU1,12.682926829268293,2.3170731707317076,10.731707317073171,0.2158203125,0.091796875,-0.0966796875
728,2.096,IMU2,11.76829268292683,4.024390243902439,10.365853658536587,0.1845703125,0.0166015625,-0.060546875
729,2.106,IMU0,10.853658536585368,-1.9512195121951221,13.04878048780488,0.197265625,0.060546875,-0.080078125
730,2.106,IMU1,13.414634146341465,-3.780487804878049,13.719512195121952,0.1943359375,0.0595703125,-0.0966796875
731,2.106,IMU2,12.073170731707318,-1.707317073170732,12.80487804878049,0.19140625,0.0556640625,-0.0625
732,2.116,IMU0,11.76829268292683,-5.975609756097562,17.743902439024392,0.2314453125,0.1103515625,-0.0947265625
733,2.116,IMU1,14.26829268292683,-6.646341463414635,18.29268292682927,0.2177734375,0.1103515625,-0.0908203125
734,2.116,IMU2,12.926829268292684,-5.548780487804878,17.378048780487806,0.2255859375,0.109375,-0.083984375
735,2.126,IMU0,7.987804878048781,-9.085365853658537,16.82926829268293,0.2080078125,0.14453125,-0.04296875
736,2.126,IMU1,10.426829268292684,-10.24390243902439,16.34146341463415,0.185546875,0.154296875,-0.0390625
737,2.126,IMU2,9.390243902439025,-8.841463414634147,16.402439024390244,0.173828125,0.146484375,-0.033203125
738,2.136,IMU0,6.036585365853659,-5.670731707317073,9.451219512195122,0.1875,0.1298828125,0.0224609375
739,2.136,IMU1,8.475609756097562,-6.7682926829268295,8.963414634146343,0.181640625,0.19140625,0.03515625
740,2.136,IMU2,7.317073170731708,-5.121951219512195,9.02439024390244,0.15234375,0.138671875,0.009765625
741,2.146,IMU0,3.963414634146342,-0.5487804878048781,3.7195121951219514,0.0830078125,0.1103515625,0.0537109375
742,2.146,IMU1,6.2804878048780495,-2.0121951219512195,3.963414634146342,0.0751953125,0.1630859375,0.0947265625
743,2.146,IMU2,5.121951219512195,-0.24390243902439027,3.414634146341464,0.06640625,0.115234375,0.0615234375
744,2.156,IMU0,2.7439024390243905,1.7682926829268295,2.682926829268293,-0.064453125,0.087890625,0.1015625
745,2.156,IMU1,5.3048780487804885,0.3658536585365854,2.8658536585365857,-0.07421875,0.1162109375,0.119140625
746,2.156,IMU2,4.024390243902439,2.073170731707317,2.3170731707317076,-0.0810546875,0.0830078125,0.1181640625
747,2.166,IMU0,4.390243902439025,3.048780487804878,6.341463414634147,-0.2197265625,0.1201171875,0.1474609375
748,2.166,IMU1,7.073170731707318,1.402439024390244,6.829268292682928,-0.2314453125,0.1376953125,0.1650390625
749,2.166,IMU2,5.609756097560976,2.987804878048781,6.036585365853659,-0.2333984375,0.111328125,0.1689453125
750,2.176,IMU0,3.963414634146342,2.5609756097560976,8.414634146341465,-0.2421875,0.12890625,0.2119140625
751,2.176,IMU1,6.158536585365854,0.9756097560975611,8.353658536585366,-0.2587890625,0.134765625,0.2373046875
752,2.176,IMU2,5.121951219512195,2.7439024390243905,7.987804878048781,-0.271484375,0.119140625,0.2353515625
753,2.186,IMU0,3.1707317073170733,4.085365853658537,9.085365853658537,-0.3193359375,0.1435546875,0.2919921875
754,2.186,IMU1,5.365853658536586,2.5609756097560976,9.329268292682928,-0.3212890625,0.134765625,0.3193359375
755,2.186,IMU2,4.451219512195122,4.085365853658537,8.78048780487805,-0.3359375,0.1337890625,0.287109375
756,2.196,IMU0,1.6463414634146343,2.987804878048781,7.560975609756098,-0.3515625,0.1328125,0.2822265625
757,2.196,IMU1,4.085365853658537,1.524390243902439,7.378048780487806,-0.3466796875,0.140625,0.287109375
758,2.196,IMU2,2.987804878048781,2.8658536585365857,7.073170731707318,-0.3701171875,0.1171875,0.2734375
759,2.206,IMU0,0.6707317073170732,0.48780487804878053,6.036585365853659,-0.3369140625,0.109375,0.2978515625
760,2.206,IMU1,3.414634146341464,-0.853658536585366,6.036585365853659,-0.33203125,0.140625,0.306640625
761,2.206,IMU2,2.0121951219512195,0.6707317073170732,5.548780487804878,-0.3515625,0.09375,0.2998046875
762,2.216,IMU0,0.0,-0.9146341463414634,4.573170731707317,-0.3046875,0.0478515625,0.28515625
763,2.216,IMU1,2.804878048780488,-2.25609756097561,4.75609756097561,-0.27734375,0.1015625,0.3115234375
764,2.216,IMU2,1.524390243902439,-0.9146341463414634,4.085365853658537,-0.30859375,0.056640625,0.29296875
765,2.226,IMU0,2.439024390243903,1.1585365853658538,8.963414634146343,-0.3408203125,0.0712890625,0.3154296875
766,2.226,IMU1,5.121951219512195,0.0,9.146341463414634,-0.32421875,0.13671875,0.3115234375
767,2.226,IMU2,4.085365853658537,1.3414634146341464,8.353658536585366,-0.3369140625,0.0859375,0.3232421875
768,2.236,IMU0,3.5975609756097566,2.1341463414634148,8.963414634146343,-0.453125,0.1083984375,0.3564453125
769,2.236,IMU1,7.073170731707318,0.9146341463414634,9.085365853658537,-0.453125,0.1845703125,0.3935546875
770,2.236,IMU2,4.878048780487806,2.439024390243903,8.536585365853659,-0.462890625,0.1494140625,0.3564453125
771,2.246,IMU0,5.060975609756098,1.9512195121951221,9.817073170731708,-0.623046875,0.181640625,0.3994140625
772,2.246,IMU1,7.743902439024391,0.7926829268292683,9.939024390243903,-0.6064453125,0.1875,0.3916015625
773,2.246,IMU2,5.914634146341464,2.1341463414634148,9.26829268292683,-0.603515625,0.1796875,0.3857421875
774,2.256,IMU0,6.158536585365854,-1.2804878048780488,12.500000000000002,-0.638671875,0.19921875,0.3623046875
775,2.256,IMU1,8.536585365853659,-2.6219512195121952,12.682926829268293,-0.66015625,0.193359375,0.38671875
776,2.256,IMU2,6.890243902439025,-1.8902439024390245,12.134146341463415,-0.662109375,0.2060546875,0.3447265625
777,2.266,IMU0,4.817073170731708,-2.0121951219512195,10.121951219512196,-0.6787109375,0.15625,0.408203125
778,2.266,IMU1,8.048780487804878,-2.8658536585365857,10.426829268292684,-0.6845703125,0.171875,0.4296875
779,2.266,IMU2,6.097560975609756,-1.5853658536585367,10.30487804878049,-0.701171875,0.2109375,0.421875
780,2.276,IMU0,5.487804878048781,1.2804878048780488,6.585365853658537,-0.6826171875,0.2607421875,0.396484375
781,2.276,IMU1,8.475609756097562,0.24390243902439027,6.829268292682928,-0.6943359375,0.251953125,0.4208984375
782,2.276,IMU2,6.646341463414635,1.829268292682927,6.52439024390244,-0.7119140625,0.2392578125,0.4111328125
783,2.286,IMU0,3.231707317073171,1.5853658536585367,0.9146341463414634,-0.6767578125,0.240234375,0.3818359375
784,2.286,IMU1,6.646341463414635,0.48780487804878053,0.9756097560975611,-0.6767578125,0.2158203125,0.388671875
785,2.286,IMU2,4.085365853658537,1.8902439024390245,0.5487804878048781,-0.6904296875,0.193359375,0.369140625
786,2.296,IMU0,1.0365853658536586,0.12195121951219513,-1.3414634146341464,-0.6787109375,0.296875,0.3466796875
787,2.296,IMU1,3.7195121951219514,-1.3414634146341464,-0.9756097560975611,-0.6875,0.2900390625,0.3564453125
788,2.296,IMU2,1.9512195121951221,0.12195121951219513,-1.2804878048780488,-0.7138671875,0.2685546875,0.3525390625
789,2.306,IMU0,0.9756097560975611,-1.1585365853658538,-1.9512195121951221,-0.6669921875,0.3193359375,0.35546875
790,2.306,IMU1,3.2926829268292686,-2.3170731707317076,-1.5853658536585367,-0.6708984375,0.322265625,0.3486328125
791,2.306,IMU2,2.439024390243903,-0.9756097560975611,-2.073170731707317,-0.681640625,0.3212890625,0.345703125
792,2.316,IMU0,0.7317073170731708,-2.682926829268293,-4.2682926829268295,-0.662109375,0.2333984375,0.326171875
793,2.316,IMU1,2.987804878048781,-3.780487804878049,-4.207317073170732,-0.6533203125,0.2509765625,0.34765625
794,2.316,IMU2,1.8902439024390245,-2.25609756097561,-4.817073170731708,-0.65625,0.26171875,0.33203125
795,2.326,IMU0,1.707317073170732,-2.3170731707317076,-3.1707317073170733,-0.6318359375,0.234375,0.3310546875
796,2.326,IMU1,4.024390243902439,-3.7195121951219514,-2.9268292682926833,-0.6416015625,0.2451171875,0.34375
797,2.326,IMU2,2.682926829268293,-2.682926829268293,-3.4756097560975614,-0.6552734375,0.2431640625,0.30859375
798,2.336,IMU0,3.353658536585366,-0.853658536585366,-3.7195121951219514,-0.6650390625,0.23828125,0.33203125
799,2.336,IMU1,5.609756097560976,-1.7682926829268295,-3.4756097560975614,-0.6640625,0.2255859375,0.3369140625
800,2.336,IMU2,4.329268292682928,-0.9756097560975611,-4.085365853658537,-0.673828125,0.21875,0.337890625
801,2.346,IMU0,3.963414634146342,-2.25609756097561,-3.231707317073171,-0.673828125,0.279296875,0.3330078125
802,2.346,IMU1,6.219512195121951,-2.8658536585365857,-2.987804878048781,-0.673828125,0.2705078125,0.3515625
803,2.346,IMU2,5.121951219512195,-1.8902439024390245,-3.536585365853659,-0.689453125,0.259765625,0.345703125
804,2.356,IMU0,3.536585365853659,-1.402439024390244,-4.634146341463415,-0.7060546875,0.2802734375,0.3720703125
805,2.356,IMU1,6.158536585365854,-2.3170731707317076,-4.451219512195122,-0.70703125,0.2861328125,0.35546875
806,2.356,IMU2,4.634146341463415,-1.0365853658536586,-4.939024390243903,-0.7177734375,0.2802734375,0.337890625
807,2.366,IMU0,3.963414634146342,-1.7682926829268295,-2.9268292682926833,-0.7177734375,0.1962890625,0.3447265625
808,2.366,IMU1,6.829268292682928,-3.048780487804878,-2.804878048780488,-0.7119140625,0.2109375,0.3603515625
809,2.366,IMU2,4.817073170731708,-1.7682926829268295,-3.2926829268292686,-0.7236328125,0.2138671875,0.3544921875
810,2.376,IMU0,5.914634146341464,-0.5487804878048781,-1.1585365853658538,-0.76953125,0.2001953125,0.365234375
811,2.376,IMU1,9.146341463414634,-1.402439024390244,-0.9756097560975611,-0.7744140625,0.19921875,0.373046875
812,2.376,IMU2,7.01219512195122,-0.06097560975609757,-1.402439024390244,-0.7890625,0.1982421875,0.3486328125
813,2.386,IMU0,6.402439024390245,1.2804878048780488,-2.1341463414634148,-0.8037109375,0.2548828125,0.3876953125
814,2.386,IMU1,9.146341463414634,0.6707317073170732,-1.8902439024390245,-0.802734375,0.2275390625,0.4052734375
815,2.386,IMU2,7.439024390243903,1.8902439024390245,-2.378048780487805,-0.8134765625,0.224609375,0.408203125
816,2.396,IMU0,6.036585365853659,2.439024390243903,-3.536585365853659,-0.7841796875,0.3173828125,0.35546875
817,2.396,IMU1,8.414634146341465,1.2195121951219514,-3.1707317073170733,-0.7919921875,0.314453125,0.3681640625
818,2.396,IMU2,7.01219512195122,2.5609756097560976,-3.658536585365854,-0.80859375,0.3125,0.349609375
819,2.406,IMU0,5.3048780487804885,2.0121951219512195,-5.2439024390243905,-0.8056640625,0.2919921875,0.3876953125
820,2.406,IMU1,7.865853658536586,0.48780487804878053,-5.060975609756098,-0.796875,0.3046875,0.384765625
821,2.406,IMU2,6.402439024390245,1.829268292682927,-5.487804878048781,-0.810546875,0.3037109375,0.375
822,2.416,IMU0,4.085365853658537,1.3414634146341464,-8.78048780487805,-0.80859375,0.212890625,0.369140625
823,2.416,IMU1,6.219512195121951,0.06097560975609757,-8.353658536585366,-0.8115234375,0.2333984375,0.3837890625
824,2.416,IMU2,4.75609756097561,1.0365853658536586,-8.78048780487805,-0.8310546875,0.2275390625,0.365234375
825,2.426,IMU0,2.9268292682926833,-0.9146341463414634,-11.890243902439025,-0.8115234375,0.20703125,0.3583984375
826,2.426,IMU1,4.329268292682928,-2.0121951219512195,-11.463414634146343,-0.8154296875,0.2041015625,0.349609375
827,2.426,IMU2,3.536585365853659,-1.0365853658536586,-11.951219512195124,-0.8271484375,0.203125,0.3359375
828,2.436,IMU0,5.0,1.3414634146341464,-7.621951219512196,-0.8037109375,0.20703125,0.3525390625
829,2.436,IMU1,6.52439024390244,0.48780487804878053,-7.317073170731708,-0.7978515625,0.1953125,0.37109375
830,2.436,IMU2,5.853658536585367,1.707317073170732,-7.8048780487804885,-0.806640625,0.1953125,0.3681640625
831,2.446,IMU0,7.560975609756098,2.25609756097561,-2.1341463414634148,-0.7724609375,0.2373046875,0.357421875
832,2.446,IMU1,9.26829268292683,1.829268292682927,-1.8902439024390245,-0.76953125,0.23046875,0.365234375
833,2.446,IMU2,8.597560975609756,2.7439024390243905,-2.439024390243903,-0.7763671875,0.2314453125,0.345703125
834,2.456,IMU0,8.597560975609756,2.1951219512195124,-0.06097560975609757,-0.7529296875,0.25,0.3544921875
835,2.456,IMU1,10.914634146341465,1.0365853658536586,0.24390243902439027,-0.748046875,0.2373046875,0.3505859375
836,2.456,IMU2,9.51219512195122,2.1951219512195124,-0.30487804878048785,-0.7607421875,0.2431640625,0.333984375
837,2.466,IMU0,8.170731707317074,1.6463414634146343,0.12195121951219513,-0.763671875,0.234375,0.3564453125
838,2.466,IMU1,10.609756097560977,1.0365853658536586,0.3658536585365854,-0.7666015625,0.2412109375,0.37890625
839,2.466,IMU2,9.085365853658537,2.1341463414634148,-0.12195121951219513,-0.779296875,0.232421875,0.3662109375
840,2.476,IMU0,7.926829268292684,1.5853658536585367,-1.402439024390244,-0.7626953125,0.25390625,0.38671875
841,2.476,IMU1,10.426829268292684,1.0975609756097562,-1.0365853658536586,-0.765625,0.2431640625,0.3779296875
842,2.476,IMU2,8.963414634146343,1.7682926829268295,-1.5853658536585367,-0.78125,0.248046875,0.3720703125
843,2.486,IMU0,7.500000000000001,2.5609756097560976,-3.048780487804878,-0.7275390625,0.2451171875,0.36328125
844,2.486,IMU1,9.756097560975611,1.9512195121951221,-2.7439024390243905,-0.7255859375,0.2392578125,0.375
845,2.486,IMU2,8.597560975609756,2.804878048780488,-3.2926829268292686,-0.7412109375,0.2421875,0.37109375
846,2.496,IMU0,8.536585365853659,2.073170731707317,-1.7682926829268295,-0.7255859375,0.2744140625,0.3720703125
847,2.496,IMU1,10.30487804878049,1.3414634146341464,-1.524390243902439,-0.7294921875,0.2802734375,0.380859375
848,2.496,IMU2,9.51219512195122,2.5609756097560976,-2.0121951219512195,-0.736328125,0.2705078125,0.3505859375
849,2.506,IMU0,8.658536585365855,1.0365853658536586,-2.3170731707317076,-0.7490234375,0.2568359375,0.3720703125
850,2.506,IMU1,10.487804878048781,0.12195121951219513,-1.8902439024390245,-0.7451171875,0.26953125,0.3798828125
851,2.506,IMU2,9.756097560975611,1.3414634146341464,-2.5609756097560976,-0.76953125,0.25390625,0.369140625
852,2.516,IMU0,8.353658536585366,0.0,-5.609756097560976,-0.7919921875,0.240234375,0.376953125
853,2.516,IMU1,10.060975609756099,-0.9756097560975611,-5.060975609756098,-0.7939453125,0.2490234375,0.392578125
854,2.516,IMU2,9.085365853658537,-0.06097560975609757,-5.731707317073171,-0.8095703125,0.236328125,0.3974609375
855,2.526,IMU0,7.8048780487804885,-0.6707317073170732,-7.682926829268293,-0.810546875,0.267578125,0.4267578125
856,2.526,IMU1,9.634146341463415,-1.707317073170732,-7.073170731707318,-0.8154296875,0.2470703125,0.4228515625
857,2.526,IMU2,8.475609756097562,-0.5487804878048781,-7.8048780487804885,-0.8212890625,0.2705078125,0.4189453125
858,2.536,IMU0,8.292682926829269,-0.6707317073170732,-7.8048780487804885,-0.798828125,0.2783203125,0.3955078125
859,2.536,IMU1,10.548780487804878,-1.707317073170732,-7.500000000000001,-0.79296875,0.2626953125,0.4111328125
860,2.536,IMU2,9.329268292682928,-0.3658536585365854,-8.048780487804878,-0.8056640625,0.2822265625,0.3828125
861,2.546,IMU0,7.926829268292684,-2.378048780487805,-10.548780487804878,-0.8095703125,0.28125,0.4248046875
862,2.546,IMU1,10.24390243902439,-3.780487804878049,-10.060975609756099,-0.8193359375,0.2861328125,0.4326171875
863,2.546,IMU2,9.207317073170733,-2.3170731707317076,-10.853658536585368,-0.837890625,0.2705078125,0.421875
864,2.556,IMU0,9.939024390243903,-1.1585365853658538,-15.54878048780488,-0.7685546875,0.29296875,0.4755859375
865,2.556,IMU1,12.560975609756099,-2.439024390243903,-15.121951219512196,-0.7724609375,0.283203125,0.4697265625
866,2.556,IMU2,11.158536585365855,-0.7317073170731708,-15.79268292682927,-0.7900390625,0.2880859375,0.447265625
867,2.566,IMU0,10.853658536585368,-2.073170731707317,-12.74390243902439,-0.7529296875,0.3642578125,0.453125
868,2.566,IMU1,13.963414634146343,-2.987804878048781,-12.682926829268293,-0.7470703125,0.3623046875,0.44921875
869,2.566,IMU2,11.890243902439025,-1.9512195121951221,-12.80487804878049,-0.7529296875,0.3564453125,0.443359375
870,2.576,IMU0,14.26829268292683,-3.353658536585366,-5.853658536585367,-0.642578125,0.353515625,0.3955078125
871,2.576,IMU1,17.31707317073171,-4.146341463414634,-5.853658536585367,-0.6298828125,0.3857421875,0.427734375
872,2.576,IMU2,15.670731707317074,-3.1097560975609757,-5.914634146341464,-0.6484375,0.32421875,0.380859375
873,2.586,IMU0,15.975609756097562,-2.0121951219512195,-1.2195121951219514,-0.6435546875,0.29296875,0.380859375
874,2.586,IMU1,17.804878048780488,-2.6219512195121952,-0.853658536585366,-0.6376953125,0.3271484375,0.3876953125
875,2.586,IMU2,17.012195121951223,-1.3414634146341464,-1.3414634146341464,-0.6650390625,0.2646484375,0.392578125
876,2.596,IMU0,14.634146341463415,-3.048780487804878,-1.2804878048780488,-0.626953125,0.265625,0.3701171875
877,2.596,IMU1,16.890243902439025,-3.658536585365854,-0.9756097560975611,-0.6328125,0.26171875,0.3798828125
878,2.596,IMU2,16.34146341463415,-3.048780487804878,-1.5853658536585367,-0.626953125,0.2861328125,0.3515625
879,2.606,IMU0,15.000000000000002,-1.9512195121951221,-1.7682926829268295,-0.60546875,0.341796875,0.3173828125
880,2.606,IMU1,17.5609756097561,-2.804878048780488,-1.5853658536585367,-0.611328125,0.3193359375,0.3388671875
881,2.606,IMU2,16.158536585365855,-1.9512195121951221,-2.0121951219512195,-0.6123046875,0.3818359375,0.34375
882,2.616,IMU0,14.634146341463415,-0.12195121951219513,-3.4756097560975614,-0.580078125,0.390625,0.3369140625
883,2.616,IMU1,17.31707317073171,-0.426829268292683,-3.2926829268292686,-0.58203125,0.3828125,0.3525390625
884,2.616,IMU2,15.79268292682927,0.30487804878048785,-3.7195121951219514,-0.6123046875,0.384765625,0.3447265625
885,2.626,IMU0,12.865853658536587,-0.426829268292683,-5.487804878048781,-0.62109375,0.3642578125,0.373046875
886,2.626,IMU1,16.28048780487805,-1.2804878048780488,-5.182926829268293,-0.64453125,0.27734375,0.3544921875
887,2.626,IMU2,13.78048780487805,-0.24390243902439027,-5.487804878048781,-0.64453125,0.3134765625,0.34765625
888,2.636,IMU0,12.378048780487806,0.5487804878048781,-5.7926829268292686,-0.6259765625,0.259765625,0.349609375
889,2.636,IMU1,15.79268292682927,-1.1585365853658538,-5.670731707317073,-0.615234375,0.251953125,0.3515625
890,2.636,IMU2,13.170731707317074,0.3658536585365854,-5.975609756097562,-0.6396484375,0.2412109375,0.3408203125
891,2.646,IMU0,12.439024390243903,1.524390243902439,-5.426829268292684,-0.6533203125,0.2353515625,0.3740234375
892,2.646,IMU1,15.243902439024392,0.06097560975609757,-5.0,-0.630859375,0.3154296875,0.388671875
893,2.646,IMU2,13.536585365853659,1.2804878048780488,-5.548780487804878,-0.6484375,0.2724609375,0.37890625
894,2.656,IMU0,11.707317073170733,2.682926829268293,-3.8414634146341466,-0.603515625,0.2744140625,0.3486328125
895,2.656,IMU1,14.390243902439027,2.1341463414634148,-3.4756097560975614,-0.60546875,0.322265625,0.3837890625
896,2.656,IMU2,12.74390243902439,3.1097560975609757,-4.024390243902439,-0.61328125,0.3017578125,0.37890625
897,2.666,IMU0,10.975609756097562,4.878048780487806,-4.207317073170732,-0.6396484375,0.337890625,0.384765625
898,2.666,IMU1,13.597560975609758,4.146341463414634,-4.024390243902439,-0.669921875,0.296875,0.400390625
899,2.666,IMU2,12.073170731707318,4.939024390243903,-4.51219512195122,-0.671875,0.318359375,0.380859375
900,2.676,IMU0,10.0,7.01219512195122,-4.75609756097561,-0.6474609375,0.3203125,0.443359375
901,2.676,IMU1,12.500000000000002,6.341463414634147,-4.573170731707317,-0.6669921875,0.2490234375,0.4326171875
902,2.676,IMU2,11.28048780487805,7.439024390243903,-5.060975609756098,-0.6748046875,0.2705078125,0.4326171875
903,2.686,IMU0,8.475609756097562,10.30487804878049,-7.439024390243903,-0.6923828125,0.251953125,0.4775390625
904,2.686,IMU1,11.097560975609756,8.841463414634147,-6.890243902439025,-0.6826171875,0.2314453125,0.4853515625
905,2.686,IMU2,10.30487804878049,10.24390243902439,-7.560975609756098,-0.69921875,0.2275390625,0.4794921875
906,2.696,IMU0,9.207317073170733,11.890243902439025,-4.939024390243903,-0.7431640625,0.220703125,0.4892578125
907,2.696,IMU1,10.914634146341465,10.426829268292684,-4.573170731707317,-0.734375,0.2587890625,0.5029296875
908,2.696,IMU2,11.097560975609756,11.890243902439025,-5.2439024390243905,-0.748046875,0.236328125,0.482421875
909,2.706,IMU0,8.902439024390244,7.073170731707318,-3.658536585365854,-0.7626953125,0.232421875,0.4765625
910,2.706,IMU1,10.609756097560977,5.7926829268292686,-3.536585365853659,-0.7431640625,0.3193359375,0.494140625
911,2.706,IMU2,10.426829268292684,6.829268292682928,-4.024390243902439,-0.7626953125,0.29296875,0.4873046875
912,2.716,IMU0,9.26829268292683,6.036585365853659,-2.804878048780488,-0.740234375,0.3193359375,0.4736328125
913,2.716,IMU1,11.097560975609756,5.182926829268293,-2.073170731707317,-0.7373046875,0.337890625,0.5068359375
914,2.716,IMU2,10.30487804878049,6.158536585365854,-2.682926829268293,-0.7490234375,0.341796875,0.4892578125
915,2.726,IMU0,7.378048780487806,7.378048780487806,-4.695121951219512,-0.7099609375,0.31640625,0.53515625
916,2.726,IMU1,9.695121951219512,6.951219512195123,-4.51219512195122,-0.732421875,0.2333984375,0.5166015625
917,2.726,IMU2,8.841463414634147,8.231707317073171,-5.0,-0.7431640625,0.2470703125,0.50390625
918,2.736,IMU0,7.621951219512196,10.060975609756099,-3.7195121951219514,-0.755859375,0.24609375,0.5029296875
919,2.736,IMU1,10.060975609756099,9.329268292682928,-3.414634146341464,-0.7607421875,0.1943359375,0.494140625
920,2.736,IMU2,9.085365853658537,10.548780487804878,-3.9024390243902443,-0.7763671875,0.193359375,0.4912109375
921,2.746,IMU0,6.951219512195123,10.792682926829269,-2.8658536585365857,-0.78125,0.2255859375,0.509765625
922,2.746,IMU1,8.963414634146343,8.475609756097562,-2.439024390243903,-0.759765625,0.29296875,0.533203125
923,2.746,IMU2,8.048780487804878,9.695121951219512,-3.048780487804878,-0.7802734375,0.2734375,0.5302734375
924,2.756,IMU0,5.548780487804878,10.365853658536587,-4.024390243902439,-0.7958984375,0.2783203125,0.5107421875
925,2.756,IMU1,7.500000000000001,8.719512195121952,-3.2926829268292686,-0.7822265625,0.3359375,0.515625
926,2.756,IMU2,6.951219512195123,9.878048780487806,-3.963414634146342,-0.7861328125,0.33203125,0.5009765625
927,2.766,IMU0,2.8658536585365857,6.890243902439025,-2.6219512195121952,-0.7822265625,0.30859375,0.5205078125
928,2.766,IMU1,4.2682926829268295,5.975609756097562,-2.6219512195121952,-0.8046875,0.2607421875,0.55078125
929,2.766,IMU2,3.2926829268292686,7.134146341463415,-3.1707317073170733,-0.8193359375,0.2705078125,0.541015625
930,2.776,IMU0,1.1585365853658538,6.707317073170732,-3.1097560975609757,-0.7431640625,0.3310546875,0.5224609375
931,2.776,IMU1,3.353658536585366,6.463414634146342,-2.8658536585365857,-0.771484375,0.2685546875,0.5263671875
932,2.776,IMU2,2.073170731707317,7.743902439024391,-3.414634146341464,-0.7861328125,0.2705078125,0.509765625
933,2.786,IMU0,0.24390243902439027,9.573170731707318,-2.5,-0.6953125,0.2578125,0.5283203125
934,2.786,IMU1,2.439024390243903,8.719512195121952,-2.3170731707317076,-0.69921875,0.2041015625,0.5224609375
935,2.786,IMU2,1.7682926829268295,10.182926829268293,-2.9268292682926833,-0.7080078125,0.19921875,0.513671875
936,2.796,IMU0,-0.30487804878048785,8.353658536585366,-1.402439024390244,-0.6484375,0.21875,0.4599609375
937,2.796,IMU1,1.6463414634146343,7.317073170731708,-1.0975609756097562,-0.630859375,0.2080078125,0.458984375
938,2.796,IMU2,1.2195121951219514,8.536585365853659,-1.707317073170732,-0.6416015625,0.2021484375,0.4560546875
939,2.806,IMU0,1.1585365853658538,10.975609756097562,0.9756097560975611,-0.578125,0.2451171875,0.4716796875
940,2.806,IMU1,3.231707317073171,9.634146341463415,1.3414634146341464,-0.5859375,0.2333984375,0.4560546875
941,2.806,IMU2,2.439024390243903,11.158536585365855,0.7926829268292683,-0.5986328125,0.228515625,0.4453125
942,2.816,IMU0,0.6097560975609757,10.365853658536587,0.7317073170731708,-0.5009765625,0.251953125,0.4423828125
943,2.816,IMU1,2.7439024390243905,9.451219512195122,0.9756097560975611,-0.5068359375,0.244140625,0.462890625
944,2.816,IMU2,1.9512195121951221,10.426829268292684,0.426829268292683,-0.5166015625,0.2392578125,0.4609375
945,2.826,IMU0,0.12195121951219513,11.341463414634147,0.426829268292683,-0.4384765625,0.24609375,0.416015625
946,2.826,IMU1,2.3170731707317076,10.487804878048781,0.7317073170731708,-0.4443359375,0.2236328125,0.439453125
947,2.826,IMU2,1.3414634146341464,11.52439024390244,0.1829268292682927,-0.4541015625,0.2236328125,0.435546875
948,2.836,IMU0,0.5487804878048781,9.634146341463415,1.0975609756097562,-0.3828125,0.2607421875,0.4375
949,2.836,IMU1,2.9268292682926833,8.78048780487805,1.4634146341463417,-0.3916015625,0.2392578125,0.4296875
950,2.836,IMU2,1.707317073170732,9.939024390243903,0.853658536585366,-0.40234375,0.2431640625,0.4130859375
951,2.846,IMU0,0.30487804878048785,6.585365853658537,0.9756097560975611,-0.3291015625,0.2734375,0.39453125
952,2.846,IMU1,2.439024390243903,5.487804878048781,1.2804878048780488,-0.33984375,0.26171875,0.396484375
953,2.846,IMU2,1.5853658536585367,6.646341463414635,0.5487804878048781,-0.34765625,0.2646484375,0.3837890625
954,2.856,IMU0,-0.5487804878048781,4.51219512195122,-1.6463414634146343,-0.248046875,0.2509765625,0.412109375
955,2.856,IMU1,2.1341463414634148,3.2926829268292686,-1.3414634146341464,-0.263671875,0.2373046875,0.4248046875
956,2.856,IMU2,1.0365853658536586,4.695121951219512,-2.0121951219512195,-0.2724609375,0.2412109375,0.4150390625
957,2.866,IMU0,-2.439024390243903,6.585365853658537,-4.878048780487806,-0.2431640625,0.1962890625,0.421875
958,2.866,IMU1,0.5487804878048781,5.365853658536586,-4.634146341463415,-0.2568359375,0.1875,0.4375
959,2.866,IMU2,-0.853658536585366,6.890243902439025,-5.2439024390243905,-0.265625,0.189453125,0.44140625
960,2.876,IMU0,-1.402439024390244,9.390243902439025,-4.939024390243903,-0.2890625,0.19140625,0.412109375
961,2.876,IMU1,1.402439024390244,8.231707317073171,-4.695121951219512,-0.2958984375,0.18359375,0.4306640625
962,2.876,IMU2,0.06097560975609757,9.939024390243903,-5.2439024390243905,-0.306640625,0.1884765625,0.439453125
963,2.886,IMU0,-0.426829268292683,9.02439024390244,-3.414634146341464,-0.3095703125,0.1884765625,0.384765625
964,2.886,IMU1,2.378048780487805,7.682926829268293,-3.414634146341464,-0.3095703125,0.1787109375,0.4033203125
965,2.886,IMU2,0.9756097560975611,9.390243902439025,-3.780487804878049,-0.318359375,0.185546875,0.408203125
966,2.896,IMU0,-0.3658536585365854,7.378048780487806,-2.378048780487805,-0.2841796875,0.2099609375,0.3935546875
967,2.896,IMU1,2.1341463414634148,5.975609756097562,-2.25609756097561,-0.2861328125,0.1982421875,0.400390625
968,2.896,IMU2,0.853658536585366,7.25609756097561,-2.7439024390243905,-0.2958984375,0.208984375,0.3896484375
969,2.906,IMU0,0.7317073170731708,2.682926829268293,-2.1341463414634148,-0.345703125,0.2529296875,0.369140625
970,2.906,IMU1,3.1707317073170733,1.7682926829268295,-1.9512195121951221,-0.3544921875,0.228515625,0.3896484375
971,2.906,IMU2,1.5853658536585367,2.6219512195121952,-2.5,-0.35546875,0.255859375,0.3701171875
972,2.916,IMU0,1.0975609756097562,-0.9756097560975611,0.0,-0.3359375,0.212890625,0.3359375
973,2.916,IMU1,3.5975609756097566,-1.9512195121951221,0.12195121951219513,-0.34375,0.1787109375,0.3671875
974,2.916,IMU2,2.1951219512195124,-0.9146341463414634,-0.30487804878048785,-0.333984375,0.2197265625,0.34375
975,2.926,IMU0,-1.3414634146341464,-3.048780487804878,0.48780487804878053,-0.314453125,0.1396484375,0.345703125
976,2.926,IMU1,1.402439024390244,-4.329268292682928,0.7317073170731708,-0.3271484375,0.1240234375,0.37109375
977,2.926,IMU2,-0.24390243902439027,-3.231707317073171,0.12195121951219513,-0.3291015625,0.1484375,0.3818359375
978,2.936,IMU0,-1.2195121951219514,-1.2804878048780488,0.6707317073170732,-0.3447265625,0.1396484375,0.337890625
979,2.936,IMU1,1.2195121951219514,-2.682926829268293,0.9756097560975611,-0.3564453125,0.1376953125,0.3505859375
980,2.936,IMU2,-0.12195121951219513,-1.524390243902439,0.3658536585365854,-0.357421875,0.1435546875,0.361328125
981,2.946,IMU0,-2.1341463414634148,-1.4634146341463417,-0.12195121951219513,-0.3525390625,0.1181640625,0.3564453125
982,2.946,IMU1,0.1829268292682927,-2.7439024390243905,0.06097560975609757,-0.3544921875,0.126953125,0.3505859375
983,2.946,IMU2,-0.853658536585366,-1.402439024390244,-0.426829268292683,-0.357421875,0.115234375,0.3447265625
984,2.956,IMU0,-2.9268292682926833,-0.06097560975609757,-0.06097560975609757,-0.3681640625,0.0947265625,0.3896484375
985,2.956,IMU1,-0.426829268292683,-1.4634146341463417,0.12195121951219513,-0.3603515625,0.1171875,0.380859375
986,2.956,IMU2,-1.6463414634146343,-0.12195121951219513,-0.3658536585365854,-0.3798828125,0.0849609375,0.357421875
987,2.966,IMU0,-1.402439024390244,-0.3658536585365854,3.8414634146341466,-0.3896484375,0.15625,0.345703125
988,2.966,IMU1,1.1585365853658538,-1.8902439024390245,3.963414634146342,-0.380859375,0.19140625,0.3466796875
989,2.966,IMU2,0.06097560975609757,-0.30487804878048785,3.414634146341464,-0.419921875,0.1396484375,0.3291015625
990,2.976,IMU0,-0.9756097560975611,-2.987804878048781,2.7439024390243905,-0.375,0.212890625,0.3583984375
991,2.976,IMU1,1.9512195121951221,-4.390243902439025,2.9268292682926833,-0.3671875,0.2607421875,0.3623046875
992,2.976,IMU2,0.3658536585365854,-2.5609756097560976,2.5,-0.4072265625,0.1748046875,0.37109375
993,2.986,IMU0,-1.7682926829268295,-4.2682926829268295,-1.7682926829268295,-0.3408203125,0.275390625,0.349609375
994,2.986,IMU1,1.1585365853658538,-5.731707317073171,-1.524390243902439,-0.333984375,0.3017578125,0.328125
995,2.986,IMU2,-0.24390243902439027,-3.4756097560975614,-2.1341463414634148,-0.3740234375,0.228515625,0.3505859375
996,2.996,IMU0,-1.402439024390244,-3.231707317073171,-2.987804878048781,-0.2919921875,0.3212890625,0.3447265625
997,2.996,IMU1,1.3414634146341464,-4.695121951219512,-2.682926829268293,-0.296875,0.330078125,0.3720703125
998,2.996,IMU2,-0.1829268292682927,-2.682926829268293,-3.414634146341464,-0.33203125,0.296875,0.3271484375
999,3.006,IMU0,0.6097560975609757,0.24390243902439027,-4.878048780487806,-0.3310546875,0.2861328125,0.359375
1000,3.006,IMU1,3.231707317073171,-1.0365853658536586,-4.75609756097561,-0.330078125,0.279296875,0.3798828125
1001,3.006,IMU2,1.9512195121951221,0.9146341463414634,-5.060975609756098,-0.3369140625,0.2900390625,0.3505859375
1002,3.016,IMU0,2.378048780487805,2.073170731707317,-3.1097560975609757,-0.380859375,0.2490234375,0.337890625
1003,3.016,IMU1,4.939024390243903,0.6707317073170732,-2.9268292682926833,-0.3837890625,0.2333984375,0.3330078125
1004,3.016,IMU2,3.5975609756097566,2.6219512195121952,-3.2926829268292686,-0.380859375,0.2578125,0.3505859375
1005,3.026,IMU0,4.329268292682928,2.0121951219512195,-0.853658536585366,-0.462890625,0.275390625,0.3603515625
1006,3.026,IMU1,6.585365853658537,1.2195121951219514,-0.5487804878048781,-0.4697265625,0.2451171875,0.35546875
1007,3.026,IMU2,5.365853658536586,2.1341463414634148,-1.1585365853658538,-0.470703125,0.2958984375,0.3828125
1008,3.036,IMU0,3.5975609756097566,-0.30487804878048785,-3.1707317073170733,-0.470703125,0.255859375,0.322265625
1009,3.036,IMU1,6.52439024390244,-1.402439024390244,-2.8658536585365857,-0.478515625,0.220703125,0.328125
1010,3.036,IMU2,4.878048780487806,-0.1829268292682927,-3.4756097560975614,-0.4765625,0.29296875,0.3388671875
1011,3.046,IMU0,4.695121951219512,-1.8902439024390245,-3.658536585365854,-0.4697265625,0.2294921875,0.3388671875
1012,3.046,IMU1,7.134146341463415,-2.987804878048781,-3.414634146341464,-0.4765625,0.1923828125,0.3583984375
1013,3.046,IMU2,5.609756097560976,-2.378048780487805,-3.780487804878049,-0.4599609375,0.2861328125,0.34765625
1014,3.056,IMU0,6.52439024390244,-1.7682926829268295,-0.1829268292682927,-0.44921875,0.1787109375,0.3232421875
1015,3.056,IMU1,9.085365853658537,-3.048780487804878,-0.06097560975609757,-0.455078125,0.140625,0.3427734375
1016,3.056,IMU2,7.560975609756098,-2.5609756097560976,-0.24390243902439027,-0.4326171875,0.2490234375,0.3251953125
1017,3.066,IMU0,6.585365853658537,-3.2926829268292686,1.402439024390244,-0.4619140625,0.18359375,0.3037109375
1018,3.066,IMU1,9.756097560975611,-4.451219512195122,1.524390243902439,-0.4755859375,0.14453125,0.333984375
1019,3.066,IMU2,7.500000000000001,-3.780487804878049,1.0975609756097562,-0.4501953125,0.2685546875,0.3076171875
1020,3.076,IMU0,6.646341463414635,-1.3414634146341464,0.853658536585366,-0.4951171875,0.18359375,0.341796875
1021,3.076,IMU1,10.121951219512196,-2.6219512195121952,1.0365853658536586,-0.5068359375,0.150390625,0.3701171875
1022,3.076,IMU2,7.987804878048781,-1.7682926829268295,0.426829268292683,-0.490234375,0.271484375,0.353515625
1023,3.086,IMU0,6.341463414634147,-1.707317073170732,0.24390243902439027,-0.470703125,0.22265625,0.2998046875
1024,3.086,IMU1,9.695121951219512,-2.8658536585365857,0.30487804878048785,-0.48046875,0.1875,0.314453125
1025,3.086,IMU2,7.682926829268293,-1.6463414634146343,-0.06097560975609757,-0.4609375,0.310546875,0.310546875
1026,3.096,IMU0,5.670731707317073,-0.5487804878048781,-2.5,-0.482421875,0.228515625,0.3681640625
1027,3.096,IMU1,7.865853658536586,-1.4634146341463417,-2.1341463414634148,-0.4931640625,0.193359375,0.38671875
1028,3.096,IMU2,6.707317073170732,-0.6707317073170732,-2.804878048780488,-0.46875,0.2998046875,0.3837890625
1029,3.106,IMU0,8.658536585365855,3.048780487804878,-0.6707317073170732,-0.4736328125,0.24609375,0.3662109375
1030,3.106,IMU1,10.975609756097562,1.9512195121951221,-0.3658536585365854,-0.4765625,0.2119140625,0.3701171875
1031,3.106,IMU2,10.0,3.414634146341464,-0.7926829268292683,-0.4609375,0.3017578125,0.3779296875
1032,3.116,IMU0,10.975609756097562,4.329268292682928,3.1097560975609757,-0.486328125,0.2568359375,0.4296875
1033,3.116,IMU1,13.597560975609758,3.5975609756097566,3.353658536585366,-0.4892578125,0.22265625,0.421875
1034,3.116,IMU2,12.560975609756099,4.75609756097561,3.048780487804878,-0.4873046875,0.2861328125,0.4169921875
1035,3.126,IMU0,11.707317073170733,4.451219512195122,0.9146341463414634,-0.583984375,0.32421875,0.4228515625
1036,3.126,IMU1,14.02439024390244,3.536585365853659,1.2804878048780488,-0.5927734375,0.3037109375,0.4228515625
1037,3.126,IMU2,12.560975609756099,4.817073170731708,0.7317073170731708,-0.603515625,0.330078125,0.4345703125
1038,3.136,IMU0,10.731707317073171,0.3658536585365854,-2.0121951219512195,-0.6044921875,0.361328125,0.4189453125
1039,3.136,IMU1,13.536585365853659,-0.7317073170731708,-1.707317073170732,-0.61328125,0.359375,0.423828125
1040,3.136,IMU2,11.829268292682928,1.1585365853658538,-2.5,-0.64453125,0.33984375,0.423828125
1041,3.146,IMU0,10.487804878048781,-4.329268292682928,-3.780487804878049,-0.5830078125,0.349609375,0.421875
1042,3.146,IMU1,12.682926829268293,-5.426829268292684,-3.536585365853659,-0.580078125,0.357421875,0.435546875
1043,3.146,IMU2,11.76829268292683,-3.658536585365854,-3.9024390243902443,-0.61328125,0.3125,0.4150390625
1044,3.156,IMU0,11.158536585365855,-7.195121951219513,-1.8902439024390245,-0.560546875,0.3544921875,0.416015625
1045,3.156,IMU1,13.719512195121952,-8.231707317073171,-1.7682926829268295,-0.556640625,0.36328125,0.427734375
1046,3.156,IMU2,12.378048780487806,-6.158536585365854,-2.073170731707317,-0.5927734375,0.28515625,0.431640625
1047,3.166,IMU0,12.256097560975611,-8.414634146341465,-1.6463414634146343,-0.552734375,0.33203125,0.404296875
1048,3.166,IMU1,14.51219512195122,-8.841463414634147,-1.2195121951219514,-0.546875,0.3349609375,0.4150390625
1049,3.166,IMU2,13.536585365853659,-7.439024390243903,-1.707317073170732,-0.58203125,0.2685546875,0.400390625
1050,3.176,IMU0,12.682926829268293,-7.987804878048781,-1.4634146341463417,-0.5087890625,0.3720703125,0.3662109375
1051,3.176,IMU1,14.51219512195122,-7.560975609756098,-1.2804878048780488,-0.509765625,0.3759765625,0.3828125
1052,3.176,IMU2,13.597560975609758,-6.219512195121951,-1.7682926829268295,-0.5615234375,0.283203125,0.3916015625
1053,3.186,IMU0,11.951219512195124,-6.097560975609756,-4.878048780487806,-0.5048828125,0.369140625,0.3515625
1054,3.186,IMU1,14.085365853658537,-5.853658536585367,-4.573170731707317,-0.5380859375,0.26171875,0.3720703125
1055,3.186,IMU2,12.80487804878049,-4.817073170731708,-5.0,-0.548828125,0.2685546875,0.3701171875
1056,3.196,IMU0,11.646341463414634,-2.682926829268293,-5.853658536585367,-0.537109375,0.3896484375,0.3515625
1057,3.196,IMU1,13.963414634146343,-3.048780487804878,-5.670731707317073,-0.58203125,0.27734375,0.3662109375
1058,3.196,IMU2,12.256097560975611,-1.7682926829268295,-6.097560975609756,-0.5947265625,0.279296875,0.3681640625
1059,3.206,IMU0,10.365853658536587,-0.9756097560975611,-7.865853658536586,-0.568359375,0.375,0.3623046875
1060,3.206,IMU1,13.04878048780488,-1.0365853658536586,-7.378048780487806,-0.6044921875,0.2802734375,0.3525390625
1061,3.206,IMU2,11.341463414634147,0.12195121951219513,-7.865853658536586,-0.615234375,0.2783203125,0.3369140625
1062,3.216,IMU0,9.634146341463415,0.426829268292683,-5.609756097560976,-0.62890625,0.37109375,0.3662109375
1063,3.216,IMU1,12.378048780487806,-0.06097560975609757,-5.121951219512195,-0.6640625,0.2998046875,0.3876953125
1064,3.216,IMU2,10.365853658536587,1.1585365853658538,-5.548780487804878,-0.6748046875,0.2958984375,0.3642578125
1065,3.226,IMU0,9.085365853658537,0.0,-3.536585365853659,-0.7080078125,0.3818359375,0.3876953125
1066,3.226,IMU1,11.52439024390244,-0.6707317073170732,-3.231707317073171,-0.7275390625,0.3154296875,0.390625
1067,3.226,IMU2,10.24390243902439,0.7317073170731708,-3.7195121951219514,-0.7431640625,0.3115234375,0.388671875
1068,3.236,IMU0,8.048780487804878,-0.5487804878048781,-4.207317073170732,-0.7529296875,0.3876953125,0.4296875
1069,3.236,IMU1,11.036585365853659,-1.5853658536585367,-3.8414634146341466,-0.7734375,0.322265625,0.4091796875
1070,3.236,IMU2,8.963414634146343,-0.48780487804878053,-4.329268292682928,-0.7880859375,0.318359375,0.392578125
1071,3.246,IMU0,6.52439024390244,-2.7439024390243905,-4.024390243902439,-0.775390625,0.384765625,0.4169921875
1072,3.246,IMU1,9.451219512195122,-3.231707317073171,-3.8414634146341466,-0.7890625,0.32421875,0.41796875
1073,3.246,IMU2,7.500000000000001,-1.707317073170732,-4.390243902439025,-0.8046875,0.3134765625,0.412109375
1074,3.256,IMU0,6.036585365853659,-0.9756097560975611,-4.2682926829268295,-0.798828125,0.3740234375,0.4365234375
1075,3.256,IMU1,8.658536585365855,-1.6463414634146343,-4.085365853658537,-0.8232421875,0.2841796875,0.439453125
1076,3.256,IMU2,7.25609756097561,-0.06097560975609757,-4.573170731707317,-0.837890625,0.2783203125,0.423828125
1077,3.266,IMU0,5.853658536585367,-0.6707317073170732,-3.9024390243902443,-0.8173828125,0.3525390625,0.4228515625
1078,3.266,IMU1,8.841463414634147,-1.1585365853658538,-3.536585365853659,-0.8330078125,0.2822265625,0.4287109375
1079,3.266,IMU2,7.317073170731708,0.48780487804878053,-4.024390243902439,-0.8427734375,0.2783203125,0.408203125
1080,3.276,IMU0,5.548780487804878,0.6097560975609757,-3.2926829268292686,-0.8681640625,0.3076171875,0.44140625
1081,3.276,IMU1,8.719512195121952,-0.5487804878048781,-3.1707317073170733,-0.8681640625,0.2685546875,0.4384765625
1082,3.276,IMU2,7.01219512195122,1.0975609756097562,-3.658536585365854,-0.880859375,0.2744140625,0.4345703125
1083,3.286,IMU0,6.036585365853659,0.9756097560975611,-2.439024390243903,-0.892578125,0.287109375,0.4638671875
1084,3.286,IMU1,8.841463414634147,-0.5487804878048781,-2.1341463414634148,-0.890625,0.30078125,0.4482421875
1085,3.286,IMU2,7.317073170731708,0.426829268292683,-2.6219512195121952,-0.8974609375,0.3251953125,0.4375
1086,3.296,IMU0,5.853658536585367,0.06097560975609757,-3.780487804878049,-0.8994140625,0.2666015625,0.4267578125
1087,3.296,IMU1,8.536585365853659,-1.2195121951219514,-3.658536585365854,-0.8818359375,0.3349609375,0.4501953125
1088,3.296,IMU2,7.134146341463415,-0.06097560975609757,-4.207317073170732,-0.888671875,0.3544921875,0.4462890625
1089,3.306,IMU0,5.853658536585367,0.1829268292682927,-4.329268292682928,-0.9091796875,0.283203125,0.4658203125
1090,3.306,IMU1,8.170731707317074,-1.1585365853658538,-4.024390243902439,-0.8828125,0.3642578125,0.4658203125
1091,3.306,IMU2,7.500000000000001,0.1829268292682927,-4.573170731707317,-0.890625,0.3876953125,0.4482421875
1092,3.316,IMU0,5.914634146341464,1.0365853658536586,-4.451219512195122,-0.8916015625,0.3212890625,0.453125
1093,3.316,IMU1,8.658536585365855,0.0,-4.146341463414634,-0.8818359375,0.400390625,0.474609375
1094,3.316,IMU2,7.500000000000001,1.4634146341463417,-4.695121951219512,-0.8916015625,0.3876953125,0.470703125
1095,3.326,IMU0,6.158536585365854,0.6707317073170732,-5.7926829268292686,-0.8935546875,0.3798828125,0.4697265625
1096,3.326,IMU1,8.475609756097562,0.30487804878048785,-5.426829268292684,-0.900390625,0.3857421875,0.486328125
1097,3.326,IMU2,7.987804878048781,1.7682926829268295,-6.158536585365854,-0.923828125,0.3583984375,0.458984375
1098,3.336,IMU0,5.914634146341464,-0.24390243902439027,-5.914634146341464,-0.9130859375,0.408203125,0.4638671875
1099,3.336,IMU1,7.25609756097561,-0.6097560975609757,-5.426829268292684,-0.9287109375,0.3505859375,0.466796875
1100,3.336,IMU2,7.195121951219513,1.0975609756097562,-6.036585365853659,-0.947265625,0.310546875,0.4462890625
1101,3.346,IMU0,5.609756097560976,-0.7926829268292683,-4.817073170731708,-0.9208984375,0.2783203125,0.4404296875
1102,3.346,IMU1,7.621951219512196,-1.5853658536585367,-4.573170731707317,-0.91796875,0.298828125,0.4501953125
1103,3.346,IMU2,7.01219512195122,-0.3658536585365854,-5.060975609756098,-0.9365234375,0.26953125,0.455078125
1104,3.356,IMU0,6.2804878048780495,-1.2195121951219514,-3.7195121951219514,-0.87890625,0.373046875,0.4619140625
1105,3.356,IMU1,8.475609756097562,-1.9512195121951221,-3.414634146341464,-0.8955078125,0.2724609375,0.45703125
1106,3.356,IMU2,7.682926829268293,-0.6707317073170732,-3.963414634146342,-0.904296875,0.2802734375,0.4228515625
1107,3.366,IMU0,5.7926829268292686,-1.0975609756097562,-4.939024390243903,-0.853515625,0.255859375,0.41796875
