,ts,id,Gx,Gy,Gz,Ax,Ay,Az
0,-0.324,IMU0,-0.7317073170731708,0.1829268292682927,-0.30487804878048785,0.916015625,0.001953125,-0.44921875
1,-0.324,IMU1,1.6463414634146343,-0.9756097560975611,-0.06097560975609757,0.9072265625,0.01953125,-0.4423828125
2,-0.324,IMU2,0.3658536585365854,0.7317073170731708,-0.6707317073170732,0.9013671875,-0.005859375,-0.4423828125
3,-0.314,IMU0,-0.06097560975609757,0.06097560975609757,0.12195121951219513,0.916015625,0.0087890625,-0.453125
4,-0.314,IMU1,2.25609756097561,-1.1585365853658538,0.3658536585365854,0.90625,0.0283203125,-0.447265625
5,-0.314,IMU2,0.9146341463414634,0.48780487804878053,-0.12195121951219513,0.896484375,0.005859375,-0.4443359375
6,-0.304,IMU0,-0.30487804878048785,-0.1829268292682927,0.48780487804878053,0.912109375,0.0146484375,-0.451171875
7,-0.304,IMU1,1.9512195121951221,-1.3414634146341464,0.6707317073170732,0.90234375,0.033203125,-0.4462890625
8,-0.304,IMU2,0.6707317073170732,0.3658536585365854,0.1829268292682927,0.896484375,0.009765625,-0.44140625
9,-0.294,IMU0,-0.9146341463414634,0.48780487804878053,0.1829268292682927,0.916015625,-0.0107421875,-0.439453125
10,-0.294,IMU1,1.402439024390244,-0.7317073170731708,0.3658536585365854,0.9052734375,0.005859375,-0.4345703125
11,-0.294,IMU2,0.12195121951219513,0.9146341463414634,-0.1829268292682927,0.8994140625,-0.0146484375,-0.4287109375
12,-0.284,IMU0,-0.06097560975609757,0.30487804878048785,-0.30487804878048785,0.9189453125,-0.0185546875,-0.46484375
13,-0.284,IMU1,2.1951219512195124,-0.9146341463414634,-0.06097560975609757,0.908203125,0.0,-0.4560546875
14,-0.284,IMU2,0.9756097560975611,0.6707317073170732,-0.6097560975609757,0.9013671875,-0.01953125,-0.451171875
15,-0.274,IMU0,-0.3658536585365854,-0.24390243902439027,-1.2195121951219514,0.9150390625,-0.0078125,-0.44140625
16,-0.274,IMU1,1.8902439024390245,-1.402439024390244,-0.9146341463414634,0.90625,0.009765625,-0.4404296875
17,-0.274,IMU2,0.48780487804878053,0.24390243902439027,-1.524390243902439,0.904296875,-0.001953125,-0.439453125
18,-0.264,IMU0,-0.6097560975609757,0.06097560975609757,1.0365853658536586,0.9052734375,0.001953125,-0.470703125
19,-0.264,IMU1,1.707317073170732,-1.1585365853658538,1.3414634146341464,0.8955078125,0.01953125,-0.4658203125
20,-0.264,IMU2,0.426829268292683,0.30487804878048785,0.6707317073170732,0.8955078125,0.001953125,-0.46875
21,-0.254,IMU0,2.25609756097561,1.0365853658536586,2.439024390243903,0.9150390625,0.126953125,-0.4443359375
22,-0.254,IMU1,4.51219512195122,-0.12195121951219513,2.682926829268293,0.90234375,0.1435546875,-0.44921875
23,-0.254,IMU2,3.231707317073171,1.1585365853658538,2.1951219512195124,0.888671875,0.1201171875,-0.462890625
24,-0.244,IMU0,7.134146341463415,-3.536585365853659,6.158536585365854,1.033203125,0.056640625,-0.4580078125
25,-0.244,IMU1,9.51219512195122,-4.75609756097561,6.402439024390245,1.0234375,0.076171875,-0.455078125
26,-0.244,IMU2,7.987804878048781,-3.048780487804878,5.670731707317073,1.03125,0.0615234375,-0.455078125
27,-0.234,IMU0,11.28048780487805,-10.609756097560977,7.560975609756098,1.2880859375,0.12890625,-0.5537109375
28,-0.234,IMU1,13.78048780487805,-11.829268292682928,7.8048780487804885,1.27734375,0.1513671875,-0.5615234375
29,-0.234,IMU2,12.256097560975611,-10.365853658536587,7.439024390243903,1.263671875,0.1259765625,-0.568359375
30,-0.224,IMU0,14.878048780487806,-21.03658536585366,9.329268292682928,1.4345703125,0.083984375,-0.6572265625
31,-0.224,IMU1,17.5,-22.134146341463417,9.51219512195122,1.4091796875,0.1083984375,-0.658203125
32,-0.224,IMU2,15.975609756097562,-20.54878048780488,9.146341463414634,1.3994140625,0.0859375,-0.64453125
33,-0.214,IMU0,19.207317073170735,-23.414634146341466,8.414634146341465,1.5458984375,0.03125,-0.73046875
34,-0.214,IMU1,21.82926829268293,-24.390243902439025,8.719512195121952,1.5263671875,0.05859375,-0.7158203125
35,-0.214,IMU2,20.121951219512198,-22.98780487804878,8.170731707317074,1.5341796875,0.0263671875,-0.7138671875
36,-0.204,IMU0,20.853658536585368,-24.695121951219516,9.085365853658537,1.7255859375,0.0390625,-0.87890625
37,-0.204,IMU1,23.475609756097562,-25.792682926829272,9.390243902439025,1.7060546875,0.068359375,-0.859375
38,-0.204,IMU2,21.707317073170735,-24.451219512195124,8.902439024390244,1.705078125,0.0341796875,-0.8408203125
39,-0.194,IMU0,19.512195121951223,-22.25609756097561,5.548780487804878,1.8623046875,-0.080078125,-0.9521484375
40,-0.194,IMU1,22.195121951219512,-23.353658536585368,5.853658536585367,1.8408203125,-0.0498046875,-0.951171875
41,-0.194,IMU2,20.79268292682927,-22.195121951219512,5.426829268292684,1.8369140625,-0.076171875,-0.9423828125
42,-0.184,IMU0,18.414634146341466,-17.073170731707318,3.658536585365854,1.96875,0.0078125,-0.98828125
43,-0.184,IMU1,21.097560975609756,-18.231707317073173,3.963414634146342,1.951171875,0.0380859375,-0.96484375
44,-0.184,IMU2,19.75609756097561,-16.890243902439025,3.4756097560975614,1.9521484375,0.0068359375,-0.943359375
45,-0.174,IMU0,16.890243902439025,-12.865853658536587,2.3170731707317076,2.037109375,-0.0703125,-1.123046875
46,-0.174,IMU1,19.75609756097561,-14.02439024390244,2.6219512195121952,2.0205078125,-0.041015625,-1.1240234375
47,-0.174,IMU2,18.170731707317074,-12.560975609756099,2.1951219512195124,2.025390625,-0.0703125,-1.115234375
48,-0.164,IMU0,15.182926829268293,-8.78048780487805,4.634146341463415,2.0546875,-0.0556640625,-1.1083984375
49,-0.164,IMU1,17.865853658536587,-9.817073170731708,4.939024390243903,2.041015625,-0.0244140625,-1.09375
50,-0.164,IMU2,16.28048780487805,-8.353658536585366,4.451219512195122,2.0498046875,-0.05859375,-1.0859375
51,-0.154,IMU0,13.170731707317074,-6.52439024390244,9.146341463414634,2.29296875,-0.1083984375,-1.22265625
52,-0.154,IMU1,15.79268292682927,-7.682926829268293,9.451219512195122,2.2705078125,-0.07421875,-1.2119140625
53,-0.154,IMU2,14.695121951219514,-6.341463414634147,8.902439024390244,2.2724609375,-0.1083984375,-1.1982421875
54,-0.144,IMU0,10.182926829268293,-9.878048780487806,7.682926829268293,2.490234375,-0.0341796875,-1.275390625
55,-0.144,IMU1,12.621951219512196,-10.853658536585368,7.926829268292684,2.46875,0.001953125,-1.2587890625
56,-0.144,IMU2,11.28048780487805,-9.573170731707318,7.378048780487806,2.4755859375,-0.0361328125,-1.240234375
57,-0.134,IMU0,6.52439024390244,-14.329268292682928,4.573170731707317,2.6064453125,-0.091796875,-1.3564453125
58,-0.134,IMU1,8.902439024390244,-15.121951219512196,4.817073170731708,2.576171875,-0.056640625,-1.3427734375
59,-0.134,IMU2,7.317073170731708,-13.719512195121952,4.207317073170732,2.580078125,-0.0947265625,-1.3203125
60,-0.124,IMU0,0.6097560975609757,-10.853658536585368,-0.6097560975609757,2.6298828125,-0.09765625,-1.349609375
61,-0.124,IMU1,3.048780487804878,-12.195121951219512,-0.426829268292683,2.599609375,-0.060546875,-1.353515625
62,-0.124,IMU2,1.4634146341463417,-10.792682926829269,-1.0365853658536586,2.60546875,-0.099609375,-1.3427734375
63,-0.114,IMU0,-4.2682926829268295,-3.1097560975609757,-1.0365853658536586,2.73828125,0.0009765625,-1.439453125
64,-0.114,IMU1,-1.8902439024390245,-4.51219512195122,-0.853658536585366,2.7197265625,0.0390625,-1.431640625
65,-0.114,IMU2,-3.2926829268292686,-2.8658536585365857,-1.402439024390244,2.7421875,-0.00390625,-1.412109375
66,-0.104,IMU0,-0.5487804878048781,-0.3658536585365854,7.926829268292684,2.828125,0.0126953125,-1.4970703125
67,-0.104,IMU1,1.5853658536585367,-1.7682926829268295,8.109756097560977,2.810546875,0.052734375,-1.4912109375
68,-0.104,IMU2,0.5487804878048781,-0.1829268292682927,7.560975609756098,2.8330078125,0.0048828125,-1.4921875
69,-0.094,IMU0,0.9756097560975611,0.6097560975609757,13.231707317073171,2.9560546875,-0.0576171875,-1.521484375
70,-0.094,IMU1,3.231707317073171,-0.48780487804878053,13.414634146341465,2.9326171875,-0.017578125,-1.5185546875
71,-0.094,IMU2,2.0121951219512195,0.9146341463414634,13.04878048780488,2.9375,-0.06640625,-1.515625
72,-0.084,IMU0,1.7682926829268295,-4.085365853658537,12.378048780487806,3.033203125,-0.09375,-1.55859375
73,-0.084,IMU1,3.7195121951219514,-5.121951219512195,12.560975609756099,2.9951171875,-0.0517578125,-1.5537109375
74,-0.084,IMU2,3.048780487804878,-3.536585365853659,11.890243902439025,3.0,-0.0888671875,-1.5390625
75,-0.074,IMU0,0.24390243902439027,-7.926829268292684,9.207317073170733,3.1103515625,-0.041015625,-1.6611328125
76,-0.074,IMU1,2.5609756097560976,-9.085365853658537,9.451219512195122,3.07421875,0.001953125,-1.658203125
77,-0.074,IMU2,1.4634146341463417,-7.682926829268293,8.719512195121952,3.08984375,-0.0283203125,-1.65234375
78,-0.064,IMU0,1.5853658536585367,-11.341463414634147,7.25609756097561,3.1845703125,-0.0615234375,-1.744140625
79,-0.064,IMU1,3.8414634146341466,-12.378048780487806,7.500000000000001,3.1533203125,-0.021484375,-1.7294921875
80,-0.064,IMU2,2.8658536585365857,-11.036585365853659,6.7682926829268295,3.1572265625,-0.078125,-1.71484375
81,-0.054,IMU0,1.0365853658536586,-11.402439024390246,4.939024390243903,3.220703125,-0.0693359375,-1.7587890625
82,-0.054,IMU1,3.536585365853659,-12.195121951219512,5.121951219512195,3.18359375,-0.025390625,-1.75
83,-0.054,IMU2,2.073170731707317,-10.609756097560977,4.573170731707317,3.1943359375,-0.0625,-1.71484375
84,-0.044,IMU0,-1.2195121951219514,-9.756097560975611,1.4634146341463417,3.3388671875,-0.0673828125,-1.8388671875
85,-0.044,IMU1,1.4634146341463417,-10.670731707317074,1.6463414634146343,3.3037109375,-0.0224609375,-1.833984375
86,-0.044,IMU2,0.1829268292682927,-9.146341463414634,1.0365853658536586,3.31640625,-0.06640625,-1.8408203125
87,-0.034,IMU0,-1.7682926829268295,-11.097560975609756,-0.30487804878048785,3.4287109375,-0.0361328125,-1.86328125
88,-0.034,IMU1,0.3658536585365854,-12.073170731707318,-0.06097560975609757,3.388671875,0.0107421875,-1.85546875
89,-0.034,IMU2,-0.853658536585366,-10.609756097560977,-0.6097560975609757,3.404296875,-0.0283203125,-1.853515625
90,-0.024,IMU0,0.24390243902439027,-10.853658536585368,3.8414634146341466,3.498046875,-0.0439453125,-1.9384765625
91,-0.024,IMU1,2.5,-12.01219512195122,4.024390243902439,3.466796875,0.0029296875,-1.9375
92,-0.024,IMU2,1.707317073170732,-10.487804878048781,3.658536585365854,3.478515625,-0.048828125,-1.9130859375
93,-0.014,IMU0,1.6463414634146343,-12.378048780487806,8.841463414634147,3.6708984375,0.0068359375,-1.9853515625
94,-0.014,IMU1,3.5975609756097566,-13.78048780487805,9.02439024390244,3.6396484375,0.0556640625,-1.9931640625
95,-0.014,IMU2,2.5,-12.134146341463415,8.597560975609756,3.6572265625,-0.01953125,-2.0234375
96,-0.004,IMU0,-0.06097560975609757,-13.414634146341465,10.30487804878049,3.7607421875,-0.072265625,-2.048828125
97,-0.004,IMU1,2.25609756097561,-14.51219512195122,10.548780487804878,3.7138671875,-0.01953125,-2.033203125
98,-0.004,IMU2,0.3658536585365854,-13.109756097560977,9.756097560975611,3.7392578125,-0.0537109375,-2.009765625
99,0.006,IMU0,-1.2804878048780488,-15.060975609756099,7.8048780487804885,3.833984375,-0.0595703125,-2.08984375
100,0.006,IMU1,1.0975609756097562,-16.402439024390244,7.987804878048781,3.7939453125,-0.0068359375,-2.0849609375
101,0.006,IMU2,-0.426829268292683,-14.695121951219514,7.378048780487806,3.7919921875,-0.0556640625,-2.037109375
102,0.016,IMU0,-1.7682926829268295,-14.878048780487806,7.439024390243903,3.8759765625,0.013671875,-2.123046875
103,0.016,IMU1,0.12195121951219513,-16.03658536585366,7.682926829268293,3.8427734375,0.064453125,-2.119140625
104,0.016,IMU2,-1.0365853658536586,-13.78048780487805,7.317073170731708,3.8544921875,0.015625,-2.11328125
105,0.026,IMU0,-1.4634146341463417,-15.853658536585368,9.878048780487806,3.912109375,0.052734375,-2.0546875
106,0.026,IMU1,0.30487804878048785,-16.82926829268293,10.060975609756099,3.8759765625,0.1044921875,-2.05078125
107,0.026,IMU2,-1.1585365853658538,-15.365853658536587,9.756097560975611,3.8916015625,0.0517578125,-2.076171875
108,0.036,IMU0,-2.3170731707317076,-18.902439024390244,11.036585365853659,3.953125,-0.033203125,-2.0712890625
109,0.036,IMU1,0.0,-19.939024390243905,11.097560975609756,3.9052734375,0.0185546875,-2.05859375
110,0.036,IMU2,-1.7682926829268295,-18.475609756097562,10.24390243902439,3.92578125,-0.0498046875,-2.0166015625
111,0.046,IMU0,-7.01219512195122,-25.48780487804878,0.7317073170731708,3.923828125,-0.11328125,-2.041015625
112,0.046,IMU1,-5.0,-27.926829268292686,-0.1829268292682927,3.8720703125,-0.0634765625,-2.03125
113,0.046,IMU2,-5.975609756097562,-25.792682926829272,-0.24390243902439027,3.8857421875,-0.1123046875,-2.0126953125
114,0.056,IMU0,-13.658536585365855,-32.13414634146342,-9.26829268292683,3.8740234375,-0.0986328125,-2.0361328125
115,0.056,IMU1,-10.914634146341465,-33.35365853658537,-9.207317073170733,3.826171875,-0.046875,-2.0224609375
116,0.056,IMU2,-12.682926829268293,-31.951219512195124,-10.182926829268293,3.8125,-0.08203125,-1.9931640625
117,0.066,IMU0,-14.573170731707318,-36.58536585365854,-11.097560975609756,3.6884765625,-0.037109375,-2.0498046875
118,0.066,IMU1,-11.402439024390246,-36.951219512195124,-10.853658536585368,3.59765625,-0.0107421875,-2.0341796875
119,0.066,IMU2,-13.414634146341465,-35.609756097560975,-11.52439024390244,3.6376953125,-0.04296875,-2.0498046875
120,0.076,IMU0,-15.914634146341465,-29.81707317073171,-14.26829268292683,3.6025390625,-0.001953125,-2.0302734375
121,0.076,IMU1,-12.74390243902439,-29.573170731707318,-13.902439024390246,3.5693359375,0.044921875,-2.0283203125
122,0.076,IMU2,-15.182926829268293,-28.292682926829272,-14.573170731707318,3.5849609375,-0.01953125,-2.025390625
123,0.086,IMU0,-15.670731707317074,-22.439024390243905,-14.329268292682928,3.62109375,0.009765625,-1.9931640625
124,0.086,IMU1,-13.414634146341465,-23.53658536585366,-14.207317073170733,3.5908203125,0.0234375,-1.990234375
125,0.086,IMU2,-15.54878048780488,-21.890243902439025,-14.756097560975611,3.6103515625,0.001953125,-1.990234375
126,0.096,IMU0,-13.841463414634148,-21.52439024390244,-14.207317073170733,3.5888671875,-0.041015625,-2.0224609375
127,0.096,IMU1,-12.621951219512196,-22.500000000000004,-14.329268292682928,3.5673828125,0.00390625,-2.0146484375
128,0.096,IMU2,-14.085365853658537,-20.670731707317074,-14.756097560975611,3.5791015625,-0.025390625,-1.9853515625
129,0.106,IMU0,-16.402439024390244,-21.585365853658537,-18.475609756097562,3.58984375,-0.0107421875,-1.97265625
130,0.106,IMU1,-14.207317073170733,-22.621951219512198,-18.29268292682927,3.5517578125,0.037109375,-1.970703125
131,0.106,IMU2,-15.487804878048783,-20.914634146341466,-18.78048780487805,3.5458984375,-0.03125,-1.951171875
132,0.116,IMU0,-18.84146341463415,-21.52439024390244,-19.75609756097561,3.5673828125,-0.0205078125,-1.986328125
133,0.116,IMU1,-16.82926829268293,-22.439024390243905,-19.573170731707318,3.5322265625,0.07421875,-1.95703125
134,0.116,IMU2,-17.804878048780488,-20.731707317073173,-20.182926829268293,3.541015625,0.0205078125,-1.9638671875
135,0.126,IMU0,-16.890243902439025,-18.963414634146343,-19.02439024390244,3.484375,-0.0380859375,-2.0283203125
136,0.126,IMU1,-14.634146341463415,-19.878048780487806,-18.902439024390244,3.4384765625,0.0087890625,-2.0205078125
137,0.126,IMU2,-15.79268292682927,-18.597560975609756,-19.390243902439025,3.443359375,-0.056640625,-1.9921875
138,0.136,IMU0,-20.365853658536587,-8.170731707317074,-28.84146341463415,3.4580078125,-0.0810546875,-2.0458984375
139,0.136,IMU1,-18.04878048780488,-9.329268292682928,-28.658536585365855,3.4111328125,-0.0341796875,-2.0302734375
140,0.136,IMU2,-19.146341463414636,-8.170731707317074,-29.02439024390244,3.4306640625,-0.072265625,-2.0283203125
141,0.146,IMU0,-20.853658536585368,-0.9756097560975611,-31.951219512195124,3.560546875,-0.0244140625,-2.03515625
142,0.146,IMU1,-18.414634146341466,-2.1951219512195124,-31.707317073170735,3.525390625,0.0234375,-2.029296875
143,0.146,IMU2,-19.81707317073171,-0.6707317073170732,-32.31707317073171,3.5458984375,-0.0146484375,-2.029296875
144,0.156,IMU0,-20.0,-1.2195121951219514,-31.52439024390244,3.591796875,-0.0302734375,-2.0283203125
145,0.156,IMU1,-17.865853658536587,-2.25609756097561,-31.280487804878053,3.5546875,0.017578125,-2.021484375
146,0.156,IMU2,-19.085365853658537,-0.426829268292683,-31.82926829268293,3.568359375,-0.0185546875,-2.0068359375
147,0.166,IMU0,-20.975609756097562,-4.207317073170732,-34.390243902439025,3.5888671875,-0.0595703125,-2.0107421875
148,0.166,IMU1,-18.597560975609756,-5.365853658536586,-34.207317073170735,3.548828125,-0.0126953125,-2.00390625
149,0.166,IMU2,-20.182926829268293,-3.9024390243902443,-34.69512195121951,3.560546875,-0.0439453125,-1.97265625
150,0.176,IMU0,-22.5609756097561,-6.341463414634147,-39.51219512195122,3.552734375,-0.021484375,-1.98828125
151,0.176,IMU1,-20.0,-8.048780487804878,-39.390243902439025,3.51171875,0.0244140625,-1.9892578125
152,0.176,IMU2,-21.646341463414636,-5.853658536585367,-39.87804878048781,3.5234375,-0.0185546875,-1.962890625
153,0.186,IMU0,-22.682926829268293,-5.121951219512195,-40.36585365853659,3.48046875,0.0087890625,-1.982421875
154,0.186,IMU1,-20.731707317073173,-6.463414634146342,-40.0609756097561,3.4443359375,0.0546875,-1.9873046875
155,0.186,IMU2,-21.646341463414636,-5.0,-40.79268292682927,3.44921875,0.0009765625,-1.970703125
156,0.196,IMU0,-21.52439024390244,-1.3414634146341464,-40.487804878048784,3.517578125,-0.0400390625,-1.9892578125
157,0.196,IMU1,-19.75609756097561,-2.8658536585365857,-40.1829268292683,3.4765625,0.0068359375,-1.9853515625
158,0.196,IMU2,-20.670731707317074,-0.9146341463414634,-40.85365853658537,3.4736328125,-0.0458984375,-1.9677734375
159,0.206,IMU0,-22.31707317073171,-0.5487804878048781,-42.25609756097561,3.52734375,0.0224609375,-2.013671875
160,0.206,IMU1,-20.48780487804878,-1.829268292682927,-41.951219512195124,3.4921875,0.0703125,-2.01171875
161,0.206,IMU2,-21.951219512195124,0.6097560975609757,-42.6219512195122,3.501953125,0.017578125,-2.001953125
162,0.216,IMU0,-17.804878048780488,2.1341463414634148,-35.54878048780488,3.560546875,0.060546875,-1.970703125
163,0.216,IMU1,-15.975609756097562,0.853658536585366,-35.1829268292683,3.5283203125,0.109375,-1.9677734375
164,0.216,IMU2,-17.012195121951223,2.6219512195121952,-36.03658536585366,3.5419921875,0.0576171875,-1.9599609375
165,0.226,IMU0,-12.682926829268293,0.9146341463414634,-28.170731707317074,3.544921875,0.087890625,-1.9658203125
166,0.226,IMU1,-10.426829268292684,-0.24390243902439027,-27.865853658536587,3.513671875,0.1357421875,-1.9716796875
167,0.226,IMU2,-12.134146341463415,1.6463414634146343,-28.53658536585366,3.533203125,0.0869140625,-1.970703125
168,0.236,IMU0,-10.121951219512196,1.0365853658536586,-23.231707317073173,3.5302734375,0.0205078125,-1.9912109375
169,0.236,IMU1,-7.8048780487804885,-0.1829268292682927,-22.98780487804878,3.4912109375,0.0654296875,-1.9921875
170,0.236,IMU2,-9.390243902439025,1.6463414634146343,-23.59756097560976,3.5009765625,0.01953125,-1.9853515625
171,0.246,IMU0,-10.24390243902439,-1.2804878048780488,-23.658536585365855,3.5205078125,0.078125,-1.9990234375
172,0.246,IMU1,-7.987804878048781,-2.5609756097560976,-23.29268292682927,3.4912109375,0.125,-1.998046875
173,0.246,IMU2,-9.573170731707318,-0.7926829268292683,-23.963414634146343,3.513671875,0.078125,-1.9892578125
174,0.256,IMU0,-6.402439024390245,-3.2926829268292686,-9.756097560975611,3.4931640625,0.1767578125,-1.9365234375
175,0.256,IMU1,-4.329268292682928,-4.146341463414634,-9.451219512195122,3.4697265625,0.2216796875,-1.9375
176,0.256,IMU2,-5.121951219512195,-2.5609756097560976,-10.121951219512196,3.4990234375,0.1748046875,-1.931640625
177,0.266,IMU0,-3.353658536585366,-5.365853658536586,-0.3658536585365854,3.4296875,0.1875,-1.8466796875
178,0.266,IMU1,-1.402439024390244,-6.036585365853659,-0.06097560975609757,3.3994140625,0.2333984375,-1.8427734375
179,0.266,IMU2,-2.073170731707317,-4.51219512195122,-0.6097560975609757,3.421875,0.1875,-1.8369140625
180,0.276,IMU0,-2.9268292682926833,-6.52439024390244,2.439024390243903,3.3388671875,0.15625,-1.8173828125
181,0.276,IMU1,-0.5487804878048781,-7.195121951219513,2.682926829268293,3.3017578125,0.2001953125,-1.8076171875
182,0.276,IMU2,-1.6463414634146343,-5.670731707317073,2.073170731707317,3.3154296875,0.1552734375,-1.7919921875
183,0.286,IMU0,-3.5975609756097566,-6.219512195121951,0.30487804878048785,3.2529296875,0.1484375,-1.7958984375
184,0.286,IMU1,-1.5853658536585367,-7.439024390243903,0.5487804878048781,3.21484375,0.1923828125,-1.783203125
185,0.286,IMU2,-2.1951219512195124,-5.609756097560976,0.0,3.23046875,0.1484375,-1.7666015625
186,0.296,IMU0,-5.060975609756098,-3.1097560975609757,-1.3414634146341464,3.16796875,0.177734375,-1.7685546875
187,0.296,IMU1,-2.6219512195121952,-4.573170731707317,-1.1585365853658538,3.130859375,0.2197265625,-1.7666015625
188,0.296,IMU2,-3.7195121951219514,-2.8658536585365857,-1.707317073170732,3.1494140625,0.177734375,-1.755859375
189,0.306,IMU0,-4.024390243902439,0.30487804878048785,1.0365853658536586,3.15625,0.1953125,-1.755859375
190,0.306,IMU1,-1.2804878048780488,-1.4634146341463417,1.2804878048780488,3.123046875,0.23828125,-1.751953125
191,0.306,IMU2,-2.7439024390243905,0.426829268292683,0.853658536585366,3.140625,0.201171875,-1.736328125
192,0.316,IMU0,-2.5609756097560976,-0.5487804878048781,4.329268292682928,3.12890625,0.15234375,-1.7392578125
193,0.316,IMU1,0.06097560975609757,-2.073170731707317,4.51219512195122,3.087890625,0.1982421875,-1.7216796875
194,0.316,IMU2,-1.1585365853658538,-0.6097560975609757,3.8414634146341466,3.09765625,0.1611328125,-1.701171875
195,0.326,IMU0,-3.9024390243902443,-3.536585365853659,-0.9756097560975611,3.0654296875,0.1982421875,-1.7177734375
196,0.326,IMU1,0.06097560975609757,-2.073170731707317,4.51219512195122,3.087890625,0.1982421875,-1.7216796875
197,0.326,IMU2,-2.6219512195121952,-3.1097560975609757,-1.3414634146341464,3.0361328125,0.20703125,-1.703125
198,0.336,IMU0,-1.8902439024390245,-4.085365853658537,0.6097560975609757,3.0048828125,0.2666015625,-1.7255859375
199,0.336,IMU1,0.5487804878048781,-5.121951219512195,0.853658536585366,2.970703125,0.3095703125,-1.7275390625
200,0.336,IMU2,-0.9146341463414634,-3.4756097560975614,0.426829268292683,2.98828125,0.2822265625,-1.7275390625
201,0.346,IMU0,1.7682926829268295,-1.5853658536585367,7.987804878048781,2.9814453125,0.2392578125,-1.7509765625
202,0.346,IMU1,4.207317073170732,-2.8658536585365857,8.231707317073171,2.9462890625,0.28125,-1.7451171875
203,0.346,IMU2,2.682926829268293,-1.524390243902439,7.865853658536586,2.966796875,0.244140625,-1.728515625
204,0.356,IMU0,2.378048780487805,2.3170731707317076,8.414634146341465,2.943359375,0.21484375,-1.7705078125
205,0.356,IMU1,4.51219512195122,1.1585365853658538,8.719512195121952,2.9013671875,0.2529296875,-1.763671875
206,0.356,IMU2,3.536585365853659,2.9268292682926833,8.170731707317074,2.90234375,0.21484375,-1.7470703125
207,0.366,IMU0,0.853658536585366,7.073170731707318,0.7317073170731708,2.98046875,0.1767578125,-1.775390625
208,0.366,IMU1,2.378048780487805,6.219512195121951,1.0975609756097562,2.9326171875,0.21484375,-1.76171875
209,0.366,IMU2,1.6463414634146343,7.865853658536586,0.30487804878048785,2.931640625,0.173828125,-1.7275390625
210,0.376,IMU0,-2.5,8.353658536585366,-4.390243902439025,2.9794921875,0.2216796875,-1.74609375
211,0.376,IMU1,-1.2195121951219514,7.500000000000001,-4.085365853658537,2.94140625,0.259765625,-1.7431640625
212,0.376,IMU2,-1.8902439024390245,9.390243902439025,-4.573170731707317,2.9404296875,0.23046875,-1.732421875
213,0.386,IMU0,-2.682926829268293,9.207317073170733,-2.6219512195121952,2.9609375,0.27734375,-1.7763671875
214,0.386,IMU1,-1.2804878048780488,8.475609756097562,-2.3170731707317076,2.92578125,0.3154296875,-1.7685546875
215,0.386,IMU2,-2.8658536585365857,10.487804878048781,-2.6219512195121952,2.9453125,0.2919921875,-1.7509765625
216,0.396,IMU0,-0.853658536585366,11.52439024390244,2.6219512195121952,2.9775390625,0.283203125,-1.7431640625
217,0.396,IMU1,0.30487804878048785,10.426829268292684,2.987804878048781,2.9453125,0.3232421875,-1.7353515625
218,0.396,IMU2,-0.9756097560975611,12.256097560975611,2.7439024390243905,2.9609375,0.2841796875,-1.716796875
219,0.406,IMU0,-3.1097560975609757,7.378048780487806,3.7195121951219514,2.998046875,0.2529296875,-1.76953125
220,0.406,IMU1,-1.6463414634146343,6.219512195121951,3.963414634146342,2.9560546875,0.2939453125,-1.76171875
221,0.406,IMU2,-2.5,8.109756097560977,3.231707317073171,2.9775390625,0.259765625,-1.7197265625
222,0.416,IMU0,-6.158536585365854,8.109756097560977,1.524390243902439,2.966796875,0.302734375,-1.771484375
223,0.416,IMU1,-5.060975609756098,6.463414634146342,1.8902439024390245,2.9296875,0.3427734375,-1.7587890625
224,0.416,IMU2,-5.426829268292684,7.926829268292684,1.1585365853658538,2.95703125,0.30859375,-1.751953125
225,0.426,IMU0,-6.646341463414635,10.30487804878049,3.414634146341464,2.9267578125,0.322265625,-1.74609375
226,0.426,IMU1,-5.365853658536586,8.78048780487805,3.780487804878049,2.8935546875,0.3623046875,-1.734375
227,0.426,IMU2,-5.853658536585367,10.30487804878049,3.1707317073170733,2.9296875,0.3232421875,-1.73828125
228,0.436,IMU0,-7.621951219512196,14.329268292682928,4.817073170731708,2.912109375,0.3955078125,-1.7333984375
229,0.436,IMU1,-5.853658536585367,12.621951219512196,5.121951219512195,2.87890625,0.435546875,-1.7236328125
230,0.436,IMU2,-6.585365853658537,14.451219512195124,4.573170731707317,2.9140625,0.3916015625,-1.732421875
231,0.446,IMU0,-7.500000000000001,15.54878048780488,5.121951219512195,2.9326171875,0.333984375,-1.7412109375
232,0.446,IMU1,-5.121951219512195,14.329268292682928,5.365853658536586,2.892578125,0.3740234375,-1.734375
233,0.446,IMU2,-7.378048780487806,16.219512195121954,4.75609756097561,2.9208984375,0.3359375,-1.7490234375
234,0.456,IMU0,-8.597560975609756,18.231707317073173,2.1341463414634148,2.890625,0.236328125,-1.6953125
235,0.456,IMU1,-6.402439024390245,17.25609756097561,2.378048780487805,2.8505859375,0.275390625,-1.6826171875
236,0.456,IMU2,-8.048780487804878,18.84146341463415,1.707317073170732,2.8671875,0.2412109375,-1.6943359375
237,0.466,IMU0,-10.792682926829269,20.54878048780488,-3.658536585365854,2.837890625,0.24609375,-1.654296875
238,0.466,IMU1,-9.146341463414634,19.75609756097561,-3.353658536585366,2.8037109375,0.28515625,-1.6513671875
239,0.466,IMU2,-10.365853658536587,21.463414634146343,-3.963414634146342,2.8251953125,0.251953125,-1.654296875
240,0.476,IMU0,-10.060975609756099,25.121951219512198,-0.7926829268292683,2.7216796875,0.2783203125,-1.6259765625
241,0.476,IMU1,-8.048780487804878,23.902439024390247,-0.48780487804878053,2.6904296875,0.3173828125,-1.619140625
242,0.476,IMU2,-8.719512195121952,25.48780487804878,-1.0975609756097562,2.69921875,0.2685546875,-1.625
243,0.486,IMU0,-4.939024390243903,30.243902439024392,6.585365853658537,2.51953125,0.341796875,-1.646484375
244,0.486,IMU1,-3.353658536585366,29.512195121951223,7.01219512195122,2.4990234375,0.3759765625,-1.6484375
245,0.486,IMU2,-3.8414634146341466,31.89024390243903,7.01219512195122,2.51953125,0.322265625,-1.6806640625
246,0.496,IMU0,1.0975609756097562,40.1219512195122,16.76829268292683,2.47265625,0.26953125,-1.64453125
247,0.496,IMU1,3.414634146341464,39.207317073170735,17.195121951219512,2.4453125,0.302734375,-1.642578125
248,0.496,IMU2,2.1951219512195124,40.97560975609756,16.76829268292683,2.462890625,0.23828125,-1.64453125
249,0.506,IMU0,3.963414634146342,44.32926829268293,20.0609756097561,2.5146484375,0.2666015625,-1.5927734375
250,0.506,IMU1,5.2439024390243905,43.23170731707317,20.54878048780488,2.4912109375,0.302734375,-1.6015625
251,0.506,IMU2,4.451219512195122,45.243902439024396,20.54878048780488,2.4951171875,0.2431640625,-1.6181640625
252,0.516,IMU0,2.9268292682926833,43.78048780487805,15.426829268292684,2.6005859375,0.17578125,-1.6455078125
253,0.516,IMU1,4.390243902439025,42.6829268292683,15.670731707317074,2.5615234375,0.21484375,-1.6337890625
254,0.516,IMU2,2.6219512195121952,44.390243902439025,14.756097560975611,2.556640625,0.1884765625,-1.63671875
255,0.526,IMU0,8.414634146341465,45.00000000000001,19.573170731707318,2.37890625,0.3134765625,-1.67578125
256,0.526,IMU1,10.365853658536587,44.08536585365854,20.0,2.35546875,0.3486328125,-1.6796875
257,0.526,IMU2,10.365853658536587,46.21951219512196,20.121951219512198,2.373046875,0.314453125,-1.7255859375
258,0.536,IMU0,11.52439024390244,62.926829268292686,27.682926829268297,2.287109375,0.23828125,-1.63671875
259,0.536,IMU1,14.207317073170733,62.07317073170732,28.170731707317074,2.2578125,0.2705078125,-1.63671875
260,0.536,IMU2,13.29268292682927,63.78048780487806,27.926829268292686,2.2939453125,0.2431640625,-1.630859375
261,0.546,IMU0,12.560975609756099,74.75609756097562,24.207317073170735,2.314453125,0.1845703125,-1.6513671875
262,0.546,IMU1,13.841463414634148,74.20731707317074,24.81707317073171,2.2763671875,0.21875,-1.640625
263,0.546,IMU2,12.682926829268293,76.40243902439025,23.719512195121954,2.30859375,0.1884765625,-1.609375
264,0.556,IMU0,8.353658536585366,82.5609756097561,16.28048780487805,2.3681640625,0.236328125,-1.6396484375
265,0.556,IMU1,9.695121951219512,81.64634146341464,16.82926829268293,2.333984375,0.2705078125,-1.6279296875
266,0.556,IMU2,9.02439024390244,83.29268292682927,16.158536585365855,2.3671875,0.2412109375,-1.6103515625
267,0.566,IMU0,7.195121951219513,83.65853658536587,16.76829268292683,2.392578125,0.298828125,-1.681640625
268,0.566,IMU1,8.902439024390244,83.04878048780489,17.378048780487806,2.361328125,0.3359375,-1.677734375
269,0.566,IMU2,7.621951219512196,84.75609756097562,17.134146341463417,2.39453125,0.31640625,-1.6533203125
270,0.576,IMU0,8.292682926829269,87.25609756097562,16.646341463414636,2.349609375,0.2841796875,-1.72265625
271,0.576,IMU1,9.573170731707318,86.89024390243904,17.31707317073171,2.310546875,0.318359375,-1.7099609375
272,0.576,IMU2,9.26829268292683,88.41463414634147,16.646341463414636,2.3271484375,0.3037109375,-1.67578125
273,0.586,IMU0,5.548780487804878,95.54878048780489,10.182926829268293,2.41015625,0.259765625,-1.76953125
274,0.586,IMU1,6.646341463414635,95.00000000000001,10.914634146341465,2.3662109375,0.29296875,-1.76953125
275,0.586,IMU2,6.402439024390245,97.07317073170732,9.939024390243903,2.3759765625,0.287109375,-1.7177734375
276,0.596,IMU0,3.7195121951219514,102.8048780487805,1.829268292682927,2.404296875,0.2724609375,-1.8427734375
277,0.596,IMU1,4.939024390243903,102.19512195121952,2.5,2.365234375,0.3056640625,-1.8349609375
278,0.596,IMU2,5.2439024390243905,104.32926829268294,1.8902439024390245,2.3798828125,0.296875,-1.7939453125
279,0.606,IMU0,4.51219512195122,109.75609756097562,-0.9756097560975611,2.42578125,0.2724609375,-1.8701171875
280,0.606,IMU1,5.365853658536586,109.57317073170732,-0.24390243902439027,2.3935546875,0.3056640625,-1.8603515625
281,0.606,IMU2,5.121951219512195,111.21951219512196,-0.48780487804878053,2.4375,0.298828125,-1.8212890625
282,0.616,IMU0,7.01219512195122,110.2439024390244,4.329268292682928,2.4951171875,0.3271484375,-1.8212890625
283,0.616,IMU1,8.170731707317074,109.26829268292684,5.0,2.470703125,0.3583984375,-1.8251953125
284,0.616,IMU2,7.987804878048781,109.63414634146342,5.731707317073171,2.5205078125,0.3310546875,-1.8046875
285,0.626,IMU0,7.8048780487804885,102.8048780487805,7.25609756097561,2.435546875,0.2373046875,-1.8466796875
286,0.626,IMU1,9.207317073170733,100.60975609756099,7.8048780487804885,2.40625,0.2861328125,-1.83984375
287,0.626,IMU2,8.292682926829269,102.37804878048782,7.500000000000001,2.4130859375,0.2490234375,-1.810546875
288,0.636,IMU0,6.7682926829268295,100.42682926829269,6.341463414634147,2.296875,0.2041015625,-1.8603515625
289,0.636,IMU1,7.682926829268293,99.02439024390245,6.829268292682928,2.2587890625,0.232421875,-1.8544921875
290,0.636,IMU2,7.317073170731708,100.85365853658537,6.52439024390244,2.255859375,0.2158203125,-1.7958984375
291,0.646,IMU0,6.585365853658537,100.3048780487805,5.487804878048781,2.1826171875,0.26953125,-1.861328125
292,0.646,IMU1,7.500000000000001,100.00000000000001,6.2804878048780495,2.1279296875,0.294921875,-1.787109375
293,0.646,IMU2,7.743902439024391,101.09756097560977,5.7926829268292686,2.1416015625,0.2646484375,-1.775390625
294,0.656,IMU0,6.52439024390244,103.10975609756099,8.231707317073171,2.1083984375,0.2412109375,-1.859375
295,0.656,IMU1,7.743902439024391,102.50000000000001,8.902439024390244,2.060546875,0.294921875,-1.8212890625
296,0.656,IMU2,7.500000000000001,103.90243902439025,8.475609756097562,2.072265625,0.2646484375,-1.8125
297,0.666,IMU0,8.658536585365855,102.13414634146342,14.634146341463415,2.1513671875,0.263671875,-1.74609375
298,0.666,IMU1,9.756097560975611,101.46341463414635,15.30487804878049,2.125,0.294921875,-1.740234375
299,0.666,IMU2,10.060975609756099,102.56097560975611,14.878048780487806,2.138671875,0.2626953125,-1.732421875
300,0.676,IMU0,10.060975609756099,96.28048780487806,20.731707317073173,2.1611328125,0.25390625,-1.7548828125
301,0.676,IMU1,11.890243902439025,95.42682926829269,21.28048780487805,2.1083984375,0.2705078125,-1.697265625
302,0.676,IMU2,11.158536585365855,97.07317073170732,21.03658536585366,2.1142578125,0.2392578125,-1.689453125
303,0.686,IMU0,7.621951219512196,92.31707317073172,19.634146341463417,2.076171875,0.27734375,-1.7294921875
304,0.686,IMU1,8.414634146341465,91.64634146341464,20.182926829268293,2.0419921875,0.30859375,-1.728515625
305,0.686,IMU2,8.414634146341465,92.7439024390244,19.878048780487806,2.0439453125,0.28125,-1.7177734375
306,0.696,IMU0,11.219512195121952,89.26829268292684,21.951219512195124,2.0458984375,0.25390625,-1.7099609375
307,0.696,IMU1,12.01219512195122,88.96341463414635,22.5609756097561,2.0107421875,0.2822265625,-1.7021484375
308,0.696,IMU2,12.80487804878049,89.39024390243904,22.134146341463417,2.01171875,0.251953125,-1.68359375
309,0.706,IMU0,9.451219512195122,82.13414634146342,19.878048780487806,2.0,0.30859375,-1.67578125
310,0.706,IMU1,10.30487804878049,81.58536585365854,20.54878048780488,1.9638671875,0.3359375,-1.677734375
311,0.706,IMU2,10.853658536585368,82.50000000000001,20.0609756097561,1.962890625,0.3037109375,-1.6669921875
312,0.716,IMU0,9.51219512195122,81.03658536585367,19.878048780487806,1.9453125,0.33203125,-1.751953125
313,0.716,IMU1,11.036585365853659,80.1219512195122,20.48780487804878,1.9150390625,0.359375,-1.7490234375
314,0.716,IMU2,11.707317073170733,81.03658536585367,19.939024390243905,1.923828125,0.33203125,-1.732421875
315,0.726,IMU0,11.28048780487805,78.41463414634147,22.621951219512198,1.931640625,0.3466796875,-1.759765625
316,0.726,IMU1,12.865853658536587,77.8048780487805,23.170731707317074,1.9013671875,0.37109375,-1.7578125
317,0.726,IMU2,13.353658536585368,78.71951219512196,22.682926829268293,1.9091796875,0.3369140625,-1.7548828125
318,0.736,IMU0,11.28048780487805,75.60975609756098,22.073170731707318,1.9521484375,0.3349609375,-1.74609375
319,0.736,IMU1,13.04878048780488,75.3048780487805,22.5609756097561,1.921875,0.3623046875,-1.74609375
320,0.736,IMU2,12.80487804878049,76.15853658536587,22.073170731707318,1.92578125,0.3330078125,-1.744140625
321,0.746,IMU0,9.146341463414634,70.54878048780489,18.414634146341466,2.0302734375,0.2841796875,-1.7255859375
322,0.746,IMU1,10.670731707317074,69.87804878048782,18.84146341463415,1.994140625,0.3115234375,-1.7216796875
323,0.746,IMU2,10.609756097560977,70.60975609756098,18.170731707317074,2.0068359375,0.2890625,-1.7080078125
324,0.756,IMU0,7.439024390243903,59.75609756097562,15.000000000000002,1.9970703125,0.3896484375,-1.7568359375
325,0.756,IMU1,8.902439024390244,59.32926829268293,15.487804878048783,1.9638671875,0.4169921875,-1.75
326,0.756,IMU2,8.597560975609756,60.54878048780488,14.939024390243905,1.974609375,0.3916015625,-1.734375
327,0.766,IMU0,7.865853658536586,55.85365853658537,15.914634146341465,2.0458984375,0.3525390625,-1.8037109375
328,0.766,IMU1,9.390243902439025,55.487804878048784,16.463414634146343,2.0087890625,0.3818359375,-1.7900390625
329,0.766,IMU2,9.26829268292683,56.40243902439025,15.79268292682927,2.015625,0.3662109375,-1.7607421875
330,0.776,IMU0,6.829268292682928,47.07317073170732,13.353658536585368,2.048828125,0.2822265625,-1.8154296875
331,0.776,IMU1,8.78048780487805,46.40243902439025,13.719512195121952,2.005859375,0.3115234375,-1.7998046875
332,0.776,IMU2,7.743902439024391,47.804878048780495,13.109756097560977,2.005859375,0.302734375,-1.77734375
333,0.786,IMU0,4.939024390243903,39.146341463414636,8.719512195121952,2.01171875,0.3095703125,-1.8369140625
334,0.786,IMU1,6.7682926829268295,38.29268292682927,9.146341463414634,1.9775390625,0.3388671875,-1.82421875
335,0.786,IMU2,5.853658536585367,39.87804878048781,8.658536585365855,1.9921875,0.3232421875,-1.7802734375
336,0.796,IMU0,3.536585365853659,30.487804878048784,5.609756097560976,2.09375,0.251953125,-1.837890625
337,0.796,IMU1,5.487804878048781,30.121951219512198,6.036585365853659,2.0537109375,0.2822265625,-1.8271484375
338,0.796,IMU2,4.329268292682928,31.52439024390244,5.2439024390243905,2.05859375,0.25390625,-1.787109375
339,0.806,IMU0,3.4756097560975614,22.439024390243905,4.390243902439025,2.15625,0.29296875,-1.80859375
340,0.806,IMU1,5.975609756097562,21.402439024390247,4.75609756097561,2.123046875,0.3212890625,-1.80078125
341,0.806,IMU2,4.451219512195122,22.378048780487806,4.146341463414634,2.1396484375,0.296875,-1.8203125
342,0.816,IMU0,3.7195121951219514,12.987804878048781,7.195121951219513,2.109375,0.3779296875,-1.8623046875
343,0.816,IMU1,5.365853658536586,11.707317073170733,7.682926829268293,2.0869140625,0.4072265625,-1.859375
344,0.816,IMU2,4.024390243902439,13.414634146341465,7.317073170731708,2.10546875,0.365234375,-1.84765625
345,0.826,IMU0,2.987804878048781,8.170731707317074,10.548780487804878,2.1318359375,0.2802734375,-1.8271484375
346,0.826,IMU1,5.548780487804878,6.341463414634147,10.914634146341465,2.099609375,0.306640625,-1.8154296875
347,0.826,IMU2,2.804878048780488,7.743902439024391,10.30487804878049,2.0966796875,0.2587890625,-1.853515625
348,0.836,IMU0,0.3658536585365854,4.939024390243903,9.390243902439025,2.13671875,0.2265625,-1.9267578125
349,0.836,IMU1,3.1097560975609757,3.963414634146342,9.634146341463415,2.1025390625,0.2529296875,-1.9189453125
350,0.836,IMU2,0.9146341463414634,5.365853658536586,9.085365853658537,2.099609375,0.21875,-1.921875
351,0.846,IMU0,0.9146341463414634,3.353658536585366,10.426829268292684,2.1845703125,0.251953125,-1.99609375
352,0.846,IMU1,3.7195121951219514,2.25609756097561,10.670731707317074,2.1552734375,0.2802734375,-1.9892578125
353,0.846,IMU2,2.3170731707317076,3.536585365853659,10.30487804878049,2.15234375,0.2451171875,-1.9677734375
354,0.856,IMU0,-1.2804878048780488,2.25609756097561,10.182926829268293,2.1748046875,0.2197265625,-1.93359375
355,0.856,IMU1,1.2804878048780488,0.853658536585366,10.426829268292684,2.138671875,0.2490234375,-1.9306640625
356,0.856,IMU2,-0.7926829268292683,1.829268292682927,9.878048780487806,2.1455078125,0.2392578125,-1.9072265625
357,0.866,IMU0,-1.8902439024390245,2.5609756097560976,7.682926829268293,2.1708984375,0.2470703125,-1.9306640625
358,0.866,IMU1,1.0365853658536586,0.6097560975609757,7.865853658536586,2.1318359375,0.2802734375,-1.919921875
359,0.866,IMU2,-1.402439024390244,1.5853658536585367,7.134146341463415,2.15625,0.2646484375,-1.9052734375
360,0.876,IMU0,-1.8902439024390245,2.5609756097560976,7.682926829268293,2.1708984375,0.2470703125,-1.9306640625
361,0.876,IMU1,2.073170731707317,0.9756097560975611,7.439024390243903,2.1728515625,0.3671875,-1.912109375
362,0.876,IMU2,0.24390243902439027,2.378048780487805,7.01219512195122,2.16796875,0.3193359375,-1.9189453125
363,0.886,IMU0,1.524390243902439,1.4634146341463417,10.0,2.34765625,0.40234375,-1.93359375
364,0.886,IMU1,4.2682926829268295,-0.6097560975609757,10.182926829268293,2.310546875,0.4375,-1.9306640625
365,0.886,IMU2,2.9268292682926833,0.7926829268292683,9.451219512195122,2.3310546875,0.4052734375,-1.939453125
366,0.896,IMU0,2.9268292682926833,-5.0,6.646341463414635,2.4248046875,0.3984375,-1.8984375
367,0.896,IMU1,4.878048780487806,-6.52439024390244,6.890243902439025,2.3837890625,0.4287109375,-1.9052734375
368,0.896,IMU2,3.780487804878049,-5.426829268292684,6.097560975609756,2.3798828125,0.3916015625,-1.908203125
369,0.906,IMU0,0.12195121951219513,-11.402439024390246,1.9512195121951221,2.41796875,0.4052734375,-1.9697265625
370,0.906,IMU1,3.1707317073170733,-13.109756097560977,2.073170731707317,2.380859375,0.435546875,-1.9638671875
371,0.906,IMU2,1.9512195121951221,-11.341463414634147,1.7682926829268295,2.3779296875,0.4111328125,-1.958984375
372,0.916,IMU0,1.0975609756097562,-11.707317073170733,6.036585365853659,2.3994140625,0.453125,-1.97265625
373,0.916,IMU1,4.024390243902439,-13.29268292682927,6.219512195121951,2.36328125,0.4853515625,-1.9609375
374,0.916,IMU2,3.2926829268292686,-11.890243902439025,5.914634146341464,2.3896484375,0.44921875,-1.9462890625
375,0.926,IMU0,1.7682926829268295,-14.329268292682928,9.207317073170733,2.416015625,0.4580078125,-1.9013671875
376,0.926,IMU1,4.573170731707317,-15.54878048780488,9.26829268292683,2.3740234375,0.4892578125,-1.896484375
377,0.926,IMU2,3.048780487804878,-14.02439024390244,8.536585365853659,2.3681640625,0.439453125,-1.8994140625
378,0.936,IMU0,-1.829268292682927,-16.951219512195124,2.6219512195121952,2.41796875,0.380859375,-1.8720703125
379,0.936,IMU1,0.1829268292682927,-18.10975609756098,2.7439024390243905,2.3662109375,0.4111328125,-1.8603515625
380,0.936,IMU2,-0.853658536585366,-16.34146341463415,2.682926829268293,2.35546875,0.3662109375,-1.875
381,0.946,IMU0,-3.1707317073170733,-16.28048780487805,-3.8414634146341466,2.3779296875,0.4033203125,-1.9609375
382,0.946,IMU1,-1.0365853658536586,-17.195121951219512,-3.7195121951219514,2.333984375,0.4326171875,-1.943359375
383,0.946,IMU2,-2.6219512195121952,-15.365853658536587,-4.695121951219512,2.33203125,0.39453125,-1.92578125
384,0.956,IMU0,-4.2682926829268295,-10.182926829268293,-4.878048780487806,2.28125,0.4794921875,-2.04296875
385,0.956,IMU1,-1.9512195121951221,-11.829268292682928,-4.75609756097561,2.251953125,0.505859375,-2.0458984375
386,0.956,IMU2,-3.536585365853659,-10.24390243902439,-5.3048780487804885,2.275390625,0.4833984375,-2.01953125
387,0.966,IMU0,-0.24390243902439027,-5.0,0.7926829268292683,2.244140625,0.400390625,-2.103515625
388,0.966,IMU1,2.1951219512195124,-6.341463414634147,0.9756097560975611,2.2041015625,0.427734375,-2.0869140625
389,0.966,IMU2,1.1585365853658538,-4.2682926829268295,0.30487804878048785,2.2158203125,0.412109375,-2.0810546875
390,0.976,IMU0,-0.48780487804878053,-7.01219512195122,1.3414634146341464,2.2138671875,0.4921875,-1.96875
391,0.976,IMU1,1.7682926829268295,-8.414634146341465,1.5853658536585367,2.1787109375,0.5205078125,-1.970703125
392,0.976,IMU2,1.1585365853658538,-6.341463414634147,0.9146341463414634,2.1875,0.474609375,-1.9775390625
393,0.986,IMU0,-1.7682926829268295,-9.695121951219512,-1.0365853658536586,2.1748046875,0.36328125,-1.9306640625
394,0.986,IMU1,0.853658536585366,-11.219512195121952,-0.9146341463414634,2.1298828125,0.390625,-1.9248046875
395,0.986,IMU2,-0.12195121951219513,-9.207317073170733,-1.2195121951219514,2.1181640625,0.3505859375,-1.9111328125
396,0.996,IMU0,-3.1097560975609757,-11.707317073170733,-5.487804878048781,2.154296875,0.45703125,-1.82421875
397,0.996,IMU1,-0.6707317073170732,-13.231707317073171,-5.3048780487804885,2.123046875,0.4794921875,-1.8349609375
398,0.996,IMU2,-2.1341463414634148,-11.646341463414634,-5.914634146341464,2.1455078125,0.4619140625,-1.8466796875
399,1.006,IMU0,-1.402439024390244,-13.231707317073171,-0.5487804878048781,2.1552734375,0.4443359375,-1.83984375
400,1.006,IMU1,0.853658536585366,-14.451219512195124,-0.30487804878048785,2.1220703125,0.4716796875,-1.841796875
401,1.006,IMU2,-0.06097560975609757,-12.621951219512196,-0.9756097560975611,2.142578125,0.44140625,-1.82421875
402,1.016,IMU0,-1.6463414634146343,-11.76829268292683,1.6463414634146343,2.150390625,0.421875,-1.8291015625
403,1.016,IMU1,0.7926829268292683,-13.109756097560977,1.8902439024390245,2.115234375,0.451171875,-1.8251953125
404,1.016,IMU2,0.1829268292682927,-11.76829268292683,1.2804878048780488,2.12109375,0.4169921875,-1.8203125
405,1.026,IMU0,-2.5609756097560976,-5.060975609756098,0.9146341463414634,2.08203125,0.3740234375,-1.8603515625
406,1.026,IMU1,-1.707317073170732,-6.158536585365854,1.1585365853658538,2.0361328125,0.3994140625,-1.85546875
407,1.026,IMU2,-1.4634146341463417,-5.0,0.6097560975609757,2.03515625,0.3720703125,-1.8408203125
408,1.036,IMU0,-5.975609756097562,2.987804878048781,-4.695121951219512,2.078125,0.3701171875,-1.84375
409,1.036,IMU1,-4.939024390243903,2.25609756097561,-4.390243902439025,2.0390625,0.3955078125,-1.83203125
410,1.036,IMU2,-5.365853658536586,3.963414634146342,-4.939024390243903,2.0439453125,0.369140625,-1.8154296875
411,1.046,IMU0,-5.182926829268293,5.487804878048781,-2.7439024390243905,2.078125,0.3876953125,-1.7802734375
412,1.046,IMU1,-3.1097560975609757,3.7195121951219514,-2.439024390243903,2.046875,0.412109375,-1.78125
413,1.046,IMU2,-4.024390243902439,4.939024390243903,-3.048780487804878,2.06640625,0.3876953125,-1.771484375
414,1.056,IMU0,-3.8414634146341466,2.6219512195121952,-1.707317073170732,2.033203125,0.36328125,-1.8369140625
415,1.056,IMU1,-1.8902439024390245,0.9756097560975611,-1.4634146341463417,1.998046875,0.3876953125,-1.83203125
416,1.056,IMU2,-2.3170731707317076,2.439024390243903,-2.073170731707317,2.005859375,0.3583984375,-1.8154296875
417,1.066,IMU0,-4.817073170731708,0.1829268292682927,-4.146341463414634,2.021484375,0.412109375,-1.7802734375
418,1.066,IMU1,-2.5609756097560976,-0.9756097560975611,-3.9024390243902443,1.9931640625,0.4384765625,-1.77734375
419,1.066,IMU2,-3.414634146341464,0.30487804878048785,-4.451219512195122,2.0048828125,0.408203125,-1.763671875
420,1.076,IMU0,-3.658536585365854,-3.963414634146342,-0.6097560975609757,2.0322265625,0.4326171875,-1.736328125
421,1.076,IMU1,-0.48780487804878053,-5.426829268292684,-0.3658536585365854,2.0078125,0.4541015625,-1.7470703125
422,1.076,IMU2,-2.439024390243903,-4.695121951219512,-0.9146341463414634,2.02734375,0.4267578125,-1.7431640625
423,1.086,IMU0,-1.402439024390244,-8.597560975609756,5.182926829268293,2.0087890625,0.3642578125,-1.71875
424,1.086,IMU1,0.9756097560975611,-9.51219512195122,5.426829268292684,1.974609375,0.388671875,-1.7021484375
425,1.086,IMU2,0.06097560975609757,-9.085365853658537,4.878048780487806,1.982421875,0.361328125,-1.6806640625
426,1.096,IMU0,-1.7682926829268295,-7.560975609756098,5.853658536585367,1.8798828125,0.349609375,-1.705078125
427,1.096,IMU1,1.0975609756097562,-8.841463414634147,6.036585365853659,1.84375,0.373046875,-1.6943359375
428,1.096,IMU2,-0.12195121951219513,-7.987804878048781,5.426829268292684,1.849609375,0.349609375,-1.67578125
429,1.106,IMU0,-3.414634146341464,-1.5853658536585367,-0.6707317073170732,1.859375,0.373046875,-1.640625
430,1.106,IMU1,-0.853658536585366,-2.439024390243903,-0.426829268292683,1.8193359375,0.392578125,-1.6396484375
431,1.106,IMU2,-1.829268292682927,-1.829268292682927,-1.2195121951219514,1.8212890625,0.3642578125,-1.6298828125
432,1.116,IMU0,-4.146341463414634,0.0,-4.878048780487806,1.8720703125,0.388671875,-1.6337890625
433,1.116,IMU1,-1.707317073170732,-0.30487804878048785,-4.573170731707317,1.8408203125,0.4072265625,-1.6357421875
434,1.116,IMU2,-3.963414634146342,0.5487804878048781,-5.182926829268293,1.8486328125,0.3779296875,-1.6357421875
435,1.126,IMU0,-6.341463414634147,1.5853658536585367,-12.560975609756099,1.86328125,0.201171875,-1.6015625
436,1.126,IMU1,-4.573170731707317,0.7926829268292683,-12.317073170731708,1.8095703125,0.2138671875,-1.5986328125
437,1.126,IMU2,-5.548780487804878,1.7682926829268295,-13.29268292682927,1.7890625,0.1767578125,-1.57421875
438,1.136,IMU0,-17.378048780487806,0.06097560975609757,-39.51219512195122,1.7646484375,0.1533203125,-1.5966796875
439,1.136,IMU1,-16.03658536585366,-1.0975609756097562,-39.146341463414636,1.7099609375,0.1708984375,-1.5751953125
440,1.136,IMU2,-17.134146341463417,0.6707317073170732,-40.1219512195122,1.685546875,0.1513671875,-1.546875
441,1.146,IMU0,-27.134146341463417,-2.073170731707317,-59.39024390243903,1.6884765625,0.1513671875,-1.5341796875
442,1.146,IMU1,-25.731707317073173,-3.7195121951219514,-59.085365853658544,1.634765625,0.1728515625,-1.5146484375
443,1.146,IMU2,-26.951219512195124,-1.3414634146341464,-60.060975609756106,1.6083984375,0.1474609375,-1.4755859375
444,1.156,IMU0,-34.51219512195122,-4.451219512195122,-73.96341463414635,1.3916015625,0.1728515625,-1.388671875
445,1.156,IMU1,-32.86585365853659,-6.585365853658537,-73.59756097560977,1.353515625,0.19140625,-1.369140625
446,1.156,IMU2,-33.23170731707317,-4.51219512195122,-74.57317073170732,1.330078125,0.1640625,-1.3291015625
447,1.166,IMU0,-44.57317073170732,-4.390243902439025,-91.21951219512196,0.95703125,0.0390625,-1.09765625
448,1.166,IMU1,-44.146341463414636,-5.975609756097562,-93.78048780487806,0.9091796875,0.0576171875,-1.078125
449,1.166,IMU2,-44.32926829268293,-4.024390243902439,-92.37804878048782,0.880859375,0.0537109375,-1.083984375
450,1.176,IMU0,-59.63414634146342,-5.0,-124.63414634146342,0.55859375,-0.0244140625,-0.9140625
451,1.176,IMU1,-58.04878048780488,-7.378048780487806,-124.39024390243904,0.5078125,-0.0126953125,-0.90234375
452,1.176,IMU2,-58.90243902439025,-4.390243902439025,-125.97560975609757,0.4443359375,-0.037109375,-0.884765625
453,1.186,IMU0,-74.63414634146342,-7.01219512195122,-160.1219512195122,0.13671875,-0.0771484375,-0.7001953125
454,1.186,IMU1,-75.2439024390244,-9.695121951219512,-164.08536585365854,0.0380859375,-0.1142578125,-0.6337890625
455,1.186,IMU2,-74.63414634146342,-6.402439024390245,-161.89024390243904,0.025390625,-0.0830078125,-0.6416015625
456,1.196,IMU0,-91.21951219512196,3.048780487804878,-200.609756097561,-0.2109375,0.029296875,-0.5673828125
457,1.196,IMU1,-91.95121951219512,1.9512195121951221,-204.26829268292684,-0.251953125,0.04296875,-0.552734375
458,1.196,IMU2,-91.52439024390245,3.8414634146341466,-202.50000000000003,-0.2890625,0.0458984375,-0.5224609375
459,1.206,IMU0,-109.39024390243904,12.500000000000002,-240.06097560975613,-0.5693359375,-0.1904296875,-0.392578125
460,1.206,IMU1,-109.39024390243904,9.573170731707318,-239.57317073170734,-0.6298828125,-0.21484375,-0.3720703125
461,1.206,IMU2,-108.59756097560977,12.560975609756099,-238.0487804878049,-0.666015625,-0.1806640625,-0.388671875
462,1.216,IMU0,-125.3048780487805,12.073170731707318,-281.95121951219517,-0.6630859375,-0.11328125,-0.30859375
463,1.216,IMU1,-125.42682926829269,9.146341463414634,-281.2804878048781,-0.6904296875,-0.1552734375,-0.30859375
464,1.216,IMU2,-124.69512195121952,12.256097560975611,-280.2439024390244,-0.7177734375,-0.08203125,-0.2568359375
465,1.226,IMU0,-141.28048780487805,16.34146341463415,-310.9756097560976,-1.00390625,-0.2578125,-0.1201171875
466,1.226,IMU1,-141.76829268292684,13.170731707317074,-310.3658536585366,-1.015625,-0.240234375,-0.0986328125
467,1.226,IMU2,-140.7926829268293,17.378048780487806,-310.2439024390244,-1.04296875,-0.2509765625,-0.0830078125
468,1.236,IMU0,-147.07317073170734,1.8902439024390245,-320.8536585365854,-1.2412109375,-0.279296875,0.1240234375
469,1.236,IMU1,-147.37804878048783,-1.524390243902439,-320.1829268292683,-1.2314453125,-0.2666015625,0.1376953125
470,1.236,IMU2,-147.6219512195122,3.780487804878049,-321.0975609756098,-1.2548828125,-0.2275390625,0.11328125
471,1.246,IMU0,-150.4878048780488,-14.695121951219514,-324.87804878048786,-1.2734375,-0.5341796875,0.1962890625
472,1.246,IMU1,-150.7317073170732,-18.04878048780488,-324.32926829268297,-1.2734375,-0.5224609375,0.21875
473,1.246,IMU2,-151.28048780487805,-13.29268292682927,-325.1219512195122,-1.2958984375,-0.4580078125,0.1513671875
474,1.256,IMU0,-164.20731707317074,-28.292682926829272,-343.7804878048781,-1.19921875,-0.5986328125,0.095703125
475,1.256,IMU1,-164.51219512195124,-31.951219512195124,-343.3536585365854,-1.212890625,-0.578125,0.126953125
476,1.256,IMU2,-164.20731707317074,-27.195121951219516,-343.1707317073171,-1.2734375,-0.5537109375,0.11328125
477,1.266,IMU0,-185.06097560975613,-34.93902439024391,-374.45121951219517,-1.2177734375,-0.87890625,0.04296875
478,1.266,IMU1,-185.4878048780488,-38.90243902439025,-374.26829268292687,-1.2470703125,-0.85546875,0.0859375
479,1.266,IMU2,-184.93902439024393,-34.451219512195124,-373.4146341463415,-1.3134765625,-0.806640625,0.0634765625
480,1.276,IMU0,-212.01219512195124,-38.170731707317074,-419.63414634146346,-1.21875,-1.15234375,0.0546875
481,1.276,IMU1,-212.8658536585366,-42.50000000000001,-419.45121951219517,-1.265625,-1.1201171875,0.0859375
482,1.276,IMU2,-212.25609756097563,-37.926829268292686,-418.109756097561,-1.35546875,-1.06640625,0.103515625
483,1.286,IMU0,-249.57317073170734,-33.47560975609756,-489.69512195121956,-1.15234375,-1.234375,-0.0166015625
484,1.286,IMU1,-250.85365853658539,-38.41463414634147,-489.51219512195127,-1.216796875,-1.185546875,0.03125
485,1.286,IMU2,-249.32926829268294,-33.04878048780488,-487.19512195121956,-1.3369140625,-1.1103515625,0.056640625
486,1.296,IMU0,-286.1585365853659,-22.682926829268293,-569.0853658536586,-1.15234375,-1.28125,-0.001953125
487,1.296,IMU1,-288.1707317073171,-28.10975609756098,-568.7804878048781,-1.2109375,-1.208984375,0.0478515625
488,1.296,IMU2,-286.70731707317077,-22.5609756097561,-566.9512195121952,-1.3251953125,-1.1279296875,0.072265625
489,1.306,IMU0,-313.1707317073171,-14.817073170731708,-630.0609756097562,-1.25390625,-1.2421875,0.1728515625
490,1.306,IMU1,-315.6707317073171,-20.670731707317074,-629.3902439024391,-1.283203125,-1.1572265625,0.1962890625
491,1.306,IMU2,-315.2439024390244,-13.719512195121952,-629.2682926829269,-1.3525390625,-1.048828125,0.1826171875
492,1.316,IMU0,-321.89024390243907,-19.02439024390244,-664.6341463414635,-1.271484375,-1.2099609375,0.22265625
493,1.316,IMU1,-324.51219512195127,-25.121951219512198,-663.9024390243903,-1.279296875,-1.11328125,0.2314453125
494,1.316,IMU2,-324.51219512195127,-18.10975609756098,-664.6341463414635,-1.349609375,-1.021484375,0.2275390625
495,1.326,IMU0,-325.7317073170732,-19.573170731707318,-691.6463414634147,-1.07421875,-1.0517578125,0.072265625
496,1.326,IMU1,-328.4756097560976,-25.60975609756098,-690.7926829268293,-1.0869140625,-0.9462890625,0.07421875
497,1.326,IMU2,-328.719512195122,-18.78048780487805,-691.5853658536586,-1.1572265625,-0.845703125,0.060546875
498,1.336,IMU0,-319.26829268292687,-13.353658536585368,-700.2439024390244,-0.9677734375,-0.9482421875,0.0810546875
499,1.336,IMU1,-322.25609756097566,-19.26829268292683,-699.0853658536586,-0.9453125,-0.84375,0.072265625
500,1.336,IMU2,-322.8658536585366,-12.500000000000002,-701.4634146341464,-0.9619140625,-0.728515625,0.03515625
501,1.346,IMU0,-304.63414634146346,-14.329268292682928,-689.6951219512196,-0.7841796875,-0.9677734375,-0.0263671875
502,1.346,IMU1,-307.6829268292683,-20.0,-688.4146341463415,-0.7626953125,-0.8671875,-0.033203125
503,1.346,IMU2,-308.3536585365854,-13.536585365853659,-690.7317073170732,-0.78515625,-0.75,-0.0419921875
504,1.356,IMU0,-305.3048780487805,-11.036585365853659,-697.5000000000001,-0.5478515625,-1.1435546875,-0.1552734375
505,1.356,IMU1,-308.5975609756098,-16.646341463414636,-696.2804878048781,-0.5595703125,-1.03515625,-0.138671875
506,1.356,IMU2,-308.5365853658537,-10.365853658536587,-697.6829268292684,-0.611328125,-0.9228515625,-0.1416015625
507,1.366,IMU0,-318.4146341463415,-6.7682926829268295,-730.9756097560976,-0.4716796875,-1.140625,-0.1337890625
508,1.366,IMU1,-322.01219512195127,-12.682926829268293,-729.6951219512196,-0.4970703125,-1.0166015625,-0.1015625
509,1.366,IMU2,-321.2804878048781,-5.2439024390243905,-730.7317073170732,-0.5556640625,-0.9052734375,-0.095703125
510,1.376,IMU0,-332.8048780487805,-5.975609756097562,-763.1707317073171,-0.462890625,-0.9990234375,-0.0751953125
511,1.376,IMU1,-336.6463414634147,-12.01219512195122,-761.8902439024391,-0.4736328125,-0.86328125,-0.0576171875
512,1.376,IMU2,-335.9756097560976,-4.634146341463415,-763.3536585365854,-0.5185546875,-0.7470703125,-0.0537109375
513,1.386,IMU0,-335.1829268292683,-2.25609756097561,-771.829268292683,-0.30078125,-0.7705078125,-0.02734375
514,1.386,IMU1,-339.0243902439025,-8.475609756097562,-770.4268292682927,-0.2841796875,-0.6357421875,-0.029296875
515,1.386,IMU2,-338.7804878048781,-0.853658536585366,-772.5000000000001,-0.3017578125,-0.5087890625,-0.0263671875
516,1.396,IMU0,-334.75609756097566,-3.231707317073171,-764.5121951219513,-0.1005859375,-0.634765625,-0.2353515625
517,1.396,IMU1,-338.5975609756098,-9.329268292682928,-763.109756097561,-0.078125,-0.5,-0.23828125
518,1.396,IMU2,-338.2926829268293,-2.0121951219512195,-765.4268292682927,-0.0859375,-0.3740234375,-0.224609375
519,1.406,IMU0,-331.76829268292687,-7.621951219512196,-751.5853658536586,0.10546875,-0.615234375,-0.2099609375
520,1.406,IMU1,-335.3658536585366,-13.658536585365855,-750.1829268292684,0.12890625,-0.48046875,-0.208984375
521,1.406,IMU2,-335.2439024390244,-6.402439024390245,-752.6219512195123,0.126953125,-0.365234375,-0.208984375
522,1.416,IMU0,-324.69512195121956,-10.670731707317074,-735.1219512195123,0.3115234375,-0.56640625,-0.2978515625
523,1.416,IMU1,-328.109756097561,-16.76829268292683,-733.7804878048781,0.333984375,-0.435546875,-0.3017578125
524,1.416,IMU2,-328.2317073170732,-9.634146341463415,-736.2804878048781,0.3388671875,-0.326171875,-0.3203125
525,1.426,IMU0,-322.07317073170736,-15.731707317073171,-722.3780487804879,0.501953125,-0.5224609375,-0.4150390625
526,1.426,IMU1,-325.4268292682927,-21.76829268292683,-721.0975609756098,0.5107421875,-0.39453125,-0.4130859375
527,1.426,IMU2,-325.4878048780488,-14.634146341463415,-723.3536585365854,0.509765625,-0.2880859375,-0.4189453125
528,1.436,IMU0,-322.43902439024396,-21.28048780487805,-718.719512195122,0.5615234375,-0.5048828125,-0.43359375
529,1.436,IMU1,-325.6707317073171,-27.378048780487806,-717.5000000000001,0.5595703125,-0.373046875,-0.431640625
530,1.436,IMU2,-325.7926829268293,-20.182926829268293,-719.6341463414635,0.548828125,-0.27734375,-0.4296875
531,1.446,IMU0,-323.8414634146342,-24.878048780487806,-719.8780487804879,0.525390625,-0.4638671875,-0.3984375
532,1.446,IMU1,-326.95121951219517,-30.975609756097565,-718.719512195122,0.51953125,-0.3330078125,-0.396484375
533,1.446,IMU2,-327.13414634146346,-23.78048780487805,-720.8536585365854,0.5078125,-0.2333984375,-0.3974609375
534,1.456,IMU0,-326.4024390243903,-29.146341463414636,-723.9024390243903,0.52734375,-0.3564453125,-0.3955078125
535,1.456,IMU1,-329.51219512195127,-35.36585365853659,-722.7439024390245,0.5185546875,-0.2236328125,-0.392578125
536,1.456,IMU2,-329.63414634146346,-28.04878048780488,-724.8780487804879,0.5048828125,-0.12109375,-0.3955078125
537,1.466,IMU0,-327.31707317073176,-32.987804878048784,-725.4878048780488,0.45703125,-0.2646484375,-0.35546875
538,1.466,IMU1,-330.4268292682927,-39.268292682926834,-724.329268292683,0.44921875,-0.1298828125,-0.349609375
539,1.466,IMU2,-330.5487804878049,-31.951219512195124,-726.5243902439025,0.439453125,-0.0263671875,-0.3515625
540,1.476,IMU0,-325.1829268292683,-35.97560975609756,-722.1951219512196,0.3583984375,-0.1396484375,-0.2890625
541,1.476,IMU1,-328.109756097561,-42.19512195121951,-721.0365853658537,0.359375,-0.009765625,-0.2890625
542,1.476,IMU2,-328.3536585365854,-34.87804878048781,-723.2926829268293,0.3603515625,0.0947265625,-0.298828125
543,1.486,IMU0,-321.0365853658537,-40.1219512195122,-712.8048780487806,0.3408203125,-0.0068359375,-0.2900390625
544,1.486,IMU1,-323.7804878048781,-46.21951219512196,-711.6463414634147,0.34375,0.119140625,-0.2998046875
545,1.486,IMU2,-324.1463414634147,-39.08536585365854,-713.8414634146342,0.34765625,0.2197265625,-0.3173828125
546,1.496,IMU0,-319.81707317073176,-47.37804878048781,-705.7926829268293,0.388671875,0.0380859375,-0.30078125
547,1.496,IMU1,-322.5609756097561,-53.47560975609757,-704.8780487804879,0.3759765625,0.166015625,-0.2958984375
548,1.496,IMU2,-323.0487804878049,-46.28048780487805,-707.0121951219513,0.3662109375,0.263671875,-0.30078125
549,1.506,IMU0,-320.3048780487805,-50.85365853658537,-708.4146341463415,0.30859375,0.0546875,-0.3359375
550,1.506,IMU1,-322.9878048780488,-56.951219512195124,-707.3780487804879,0.2939453125,0.1796875,-0.3291015625
551,1.506,IMU2,-323.4756097560976,-49.75609756097561,-709.5731707317074,0.283203125,0.27734375,-0.33203125
552,1.516,IMU0,-320.7926829268293,-51.463414634146346,-712.0731707317074,0.1904296875,0.12890625,-0.2705078125
553,1.516,IMU1,-323.4756097560976,-57.560975609756106,-710.9756097560976,0.1796875,0.2509765625,-0.2734375
554,1.516,IMU2,-323.9634146341464,-50.426829268292686,-713.048780487805,0.1767578125,0.349609375,-0.28515625
555,1.526,IMU0,-322.6219512195122,-53.59756097560976,-715.0000000000001,0.1162109375,0.20703125,-0.259765625
556,1.526,IMU1,-325.1829268292683,-59.75609756097562,-713.9634146341464,0.099609375,0.3310546875,-0.2646484375
557,1.526,IMU2,-325.6707317073171,-52.6219512195122,-716.1585365853659,0.087890625,0.435546875,-0.2763671875
558,1.536,IMU0,-325.0609756097561,-55.365853658536594,-719.4512195121952,0.03125,0.2314453125,-0.1767578125
559,1.536,IMU1,-327.7439024390244,-61.585365853658544,-718.5365853658537,0.015625,0.3564453125,-0.1728515625
560,1.536,IMU2,-328.2926829268293,-54.39024390243903,-720.7317073170732,0.0048828125,0.462890625,-0.1787109375
561,1.546,IMU0,-325.4268292682927,-58.10975609756098,-720.1219512195123,-0.107421875,0.2744140625,-0.1669921875
562,1.546,IMU1,-328.0487804878049,-64.32926829268293,-719.1463414634147,-0.1201171875,0.3974609375,-0.1669921875
563,1.546,IMU2,-328.5975609756098,-57.07317073170732,-721.3414634146342,-0.1279296875,0.5087890625,-0.171875
564,1.556,IMU0,-327.13414634146346,-60.060975609756106,-721.0975609756098,-0.1982421875,0.2421875,-0.0244140625
565,1.556,IMU1,-329.63414634146346,-66.46341463414635,-720.0609756097562,-0.2099609375,0.3662109375,-0.02734375
566,1.556,IMU2,-330.2439024390244,-59.451219512195124,-722.2560975609757,-0.22265625,0.48046875,-0.04296875
567,1.566,IMU0,-328.8414634146342,-65.1219512195122,-722.5609756097562,-0.337890625,0.1884765625,0.017578125
568,1.566,IMU1,-331.4024390243903,-71.58536585365854,-721.6463414634147,-0.349609375,0.3095703125,0.0244140625
569,1.566,IMU2,-332.25609756097566,-64.57317073170732,-723.7804878048781,-0.3662109375,0.4189453125,0.0166015625
570,1.576,IMU0,-332.6219512195122,-68.84146341463415,-726.0365853658537,-0.455078125,0.13671875,0.0966796875
571,1.576,IMU1,-335.00000000000006,-75.2439024390244,-725.1219512195123,-0.4677734375,0.2587890625,0.091796875
572,1.576,IMU2,-335.609756097561,-67.8048780487805,-727.5000000000001,-0.4873046875,0.3779296875,0.0859375
573,1.586,IMU0,-330.9756097560976,-75.85365853658537,-728.109756097561,-0.669921875,0.216796875,0.166015625
574,1.586,IMU1,-333.2317073170732,-82.31707317073172,-727.1341463414635,-0.6748046875,0.3369140625,0.1533203125
575,1.586,IMU2,-333.7804878048781,-75.1829268292683,-729.329268292683,-0.6953125,0.453125,0.1328125
576,1.596,IMU0,-327.9878048780488,-87.8048780487805,-724.5731707317074,-0.7470703125,0.224609375,0.2333984375
577,1.596,IMU1,-330.2439024390244,-94.26829268292684,-723.6585365853659,-0.7470703125,0.341796875,0.220703125
578,1.596,IMU2,-331.219512195122,-87.19512195121952,-725.6707317073171,-0.7587890625,0.455078125,0.1904296875
579,1.606,IMU0,-329.63414634146346,-92.6829268292683,-720.9756097560976,-0.8544921875,0.248046875,0.2138671875
580,1.606,IMU1,-331.76829268292687,-99.14634146341464,-720.1219512195123,-0.8583984375,0.3642578125,0.2109375
581,1.606,IMU2,-332.8658536585366,-92.13414634146342,-722.2560975609757,-0.8740234375,0.48828125,0.1962890625
582,1.616,IMU0,-321.4634146341464,-93.65853658536587,-712.5609756097562,-0.8662109375,0.630859375,0.1259765625
583,1.616,IMU1,-323.1707317073171,-100.06097560975611,-711.5243902439025,-0.8447265625,0.7412109375,0.08984375
584,1.616,IMU2,-323.4756097560976,-92.8658536585366,-712.8048780487806,-0.8203125,0.8564453125,0.03125
585,1.626,IMU0,-296.6463414634147,-80.91463414634147,-660.2439024390244,-0.896484375,0.9306640625,-0.068359375
586,1.626,IMU1,-298.109756097561,-86.76829268292684,-659.0243902439025,-0.83203125,1.025390625,-0.109375
587,1.626,IMU2,-297.9268292682927,-79.39024390243902,-658.6585365853659,-0.7509765625,1.1240234375,-0.1630859375
588,1.636,IMU0,-265.4878048780488,-62.804878048780495,-582.5609756097562,-0.8125,1.0634765625,-0.0986328125
589,1.636,IMU1,-266.82926829268297,-67.98780487804879,-581.2804878048781,-0.7421875,1.1376953125,-0.130859375
590,1.636,IMU2,-266.76829268292687,-60.67073170731708,-580.4878048780488,-0.646484375,1.228515625,-0.173828125
591,1.646,IMU0,-228.59756097560978,-39.69512195121951,-500.9146341463415,-0.7490234375,1.060546875,-0.111328125
592,1.646,IMU1,-229.57317073170734,-44.390243902439025,-499.63414634146346,-0.6796875,1.11328125,-0.1484375
593,1.646,IMU2,-229.08536585365854,-38.78048780487805,-498.4756097560976,-0.599609375,1.158203125,-0.2021484375
594,1.656,IMU0,-197.01219512195124,-21.707317073170735,-435.12195121951225,-0.6728515625,0.9404296875,-0.109375
595,1.656,IMU1,-197.6829268292683,-25.731707317073173,-434.0243902439025,-0.625,0.982421875,-0.1337890625
596,1.656,IMU2,-197.31707317073173,-19.512195121951223,-433.4146341463415,-0.5634765625,1.0234375,-0.1513671875
597,1.666,IMU0,-168.96341463414635,-4.817073170731708,-382.50000000000006,-0.619140625,0.80859375,-0.060546875
598,1.666,IMU1,-169.63414634146343,-8.353658536585366,-381.4024390243903,-0.5771484375,0.841796875,-0.0771484375
599,1.666,IMU2,-169.51219512195124,-3.353658536585366,-380.7926829268293,-0.5361328125,0.87109375,-0.1103515625
600,1.676,IMU0,-144.9390243902439,6.7682926829268295,-336.0975609756098,-0.5546875,0.783203125,-0.0048828125
601,1.676,IMU1,-145.3658536585366,3.536585365853659,-335.00000000000006,-0.5087890625,0.8095703125,-0.021484375
602,1.676,IMU2,-145.0,7.378048780487806,-334.26829268292687,-0.4384765625,0.826171875,-0.0556640625
603,1.686,IMU0,-123.47560975609757,8.292682926829269,-287.19512195121956,-0.447265625,0.6552734375,-0.1318359375
604,1.686,IMU1,-123.41463414634147,5.426829268292684,-286.0975609756098,-0.41015625,0.6748046875,-0.1474609375
605,1.686,IMU2,-123.10975609756099,9.695121951219512,-285.1219512195122,-0.3740234375,0.69140625,-0.1728515625
606,1.696,IMU0,-102.92682926829269,12.987804878048781,-240.4268292682927,-0.3125,0.6904296875,-0.08984375
607,1.696,IMU1,-102.6829268292683,10.182926829268293,-239.45121951219514,-0.265625,0.7060546875,-0.10546875
608,1.696,IMU2,-102.19512195121952,12.560975609756099,-237.8658536585366,-0.2099609375,0.701171875,-0.130859375
609,1.706,IMU0,-80.2439024390244,8.78048780487805,-188.65853658536588,-0.2001953125,0.685546875,-0.201171875
610,1.706,IMU1,-79.32926829268294,6.402439024390245,-187.8048780487805,-0.154296875,0.6962890625,-0.2255859375
611,1.706,IMU2,-78.59756097560977,9.756097560975611,-186.28048780487808,-0.080078125,0.67578125,-0.2333984375
612,1.716,IMU0,-58.65853658536586,3.4756097560975614,-142.9268292682927,0.0068359375,0.578125,-0.171875
613,1.716,IMU1,-57.50000000000001,1.2804878048780488,-142.25609756097563,0.0341796875,0.591796875,-0.1865234375
614,1.716,IMU2,-57.50000000000001,2.8658536585365857,-141.15853658536588,0.0771484375,0.5732421875,-0.208984375
615,1.726,IMU0,-44.51219512195122,-1.0365853658536586,-114.20731707317074,0.2158203125,0.66796875,-0.341796875
616,1.726,IMU1,-42.86585365853659,-2.9268292682926833,-113.53658536585367,0.2392578125,0.68359375,-0.349609375
617,1.726,IMU2,-43.10975609756098,-0.6097560975609757,-112.6219512195122,0.2978515625,0.6875,-0.3486328125
618,1.736,IMU0,-26.646341463414636,-2.0121951219512195,-71.28048780487805,0.341796875,0.6484375,-0.3671875
619,1.736,IMU1,-24.573170731707318,-3.658536585365854,-70.60975609756098,0.3798828125,0.6611328125,-0.3876953125
620,1.736,IMU2,-24.085365853658537,-1.5853658536585367,-68.59756097560977,0.447265625,0.6181640625,-0.419921875
621,1.746,IMU0,-5.853658536585367,-9.085365853658537,-34.451219512195124,0.6591796875,0.384765625,-0.5
622,1.746,IMU1,-2.682926829268293,-10.0,-32.5609756097561,0.6591796875,0.40234375,-0.4912109375
623,1.746,IMU2,-4.451219512195122,-8.536585365853659,-33.84146341463415,0.7001953125,0.423828125,-0.4873046875
624,1.756,IMU0,-7.8048780487804885,-10.670731707317074,-36.40243902439025,1.0693359375,0.2412109375,-0.666015625
625,1.756,IMU1,-7.500000000000001,-11.829268292682928,-39.08536585365854,1.01953125,0.2646484375,-0.6455078125
626,1.756,IMU2,-8.353658536585366,-10.121951219512196,-38.78048780487805,1.0234375,0.2841796875,-0.6376953125
627,1.766,IMU0,-21.52439024390244,-11.76829268292683,-73.23170731707317,1.2451171875,0.126953125,-0.75
628,1.766,IMU1,-19.939024390243905,-13.170731707317074,-72.98780487804879,1.177734375,0.119140625,-0.7548828125
629,1.766,IMU2,-20.54878048780488,-11.341463414634147,-72.5609756097561,1.1396484375,0.0927734375,-0.712890625
630,1.776,IMU0,-36.768292682926834,-9.878048780487806,-111.28048780487806,1.2744140625,0.123046875,-0.78515625
631,1.776,IMU1,-35.426829268292686,-11.463414634146343,-111.03658536585367,1.2587890625,0.255859375,-0.7763671875
632,1.776,IMU2,-35.91463414634147,-9.51219512195122,-110.48780487804879,1.2041015625,0.2109375,-0.759765625
633,1.786,IMU0,-47.43902439024391,-5.609756097560976,-134.14634146341464,1.291015625,0.2890625,-0.787109375
634,1.786,IMU1,-46.28048780487805,-7.439024390243903,-133.65853658536585,1.2548828125,0.31640625,-0.7705078125
635,1.786,IMU2,-47.13414634146342,-5.0,-134.08536585365854,1.24609375,0.298828125,-0.7744140625
636,1.796,IMU0,-50.670731707317074,-2.378048780487805,-142.5,1.3330078125,0.2763671875,-0.8271484375
637,1.796,IMU1,-49.87804878048781,-4.329268292682928,-141.89024390243904,1.30859375,0.298828125,-0.7978515625
638,1.796,IMU2,-50.487804878048784,-1.707317073170732,-142.7439024390244,1.3212890625,0.302734375,-0.7802734375
639,1.806,IMU0,-52.13414634146342,-1.8902439024390245,-142.6219512195122,1.41796875,0.3251953125,-0.8173828125
640,1.806,IMU1,-51.28048780487806,-3.9024390243902443,-141.89024390243904,1.4052734375,0.34375,-0.8203125
641,1.806,IMU2,-51.951219512195124,-1.3414634146341464,-142.9878048780488,1.4365234375,0.361328125,-0.826171875
642,1.816,IMU0,-48.53658536585366,-6.036585365853659,-136.58536585365854,1.5888671875,0.3544921875,-0.857421875
643,1.816,IMU1,-47.37804878048781,-8.048780487804878,-135.97560975609758,1.5732421875,0.3798828125,-0.85546875
644,1.816,IMU2,-48.41463414634147,-5.548780487804878,-136.95121951219514,1.59765625,0.375,-0.876953125
645,1.826,IMU0,-42.31707317073171,-8.414634146341465,-121.82926829268294,1.6591796875,0.44921875,-0.919921875
646,1.826,IMU1,-40.79268292682927,-10.182926829268293,-121.15853658536587,1.6611328125,0.4775390625,-0.923828125
647,1.826,IMU2,-42.25609756097561,-7.865853658536586,-122.50000000000001,1.703125,0.4560546875,-0.9384765625
648,1.836,IMU0,-30.000000000000004,-6.402439024390245,-95.97560975609757,1.7626953125,0.3876953125,-0.9765625
649,1.836,IMU1,-28.353658536585368,-8.292682926829269,-95.3048780487805,1.759765625,0.4208984375,-0.97265625
650,1.836,IMU2,-29.939024390243905,-6.036585365853659,-96.52439024390245,1.7822265625,0.3837890625,-0.9833984375
651,1.846,IMU0,-20.60975609756098,-5.487804878048781,-72.37804878048782,1.8623046875,0.462890625,-1.0615234375
652,1.846,IMU1,-19.146341463414636,-6.951219512195123,-71.76829268292684,1.8701171875,0.4970703125,-1.080078125
653,1.846,IMU2,-20.365853658536587,-5.2439024390243905,-72.8048780487805,1.8984375,0.4560546875,-1.08203125
654,1.856,IMU0,-9.51219512195122,-1.6463414634146343,-45.304878048780495,1.9267578125,0.2509765625,-1.15234375
655,1.856,IMU1,-7.865853658536586,-2.6219512195121952,-44.69512195121952,1.923828125,0.2744140625,-1.1533203125
656,1.856,IMU2,-8.414634146341465,-1.1585365853658538,-45.670731707317074,1.9541015625,0.2548828125,-1.134765625
657,1.866,IMU0,-9.573170731707318,-2.0121951219512195,-39.268292682926834,1.990234375,0.09765625,-1.119140625
658,1.866,IMU1,-7.865853658536586,-3.231707317073171,-38.84146341463415,1.9599609375,0.12890625,-1.103515625
659,1.866,IMU2,-8.841463414634147,-1.5853658536585367,-39.63414634146342,1.9599609375,0.09765625,-1.0986328125
660,1.876,IMU0,-10.975609756097562,-2.0121951219512195,-39.63414634146342,2.0341796875,0.1689453125,-1.08984375
661,1.876,IMU1,-9.26829268292683,-3.1097560975609757,-39.32926829268293,2.0126953125,0.2021484375,-1.0927734375
662,1.876,IMU2,-10.426829268292684,-1.6463414634146343,-39.93902439024391,2.013671875,0.1669921875,-1.08984375
663,1.886,IMU0,-13.29268292682927,-0.9146341463414634,-39.51219512195122,2.0341796875,0.0869140625,-1.1728515625
664,1.886,IMU1,-11.402439024390246,-2.1951219512195124,-39.207317073170735,2.009765625,0.115234375,-1.1630859375
665,1.886,IMU2,-12.378048780487806,-0.426829268292683,-39.87804878048781,2.017578125,0.0849609375,-1.146484375
666,1.896,IMU0,-14.756097560975611,0.12195121951219513,-39.451219512195124,1.978515625,0.1064453125,-1.09765625
667,1.896,IMU1,-13.231707317073171,-0.9756097560975611,-39.08536585365854,1.953125,0.1416015625,-1.0830078125
668,1.896,IMU2,-14.085365853658537,0.7317073170731708,-39.81707317073171,1.9541015625,0.109375,-1.068359375
669,1.906,IMU0,-15.609756097560977,2.6219512195121952,-37.43902439024391,2.021484375,0.138671875,-1.1435546875
670,1.906,IMU1,-13.841463414634148,1.524390243902439,-37.07317073170732,2.00390625,0.1650390625,-1.1474609375
671,1.906,IMU2,-14.756097560975611,3.231707317073171,-37.80487804878049,2.0166015625,0.1318359375,-1.140625
672,1.916,IMU0,-15.609756097560977,3.1707317073170733,-35.36585365853659,1.97265625,0.0751953125,-1.0888671875
673,1.916,IMU1,-13.841463414634148,1.829268292682927,-35.0609756097561,1.9462890625,0.107421875,-1.0703125
674,1.916,IMU2,-14.817073170731708,3.780487804878049,-35.670731707317074,1.9462890625,0.0771484375,-1.052734375
675,1.926,IMU0,-15.182926829268293,2.439024390243903,-31.82926829268293,1.9619140625,0.2099609375,-1.05859375
676,1.926,IMU1,-13.170731707317074,1.1585365853658538,-31.402439024390247,1.9560546875,0.2392578125,-1.076171875
677,1.926,IMU2,-14.390243902439027,2.804878048780488,-31.89024390243903,1.978515625,0.205078125,-1.087890625
678,1.936,IMU0,-5.609756097560976,2.8658536585365857,-8.78048780487805,2.05078125,0.251953125,-1.1181640625
679,1.936,IMU1,-3.353658536585366,1.402439024390244,-8.353658536585366,2.0517578125,0.28515625,-1.1162109375
680,1.936,IMU2,-4.634146341463415,2.682926829268293,-8.658536585365855,2.087890625,0.2548828125,-1.1044921875
681,1.946,IMU0,0.7926829268292683,1.707317073170732,5.670731707317073,2.294921875,0.0458984375,-1.2470703125
682,1.946,IMU1,3.1097560975609757,0.24390243902439027,5.975609756097562,2.26953125,0.0771484375,-1.2431640625
683,1.946,IMU2,1.829268292682927,1.5853658536585367,5.487804878048781,2.271484375,0.0361328125,-1.23046875
684,1.956,IMU0,-1.524390243902439,-0.24390243902439027,-0.6097560975609757,2.451171875,0.029296875,-1.267578125
685,1.956,IMU1,0.5487804878048781,-1.707317073170732,-0.3658536585365854,2.419921875,0.0654296875,-1.2685546875
686,1.956,IMU2,-1.0975609756097562,0.06097560975609757,-1.0975609756097562,2.421875,0.025390625,-1.2822265625
687,1.966,IMU0,-3.414634146341464,-0.1829268292682927,-5.426829268292684,2.498046875,0.0390625,-1.345703125
688,1.966,IMU1,-1.0975609756097562,-1.7682926829268295,-5.182926829268293,2.47265625,0.0791015625,-1.33203125
689,1.966,IMU2,-2.987804878048781,0.12195121951219513,-5.670731707317073,2.48828125,0.046875,-1.3203125
690,1.976,IMU0,-1.1585365853658538,0.24390243902439027,-2.073170731707317,2.5751953125,0.0029296875,-1.384765625
691,1.976,IMU1,0.9756097560975611,-1.5853658536585367,-1.7682926829268295,2.5517578125,0.044921875,-1.3828125
692,1.976,IMU2,-0.3658536585365854,0.12195121951219513,-2.1951219512195124,2.5654296875,0.0166015625,-1.3642578125
693,1.986,IMU0,0.12195121951219513,0.06097560975609757,1.707317073170732,2.6455078125,-0.02734375,-1.4736328125
694,1.986,IMU1,2.3170731707317076,-1.4634146341463417,1.9512195121951221,2.62109375,0.013671875,-1.46484375
695,1.986,IMU2,0.9756097560975611,0.0,1.5853658536585367,2.6328125,-0.0126953125,-1.4462890625
696,1.996,IMU0,0.3658536585365854,0.06097560975609757,3.5975609756097566,2.6845703125,-0.064453125,-1.494140625
697,1.996,IMU1,2.8658536585365857,-1.524390243902439,3.8414634146341466,2.65234375,-0.0283203125,-1.48828125
698,1.996,IMU2,1.0975609756097562,0.30487804878048785,3.353658536585366,2.6533203125,-0.0693359375,-1.466796875
699,2.006,IMU0,-0.5487804878048781,1.0365853658536586,2.3170731707317076,2.7060546875,-0.068359375,-1.5126953125
700,2.006,IMU1,0.9146341463414634,-0.7926829268292683,2.7439024390243905,2.6748046875,-0.03125,-1.5146484375
701,2.006,IMU2,0.3658536585365854,0.5487804878048781,2.25609756097561,2.66796875,-0.0751953125,-1.486328125
702,2.016,IMU0,-0.24390243902439027,1.829268292682927,2.5,2.71875,-0.1103515625,-1.525390625
703,2.016,IMU1,1.4634146341463417,0.426829268292683,2.8658536585365857,2.6875,-0.0732421875,-1.525390625
704,2.016,IMU2,1.0365853658536586,1.707317073170732,2.3170731707317076,2.6787109375,-0.12109375,-1.5029296875
705,2.026,IMU0,0.1829268292682927,-1.3414634146341464,3.8414634146341466,2.755859375,-0.0927734375,-1.53125
706,2.026,IMU1,2.804878048780488,-2.6219512195121952,4.146341463414634,2.728515625,-0.056640625,-1.5322265625
707,2.026,IMU2,1.0975609756097562,-0.7926829268292683,3.8414634146341466,2.72265625,-0.109375,-1.505859375
708,2.036,IMU0,-0.426829268292683,-0.9756097560975611,3.780487804878049,2.7548828125,-0.1298828125,-1.5068359375
709,2.036,IMU1,1.829268292682927,-2.25609756097561,4.085365853658537,2.720703125,-0.08984375,-1.5048828125
710,2.036,IMU2,0.0,-0.7317073170731708,3.5975609756097566,2.708984375,-0.130859375,-1.4853515625
711,2.046,IMU0,-2.1341463414634148,0.853658536585366,0.7317073170731708,2.7412109375,-0.166015625,-1.5126953125
712,2.046,IMU1,0.1829268292682927,-0.7926829268292683,1.0365853658536586,2.708984375,-0.1259765625,-1.509765625
713,2.046,IMU2,-1.0365853658536586,0.9146341463414634,0.3658536585365854,2.703125,-0.169921875,-1.4716796875
714,2.056,IMU0,-2.987804878048781,-0.48780487804878053,-3.1097560975609757,2.75390625,-0.16015625,-1.5107421875
715,2.056,IMU1,-0.48780487804878053,-1.6463414634146343,-2.9268292682926833,2.7236328125,-0.12109375,-1.49609375
716,2.056,IMU2,-2.378048780487805,-0.30487804878048785,-3.4756097560975614,2.7275390625,-0.15625,-1.4560546875
717,2.066,IMU0,-0.9146341463414634,-3.658536585365854,-0.9146341463414634,2.7236328125,-0.150390625,-1.5029296875
718,2.066,IMU1,1.829268292682927,-4.817073170731708,-0.7926829268292683,2.6962890625,-0.1103515625,-1.4892578125
719,2.066,IMU2,0.0,-3.1097560975609757,-1.0975609756097562,2.705078125,-0.1376953125,-1.4765625
720,2.076,IMU0,-1.6463414634146343,-3.8414634146341466,-3.2926829268292686,2.712890625,-0.2314453125,-1.5654296875
721,2.076,IMU1,0.48780487804878053,-4.695121951219512,-3.1097560975609757,2.6796875,-0.1943359375,-1.5556640625
722,2.076,IMU2,-1.1585365853658538,-2.9268292682926833,-3.7195121951219514,2.681640625,-0.2216796875,-1.5400390625
723,2.086,IMU0,-3.2926829268292686,2.3170731707317076,-5.7926829268292686,2.7578125,-0.22265625,-1.619140625
724,2.086,IMU1,-1.0975609756097562,0.9756097560975611,-5.548780487804878,2.7265625,-0.1845703125,-1.61328125
725,2.086,IMU2,-2.073170731707317,2.8658536585365857,-6.219512195121951,2.748046875,-0.2177734375,-1.5869140625
726,2.096,IMU0,-5.121951219512195,7.682926829268293,-7.317073170731708,2.8642578125,-0.1787109375,-1.6611328125
727,2.096,IMU1,-2.8658536585365857,6.2804878048780495,-7.134146341463415,2.83984375,-0.1376953125,-1.650390625
728,2.096,IMU2,-3.963414634146342,8.414634146341465,-7.560975609756098,2.8837890625,-0.1591796875,-1.673828125
729,2.106,IMU0,-2.6219512195121952,8.963414634146343,-2.6219512195121952,3.021484375,-0.1953125,-1.705078125
730,2.106,IMU1,-0.3658536585365854,8.231707317073171,-2.5,2.998046875,-0.1513671875,-1.703125
731,2.106,IMU2,-1.7682926829268295,9.51219512195122,-3.048780487804878,3.0224609375,-0.21875,-1.685546875
732,2.116,IMU0,-2.073170731707317,4.207317073170732,-1.524390243902439,3.1357421875,-0.1630859375,-1.67578125
733,2.116,IMU1,0.6097560975609757,3.1097560975609757,-1.402439024390244,3.1083984375,-0.125,-1.6845703125
734,2.116,IMU2,-0.6097560975609757,4.695121951219512,-1.707317073170732,3.1123046875,-0.1826171875,-1.705078125
735,2.126,IMU0,0.24390243902439027,-2.682926829268293,0.6707317073170732,3.0751953125,-0.1884765625,-1.6884765625
736,2.126,IMU1,2.682926829268293,-4.085365853658537,0.853658536585366,3.04296875,-0.146484375,-1.6923828125
737,2.126,IMU2,1.4634146341463417,-2.439024390243903,0.30487804878048785,3.03125,-0.1953125,-1.6533203125
738,2.136,IMU0,0.06097560975609757,-4.878048780487806,-0.48780487804878053,2.966796875,-0.2109375,-1.7158203125
739,2.136,IMU1,2.439024390243903,-6.341463414634147,-0.24390243902439027,2.9365234375,-0.1689453125,-1.69921875
740,2.136,IMU2,0.9756097560975611,-4.817073170731708,-0.6707317073170732,2.923828125,-0.2001953125,-1.6474609375
741,2.146,IMU0,1.829268292682927,-3.5975609756097566,1.5853658536585367,2.9248046875,-0.19140625,-1.671875
742,2.146,IMU1,5.0,-5.121951219512195,1.7682926829268295,2.8974609375,-0.1494140625,-1.6494140625
743,2.146,IMU2,3.1707317073170733,-3.1707317073170733,1.4634146341463417,2.9091796875,-0.17578125,-1.6123046875
744,2.156,IMU0,1.707317073170732,-4.024390243902439,1.6463414634146343,2.8994140625,-0.1884765625,-1.638671875
745,2.156,IMU1,4.51219512195122,-5.365853658536586,1.8902439024390245,2.8642578125,-0.1474609375,-1.6318359375
746,2.156,IMU2,2.5,-3.963414634146342,1.1585365853658538,2.8701171875,-0.1806640625,-1.6015625
747,2.166,IMU0,0.30487804878048785,-1.8902439024390245,-0.426829268292683,2.7548828125,-0.162109375,-1.6533203125
748,2.166,IMU1,2.5,-3.2926829268292686,-0.12195121951219513,2.720703125,-0.125,-1.650390625
749,2.166,IMU2,0.7926829268292683,-1.707317073170732,-0.9146341463414634,2.7216796875,-0.16015625,-1.658203125
750,2.176,IMU0,-3.5975609756097566,5.975609756097562,-4.75609756097561,2.736328125,-0.19921875,-1.6455078125
751,2.176,IMU1,-1.7682926829268295,4.146341463414634,-4.51219512195122,2.703125,-0.16015625,-1.6318359375
752,2.176,IMU2,-4.146341463414634,5.853658536585367,-5.3048780487804885,2.7021484375,-0.189453125,-1.6357421875
753,2.186,IMU0,0.3658536585365854,2.25609756097561,0.9756097560975611,2.6689453125,-0.111328125,-1.48828125
754,2.186,IMU1,1.9512195121951221,1.2195121951219514,1.3414634146341464,2.6396484375,-0.0810546875,-1.48828125
755,2.186,IMU2,0.1829268292682927,2.0121951219512195,1.0975609756097562,2.626953125,-0.1630859375,-1.5146484375
756,2.196,IMU0,-0.30487804878048785,-7.500000000000001,-1.829268292682927,2.458984375,-0.1494140625,-1.40234375
757,2.196,IMU1,2.073170731707317,-9.26829268292683,-1.524390243902439,2.4326171875,-0.1162109375,-1.4130859375
758,2.196,IMU2,0.3658536585365854,-8.353658536585366,-1.7682926829268295,2.3984375,-0.1494140625,-1.4091796875
759,2.206,IMU0,0.6097560975609757,-8.109756097560977,2.1341463414634148,2.220703125,-0.0947265625,-1.4609375
760,2.206,IMU1,3.780487804878049,-9.817073170731708,2.378048780487805,2.2080078125,-0.060546875,-1.4541015625
761,2.206,IMU2,1.707317073170732,-8.109756097560977,2.8658536585365857,2.208984375,-0.0888671875,-1.41015625
762,2.216,IMU0,2.3170731707317076,-3.7195121951219514,4.146341463414634,2.236328125,-0.21875,-1.482421875
763,2.216,IMU1,5.426829268292684,-5.0,4.2682926829268295,2.208984375,-0.185546875,-1.4599609375
764,2.216,IMU2,2.6219512195121952,-2.804878048780488,3.4756097560975614,2.2373046875,-0.21875,-1.4013671875
765,2.226,IMU0,1.1585365853658538,2.25609756097561,6.158536585365854,2.298828125,-0.14453125,-1.443359375
766,2.226,IMU1,3.963414634146342,1.0365853658536586,6.463414634146342,2.28125,-0.1123046875,-1.44140625
767,2.226,IMU2,2.378048780487805,2.8658536585365857,6.52439024390244,2.3125,-0.1494140625,-1.4267578125
768,2.236,IMU0,0.12195121951219513,1.8902439024390245,11.036585365853659,2.4541015625,-0.0732421875,-1.365234375
769,2.236,IMU1,2.9268292682926833,0.5487804878048781,11.341463414634147,2.44140625,-0.0380859375,-1.3623046875
770,2.236,IMU2,1.8902439024390245,1.6463414634146343,11.646341463414634,2.484375,-0.080078125,-1.3740234375
771,2.246,IMU0,0.6097560975609757,-3.536585365853659,11.52439024390244,2.603515625,-0.2109375,-1.3818359375
772,2.246,IMU1,3.658536585365854,-4.817073170731708,11.585365853658537,2.5693359375,-0.171875,-1.369140625
773,2.246,IMU2,1.524390243902439,-3.536585365853659,10.30487804878049,2.556640625,-0.224609375,-1.3759765625
774,2.256,IMU0,-2.378048780487805,-4.878048780487806,3.414634146341464,2.5537109375,-0.205078125,-1.390625
775,2.256,IMU1,0.06097560975609757,-5.914634146341464,3.5975609756097566,2.521484375,-0.166015625,-1.3876953125
776,2.256,IMU2,-1.2804878048780488,-3.4756097560975614,2.3170731707317076,2.509765625,-0.2138671875,-1.416015625
777,2.266,IMU0,-3.7195121951219514,2.1951219512195124,1.6463414634146343,2.52734375,-0.1015625,-1.4375
778,2.266,IMU1,-1.7682926829268295,1.3414634146341464,2.0121951219512195,2.505859375,-0.06640625,-1.439453125
779,2.266,IMU2,-1.2804878048780488,3.1707317073170733,1.6463414634146343,2.4951171875,-0.119140625,-1.435546875
780,2.276,IMU0,-3.1097560975609757,6.341463414634147,4.329268292682928,2.560546875,-0.130859375,-1.4501953125
781,2.276,IMU1,-0.3658536585365854,4.634146341463415,4.634146341463415,2.53515625,-0.0927734375,-1.44921875
782,2.276,IMU2,-1.402439024390244,6.463414634146342,4.390243902439025,2.529296875,-0.1044921875,-1.4228515625
783,2.286,IMU0,4.573170731707317,4.207317073170732,19.085365853658537,2.451171875,0.0322265625,-1.435546875
784,2.286,IMU1,7.743902439024391,3.048780487804878,19.512195121951223,2.4443359375,0.0693359375,-1.439453125
785,2.286,IMU2,7.500000000000001,4.085365853658537,21.28048780487805,2.48828125,0.02734375,-1.4189453125
786,2.296,IMU0,13.231707317073171,3.1707317073170733,36.890243902439025,2.3544921875,-0.01171875,-1.3759765625
787,2.296,IMU1,15.54878048780488,1.9512195121951221,37.25609756097561,2.33203125,0.0234375,-1.390625
788,2.296,IMU2,15.853658536585368,3.048780487804878,37.43902439024391,2.34765625,0.0009765625,-1.396484375
789,2.306,IMU0,17.439024390243905,0.1829268292682927,42.13414634146342,2.2763671875,-0.0751953125,-1.32421875
790,2.306,IMU1,19.085365853658537,-0.9756097560975611,42.07317073170732,2.2451171875,-0.041015625,-1.3095703125
791,2.306,IMU2,18.10975609756098,0.24390243902439027,41.58536585365854,2.2724609375,-0.068359375,-1.314453125
792,2.316,IMU0,15.000000000000002,-2.8658536585365857,38.65853658536586,2.2001953125,0.0244140625,-1.2646484375
793,2.316,IMU1,17.195121951219512,-3.7195121951219514,38.41463414634147,2.1708984375,0.0595703125,-1.25
794,2.316,IMU2,16.28048780487805,-2.5609756097560976,37.926829268292686,2.17578125,0.0166015625,-1.2529296875
795,2.326,IMU0,16.951219512195124,-3.536585365853659,42.31707317073171,2.0380859375,0.240234375,-1.1533203125
796,2.326,IMU1,19.390243902439025,-4.878048780487806,42.6219512195122,2.0166015625,0.2802734375,-1.1943359375
797,2.326,IMU2,18.475609756097562,-3.780487804878049,42.19512195121951,2.0380859375,0.251953125,-1.201171875
798,2.336,IMU0,25.365853658536587,-0.9146341463414634,57.13414634146342,1.908203125,0.2275390625,-1.162109375
799,2.336,IMU1,28.780487804878053,-2.378048780487805,57.31707317073171,1.8427734375,0.263671875,-1.1376953125
800,2.336,IMU2,27.439024390243905,-1.1585365853658538,56.951219512195124,1.8525390625,0.2373046875,-1.138671875
801,2.346,IMU0,33.41463414634146,5.2439024390243905,70.1219512195122,1.73046875,0.2705078125,-1.05859375
802,2.346,IMU1,36.40243902439025,3.8414634146341466,70.3658536585366,1.7177734375,0.3017578125,-1.044921875
803,2.346,IMU2,35.243902439024396,4.817073170731708,70.0609756097561,1.73828125,0.27734375,-1.0361328125
804,2.356,IMU0,37.926829268292686,6.707317073170732,80.3658536585366,1.7158203125,0.3759765625,-1.0185546875
805,2.356,IMU1,40.85365853658537,6.158536585365854,80.60975609756099,1.7099609375,0.40625,-1.033203125
806,2.356,IMU2,39.451219512195124,6.402439024390245,80.3658536585366,1.7421875,0.3779296875,-1.046875
807,2.366,IMU0,45.79268292682927,6.097560975609756,100.67073170731709,1.658203125,0.517578125,-1.0126953125
808,2.366,IMU1,49.69512195121952,5.7926829268292686,100.91463414634147,1.662109375,0.5458984375,-1.0224609375
809,2.366,IMU2,47.50000000000001,6.036585365853659,101.15853658536587,1.6962890625,0.5224609375,-1.0263671875
810,2.376,IMU0,58.90243902439025,5.060975609756098,130.0,1.671875,0.56640625,-1.021484375
811,2.376,IMU1,62.926829268292686,5.121951219512195,130.1219512195122,1.666015625,0.6025390625,-1.0263671875
812,2.376,IMU2,60.79268292682927,5.121951219512195,130.3048780487805,1.70703125,0.5615234375,-1.0068359375
813,2.386,IMU0,72.13414634146342,4.451219512195122,162.9268292682927,1.6865234375,0.896484375,-1.021484375
814,2.386,IMU1,75.79268292682927,4.817073170731708,163.2926829268293,1.708984375,0.931640625,-1.0400390625
815,2.386,IMU2,74.32926829268294,5.0,164.08536585365854,1.7841796875,0.919921875,-1.0693359375
816,2.396,IMU0,94.75609756097562,3.780487804878049,213.78048780487808,1.7294921875,0.939453125,-1.107421875
817,2.396,IMU1,98.17073170731709,4.939024390243903,214.02439024390245,1.7451171875,0.974609375,-1.1328125
818,2.396,IMU2,96.46341463414635,4.75609756097561,214.87804878048783,1.7744140625,0.9296875,-1.12890625
819,2.406,IMU0,118.35365853658537,3.5975609756097566,269.75609756097566,1.671875,1.33203125,-1.1923828125
820,2.406,IMU1,122.50000000000001,4.817073170731708,270.2439024390244,1.7099609375,1.376953125,-1.23828125
821,2.406,IMU2,121.89024390243904,4.329268292682928,272.07317073170736,1.802734375,1.3759765625,-1.2646484375
822,2.416,IMU0,152.7439024390244,8.719512195121952,341.95121951219517,1.5849609375,1.2353515625,-1.2060546875
823,2.416,IMU1,157.5,10.182926829268293,342.13414634146346,1.59375,1.2880859375,-1.2392578125
824,2.416,IMU2,155.91463414634148,9.573170731707318,343.6585365853659,1.6904296875,1.3134765625,-1.2294921875
825,2.426,IMU0,173.53658536585368,13.719512195121952,380.7317073170732,1.533203125,1.361328125,-1.177734375
826,2.426,IMU1,178.53658536585368,15.182926829268293,380.7926829268293,1.5322265625,1.4208984375,-1.2099609375
827,2.426,IMU2,176.82926829268294,14.146341463414636,382.25609756097566,1.58984375,1.400390625,-1.2265625
828,2.436,IMU0,192.13414634146343,14.756097560975611,411.5243902439025,1.484375,1.2822265625,-1.208984375
829,2.436,IMU1,197.9878048780488,16.463414634146343,411.4024390243903,1.4541015625,1.3505859375,-1.2119140625
830,2.436,IMU2,194.20731707317074,15.365853658536587,410.5487804878049,1.5107421875,1.3828125,-1.2314453125
831,2.446,IMU0,196.76829268292684,6.829268292682928,416.4024390243903,1.3583984375,1.3134765625,-1.0947265625
832,2.446,IMU1,201.89024390243904,8.841463414634147,416.2804878048781,1.3271484375,1.3818359375,-1.095703125
833,2.446,IMU2,199.81707317073173,6.890243902439025,416.5853658536586,1.3369140625,1.349609375,-1.125
834,2.456,IMU0,200.4878048780488,-1.3414634146341464,426.70731707317077,1.1376953125,1.48828125,-1.0087890625
835,2.456,IMU1,206.09756097560978,0.426829268292683,426.5853658536586,1.12890625,1.5498046875,-1.021484375
836,2.456,IMU2,203.65853658536588,-1.2195121951219514,425.9146341463415,1.1484375,1.509765625,-1.0146484375
837,2.466,IMU0,211.03658536585368,-11.097560975609756,457.01219512195127,0.9306640625,1.578125,-0.92578125
838,2.466,IMU1,217.01219512195124,-8.963414634146343,456.95121951219517,0.9404296875,1.6494140625,-0.9306640625
839,2.466,IMU2,215.00000000000003,-10.792682926829269,458.719512195122,0.9921875,1.6220703125,-0.9619140625
840,2.476,IMU0,225.91463414634148,-12.926829268292684,496.5853658536586,0.6435546875,1.439453125,-0.845703125
841,2.476,IMU1,232.25609756097563,-10.731707317073171,496.4024390243903,0.62890625,1.5107421875,-0.8447265625
842,2.476,IMU2,229.20731707317074,-13.231707317073171,495.12195121951225,0.7041015625,1.5693359375,-0.833984375
843,2.486,IMU0,234.39024390243904,-10.0,517.3780487804878,0.3388671875,1.470703125,-0.6669921875
844,2.486,IMU1,240.91463414634148,-7.865853658536586,517.1951219512196,0.3408203125,1.544921875,-0.677734375
845,2.486,IMU2,237.68292682926833,-10.24390243902439,515.7317073170732,0.41015625,1.5927734375,-0.669921875
846,2.496,IMU0,251.95121951219514,-3.5975609756097566,554.0243902439025,0.05078125,1.4755859375,-0.6240234375
847,2.496,IMU1,258.9634146341464,-1.0365853658536586,553.8414634146342,0.064453125,1.5498046875,-0.6259765625
848,2.496,IMU2,255.85365853658539,-4.817073170731708,552.3780487804878,0.1357421875,1.6337890625,-0.62109375
849,2.506,IMU0,263.0487804878049,6.097560975609756,590.3048780487806,-0.201171875,1.2802734375,-0.4150390625
850,2.506,IMU1,270.1829268292683,8.719512195121952,590.0,-0.1953125,1.3623046875,-0.4296875
851,2.506,IMU2,267.19512195121956,5.853658536585367,589.0243902439025,-0.146484375,1.443359375,-0.4404296875
852,2.516,IMU0,271.95121951219517,18.10975609756098,612.6829268292684,-0.302734375,1.0927734375,-0.3251953125
853,2.516,IMU1,278.9634146341464,20.914634146341466,612.2560975609757,-0.3017578125,1.1796875,-0.337890625
854,2.516,IMU2,276.4634146341464,17.743902439024392,612.0731707317074,-0.2802734375,1.265625,-0.3330078125
855,2.526,IMU0,290.7926829268293,31.707317073170735,636.219512195122,-0.3134765625,1.25,-0.3134765625
856,2.526,IMU1,297.9878048780488,34.93902439024391,635.9756097560976,-0.3037109375,1.3486328125,-0.3525390625
857,2.526,IMU2,294.57317073170736,30.914634146341466,635.4878048780488,-0.271484375,1.4111328125,-0.39453125
858,2.536,IMU0,326.4024390243903,40.426829268292686,670.548780487805,-0.2646484375,1.09375,-0.185546875
859,2.536,IMU1,333.6585365853659,44.268292682926834,670.4878048780488,-0.2470703125,1.2041015625,-0.2255859375
860,2.536,IMU2,329.81707317073176,40.1219512195122,670.0000000000001,-0.2255859375,1.3193359375,-0.267578125
861,2.546,IMU0,356.5243902439025,44.024390243902445,699.5731707317074,-0.0947265625,0.681640625,-0.1005859375
862,2.546,IMU1,363.8414634146342,47.926829268292686,699.5121951219513,-0.08984375,0.802734375,-0.1181640625
863,2.546,IMU2,360.7317073170732,44.451219512195124,699.4512195121952,-0.07421875,0.93359375,-0.1552734375
864,2.556,IMU0,370.7317073170732,36.28048780487805,708.4146341463415,0.181640625,0.484375,-0.306640625
865,2.556,IMU1,378.1707317073171,40.670731707317074,708.1707317073171,0.1611328125,0.6142578125,-0.3095703125
866,2.556,IMU2,375.6707317073171,36.28048780487805,709.3902439024391,0.13671875,0.734375,-0.31640625
867,2.566,IMU0,369.63414634146346,27.80487804878049,692.0731707317074,0.451171875,0.427734375,-0.4296875
868,2.566,IMU1,376.95121951219517,32.07317073170732,691.7073170731708,0.4052734375,0.5576171875,-0.427734375
869,2.566,IMU2,374.75609756097566,28.04878048780488,693.5975609756098,0.3828125,0.6572265625,-0.4150390625
870,2.576,IMU0,366.3414634146342,28.10975609756098,672.5609756097562,0.642578125,0.2119140625,-0.4521484375
871,2.576,IMU1,373.5365853658537,32.31707317073171,672.3780487804879,0.6083984375,0.333984375,-0.4501953125
872,2.576,IMU2,371.4024390243903,28.04878048780488,674.0853658536586,0.5751953125,0.4462890625,-0.4619140625
873,2.586,IMU0,358.1707317073171,13.719512195121952,633.4756097560976,1.2255859375,-0.0947265625,-0.7236328125
874,2.586,IMU1,365.1829268292683,17.682926829268293,633.048780487805,1.1396484375,0.0234375,-0.6953125
875,2.586,IMU2,363.6585365853659,13.658536585365855,636.4634146341464,1.033203125,0.1015625,-0.6484375
876,2.596,IMU0,326.82926829268297,3.5975609756097566,560.609756097561,1.3671875,-0.033203125,-0.7392578125
877,2.596,IMU1,333.2926829268293,7.073170731707318,560.3048780487806,1.2880859375,0.0693359375,-0.7158203125
878,2.596,IMU2,331.6463414634147,3.5975609756097566,563.048780487805,1.232421875,0.1298828125,-0.6884765625
879,2.606,IMU0,308.7804878048781,4.695121951219512,512.7439024390244,1.4521484375,-0.1923828125,-0.8525390625
880,2.606,IMU1,314.75609756097566,8.048780487804878,512.6829268292684,1.3828125,-0.103515625,-0.8173828125
881,2.606,IMU2,313.4146341463415,4.451219512195122,515.0,1.3154296875,-0.048828125,-0.7900390625
882,2.616,IMU0,285.0,0.7317073170731708,453.8414634146342,1.5029296875,-0.0849609375,-0.9521484375
883,2.616,IMU1,290.5487804878049,3.8414634146341466,453.8414634146342,1.439453125,-0.00390625,-0.9228515625
884,2.616,IMU2,289.26829268292687,0.6097560975609757,455.8536585365854,1.38671875,0.025390625,-0.8857421875
885,2.626,IMU0,273.6585365853659,9.085365853658537,424.87804878048786,1.396484375,-0.03125,-0.8447265625
886,2.626,IMU1,278.9024390243903,11.829268292682928,425.12195121951225,1.35546875,0.0400390625,-0.8212890625
887,2.626,IMU2,277.5,8.902439024390244,426.2804878048781,1.3359375,0.068359375,-0.8046875
888,2.636,IMU0,260.8536585365854,11.28048780487805,403.5975609756098,1.3779296875,-0.0205078125,-0.861328125
889,2.636,IMU1,265.8536585365854,14.02439024390244,404.0243902439025,1.3447265625,0.0478515625,-0.83984375
890,2.636,IMU2,264.26829268292687,11.28048780487805,404.87804878048786,1.326171875,0.064453125,-0.83203125
891,2.646,IMU0,250.30487804878052,14.451219512195124,390.6707317073171,1.349609375,-0.09765625,-0.8037109375
892,2.646,IMU1,255.24390243902442,17.012195121951223,391.0975609756098,1.3232421875,-0.0390625,-0.7900390625
893,2.646,IMU2,253.84146341463418,14.573170731707318,391.76829268292687,1.3115234375,-0.009765625,-0.7822265625
894,2.656,IMU0,242.19512195121953,14.451219512195124,382.31707317073176,1.283203125,0.0,-0.7509765625
895,2.656,IMU1,247.07317073170734,16.76829268292683,382.62195121951225,1.2587890625,0.060546875,-0.7431640625
896,2.656,IMU2,245.609756097561,14.451219512195124,383.2317073170732,1.248046875,0.076171875,-0.7373046875
897,2.666,IMU0,242.19512195121953,11.829268292682928,386.89024390243907,1.296875,0.08203125,-0.771484375
898,2.666,IMU1,247.13414634146343,14.207317073170733,387.43902439024396,1.3017578125,0.14453125,-0.7666015625
899,2.666,IMU2,245.4268292682927,11.951219512195124,387.62195121951225,1.32421875,0.1591796875,-0.7685546875
900,2.676,IMU0,243.59756097560978,11.402439024390246,402.31707317073176,1.240234375,0.044921875,-0.69921875
901,2.676,IMU1,248.71951219512198,13.841463414634148,402.62195121951225,1.2294921875,0.1083984375,-0.6943359375
902,2.676,IMU2,246.89024390243904,11.463414634146343,403.0487804878049,1.2314453125,0.1279296875,-0.6943359375
903,2.686,IMU0,242.56097560975613,10.548780487804878,405.9146341463415,1.208984375,-0.115234375,-0.6796875
904,2.686,IMU1,247.62195121951223,12.80487804878049,406.219512195122,1.1962890625,-0.052734375,-0.66796875
905,2.686,IMU2,245.85365853658539,10.487804878048781,406.5853658536586,1.197265625,-0.0322265625,-0.6650390625
906,2.696,IMU0,238.90243902439028,7.621951219512196,405.7926829268293,1.1318359375,-0.146484375,-0.7021484375
907,2.696,IMU1,244.08536585365854,9.939024390243903,406.0365853658537,1.1171875,-0.083984375,-0.6904296875
908,2.696,IMU2,242.31707317073173,7.682926829268293,406.4024390243903,1.1103515625,-0.064453125,-0.6845703125
909,2.706,IMU0,236.40243902439028,8.048780487804878,407.56097560975616,1.0927734375,-0.173828125,-0.671875
910,2.706,IMU1,241.70731707317074,10.24390243902439,407.8658536585366,1.083984375,-0.1103515625,-0.66796875
911,2.706,IMU2,239.87804878048783,8.048780487804878,408.2926829268293,1.087890625,-0.0908203125,-0.6689453125
912,2.716,IMU0,237.13414634146343,8.719512195121952,412.43902439024396,1.0615234375,-0.232421875,-0.6796875
913,2.716,IMU1,242.43902439024393,10.914634146341465,412.68292682926835,1.048828125,-0.1689453125,-0.6708984375
914,2.716,IMU2,240.5487804878049,8.658536585365855,413.109756097561,1.0439453125,-0.1484375,-0.666015625
915,2.726,IMU0,235.12195121951223,8.353658536585366,415.6707317073171,1.0478515625,-0.232421875,-0.640625
916,2.726,IMU1,240.4878048780488,10.609756097560977,415.9146341463415,1.0458984375,-0.169921875,-0.6328125
917,2.726,IMU2,238.59756097560978,8.353658536585366,416.3414634146342,1.0517578125,-0.1494140625,-0.6298828125
918,2.736,IMU0,232.56097560975613,2.804878048780488,424.39024390243907,0.9853515625,-0.2197265625,-0.587890625
919,2.736,IMU1,238.109756097561,4.878048780487806,424.45121951219517,0.986328125,-0.1552734375,-0.5830078125
920,2.736,IMU2,236.09756097560978,2.6219512195121952,425.00000000000006,0.994140625,-0.1328125,-0.5849609375
921,2.746,IMU0,232.43902439024393,0.9756097560975611,433.7804878048781,0.8447265625,-0.3154296875,-0.5458984375
922,2.746,IMU1,238.1707317073171,3.1097560975609757,433.719512195122,0.83984375,-0.2529296875,-0.5341796875
923,2.746,IMU2,236.03658536585368,0.7926829268292683,434.26829268292687,0.8369140625,-0.2265625,-0.5302734375
924,2.756,IMU0,231.82926829268294,0.1829268292682927,438.0487804878049,0.763671875,-0.3642578125,-0.49609375
925,2.756,IMU1,237.37804878048783,2.3170731707317076,438.109756097561,0.759765625,-0.3017578125,-0.4765625
926,2.756,IMU2,235.18292682926833,0.12195121951219513,438.5365853658537,0.7548828125,-0.2744140625,-0.4658203125
927,2.766,IMU0,228.41463414634148,-1.829268292682927,438.4146341463415,0.6259765625,-0.3740234375,-0.4892578125
928,2.766,IMU1,234.20731707317074,0.24390243902439027,438.3536585365854,0.62109375,-0.314453125,-0.4755859375
929,2.766,IMU2,232.07317073170734,-1.829268292682927,438.7804878048781,0.6123046875,-0.2890625,-0.4736328125
930,2.776,IMU0,223.0487804878049,-1.3414634146341464,435.00000000000006,0.5654296875,-0.4482421875,-0.3720703125
931,2.776,IMU1,228.71951219512198,0.6707317073170732,434.75609756097566,0.548828125,-0.388671875,-0.361328125
932,2.776,IMU2,226.64634146341464,-1.524390243902439,435.06097560975616,0.5224609375,-0.361328125,-0.365234375
933,2.786,IMU0,217.01219512195124,-4.634146341463415,418.0487804878049,0.5224609375,-0.568359375,-0.4140625
934,2.786,IMU1,222.62195121951223,-2.804878048780488,417.68292682926835,0.49609375,-0.5126953125,-0.3896484375
935,2.786,IMU2,220.3048780487805,-4.695121951219512,417.80487804878055,0.458984375,-0.4921875,-0.373046875
936,2.796,IMU0,204.81707317073173,-6.402439024390245,397.19512195121956,0.4208984375,-0.4990234375,-0.3837890625
937,2.796,IMU1,210.3048780487805,-4.634146341463415,396.95121951219517,0.4033203125,-0.447265625,-0.369140625
938,2.796,IMU2,208.109756097561,-6.2804878048780495,397.07317073170736,0.375,-0.4208984375,-0.3623046875
939,2.806,IMU0,196.89024390243904,-4.390243902439025,384.51219512195127,0.3466796875,-0.470703125,-0.36328125
940,2.806,IMU1,202.31707317073173,-2.7439024390243905,384.32926829268297,0.3349609375,-0.423828125,-0.349609375
941,2.806,IMU2,200.1829268292683,-4.451219512195122,384.51219512195127,0.310546875,-0.404296875,-0.3369140625
942,2.816,IMU0,191.58536585365854,-0.853658536585366,379.26829268292687,0.259765625,-0.4169921875,-0.32421875
943,2.816,IMU1,196.89024390243904,0.7317073170731708,379.0853658536586,0.255859375,-0.3720703125,-0.3154296875
944,2.816,IMU2,194.81707317073173,-0.853658536585366,379.26829268292687,0.2412109375,-0.34765625,-0.3154296875
945,2.826,IMU0,189.26829268292684,2.5,380.12195121951225,0.1865234375,-0.3916015625,-0.2890625
946,2.826,IMU1,194.57317073170734,4.085365853658537,380.06097560975616,0.1875,-0.3466796875,-0.28515625
947,2.826,IMU2,192.6829268292683,2.6219512195121952,380.4268292682927,0.1767578125,-0.3271484375,-0.2861328125
948,2.836,IMU0,188.71951219512198,3.1097560975609757,385.12195121951225,0.140625,-0.3876953125,-0.259765625
949,2.836,IMU1,194.08536585365854,4.634146341463415,385.00000000000006,0.142578125,-0.34375,-0.2509765625
950,2.836,IMU2,192.07317073170734,2.987804878048781,385.3658536585366,0.1318359375,-0.3203125,-0.251953125
951,2.846,IMU0,187.43902439024393,2.0121951219512195,388.8414634146342,0.10546875,-0.3642578125,-0.1845703125
952,2.846,IMU1,192.7439024390244,3.536585365853659,388.6585365853659,0.107421875,-0.3193359375,-0.17578125
953,2.846,IMU2,190.7926829268293,1.9512195121951221,388.9634146341464,0.09765625,-0.2978515625,-0.171875
954,2.856,IMU0,185.1829268292683,1.2195121951219514,389.87804878048786,0.029296875,-0.3544921875,-0.1376953125
955,2.856,IMU1,190.5487804878049,2.7439024390243905,389.69512195121956,0.0341796875,-0.310546875,-0.12890625
956,2.856,IMU2,188.59756097560978,1.1585365853658538,390.00000000000006,0.025390625,-0.2890625,-0.125
957,2.866,IMU0,182.56097560975613,-6.219512195121951,389.63414634146346,-0.0556640625,-0.45703125,-0.1220703125
958,2.866,IMU1,188.0487804878049,-4.817073170731708,389.32926829268297,-0.0595703125,-0.4169921875,-0.111328125
959,2.866,IMU2,186.34146341463415,-5.7926829268292686,389.93902439024396,-0.0830078125,-0.3994140625,-0.1220703125
960,2.876,IMU0,176.28048780487808,-10.121951219512196,379.75609756097566,-0.0517578125,-0.5234375,-0.1708984375
961,2.876,IMU1,180.97560975609758,-8.414634146341465,377.9878048780488,-0.064453125,-0.4833984375,-0.1552734375
962,2.876,IMU2,179.39024390243904,-10.0,379.0853658536586,-0.0947265625,-0.4541015625,-0.1484375
963,2.886,IMU0,170.1219512195122,-12.987804878048781,369.93902439024396,-0.0810546875,-0.44140625,-0.1357421875
964,2.886,IMU1,175.609756097561,-11.76829268292683,369.63414634146346,-0.0849609375,-0.396484375,-0.134765625
965,2.886,IMU2,173.78048780487808,-12.560975609756099,370.12195121951225,-0.1015625,-0.375,-0.130859375
966,2.896,IMU0,170.4878048780488,-15.426829268292684,372.25609756097566,-0.0908203125,-0.359375,-0.1552734375
967,2.896,IMU1,176.03658536585368,-14.207317073170733,372.01219512195127,-0.0830078125,-0.3203125,-0.14453125
968,2.896,IMU2,173.84146341463415,-15.54878048780488,371.95121951219517,-0.087890625,-0.28125,-0.1484375
969,2.906,IMU0,173.65853658536588,-19.573170731707318,379.20731707317077,-0.1328125,-0.3134765625,-0.1279296875
970,2.906,IMU1,179.32926829268294,-18.29268292682927,378.9024390243903,-0.1220703125,-0.2744140625,-0.123046875
971,2.906,IMU2,177.01219512195124,-19.512195121951223,378.8414634146342,-0.1298828125,-0.2666015625,-0.12890625
972,2.916,IMU0,177.5609756097561,-22.865853658536587,388.9634146341464,-0.2060546875,-0.337890625,-0.087890625
973,2.916,IMU1,183.2926829268293,-21.646341463414636,388.6585365853659,-0.1884765625,-0.2978515625,-0.0830078125
974,2.916,IMU2,180.97560975609758,-22.621951219512198,388.4146341463415,-0.1923828125,-0.28515625,-0.0888671875
975,2.926,IMU0,184.32926829268294,-25.54878048780488,403.719512195122,-0.25,-0.298828125,-0.0947265625
976,2.926,IMU1,190.3048780487805,-24.26829268292683,403.4756097560976,-0.228515625,-0.2568359375,-0.09765625
977,2.926,IMU2,187.7439024390244,-25.30487804878049,402.9268292682927,-0.220703125,-0.236328125,-0.09375
978,2.936,IMU0,189.75609756097563,-26.03658536585366,415.7926829268293,-0.3125,-0.33203125,-0.109375
979,2.936,IMU1,195.7926829268293,-24.634146341463417,415.4268292682927,-0.3017578125,-0.291015625,-0.103515625
980,2.936,IMU2,193.41463414634148,-25.792682926829272,415.3658536585366,-0.3017578125,-0.2578125,-0.099609375
981,2.946,IMU0,191.28048780487808,-25.975609756097562,423.2317073170732,-0.390625,-0.353515625,-0.0830078125
982,2.946,IMU1,197.31707317073173,-24.451219512195124,422.80487804878055,-0.3798828125,-0.3095703125,-0.072265625
983,2.946,IMU2,195.1219512195122,-25.914634146341466,422.8658536585366,-0.390625,-0.2861328125,-0.0751953125
984,2.956,IMU0,192.07317073170734,-24.512195121951223,427.31707317073176,-0.4423828125,-0.412109375,-0.072265625
985,2.956,IMU1,198.109756097561,-22.865853658536587,426.82926829268297,-0.439453125,-0.3720703125,-0.06640625
986,2.956,IMU2,195.7317073170732,-24.878048780487806,427.13414634146346,-0.44921875,-0.3251953125,-0.0673828125
987,2.966,IMU0,190.97560975609758,-22.073170731707318,426.6463414634147,-0.4599609375,-0.40625,-0.0302734375
988,2.966,IMU1,197.01219512195124,-20.54878048780488,426.219512195122,-0.4580078125,-0.36328125,-0.021484375
989,2.966,IMU2,194.63414634146343,-22.31707317073171,426.5853658536586,-0.47265625,-0.3271484375,-0.0361328125
990,2.976,IMU0,188.53658536585368,-23.78048780487805,424.0243902439025,-0.490234375,-0.333984375,-0.0009765625
991,2.976,IMU1,194.63414634146343,-22.31707317073171,423.5975609756098,-0.484375,-0.2919921875,0.0078125
992,2.976,IMU2,192.31707317073173,-23.59756097560976,423.9024390243903,-0.5009765625,-0.2587890625,0.01171875
993,2.986,IMU0,186.58536585365854,-23.231707317073173,420.18292682926835,-0.5234375,-0.361328125,-0.025390625
994,2.986,IMU1,192.6219512195122,-21.585365853658537,419.63414634146346,-0.5283203125,-0.3212890625,-0.017578125
995,2.986,IMU2,190.3658536585366,-23.59756097560976,420.24390243902445,-0.5517578125,-0.283203125,-0.0166015625
996,2.996,IMU0,182.37804878048783,-21.097560975609756,410.609756097561,-0.5400390625,-0.3681640625,0.0234375
997,2.996,IMU1,188.2317073170732,-19.81707317073171,410.06097560975616,-0.546875,-0.328125,0.0419921875
998,2.996,IMU2,186.21951219512198,-21.097560975609756,410.609756097561,-0.5703125,-0.298828125,0.0576171875
999,3.006,IMU0,174.81707317073173,-16.82926829268293,397.62195121951225,-0.5537109375,-0.4453125,-0.0322265625
1000,3.006,IMU1,180.4268292682927,-15.487804878048783,397.07317073170736,-0.5595703125,-0.4111328125,-0.005859375
1001,3.006,IMU2,178.53658536585368,-17.195121951219512,397.8048780487805,-0.5927734375,-0.375,-0.0009765625
1002,3.016,IMU0,161.82926829268294,-11.585365853658537,372.8048780487805,-0.4951171875,-0.439453125,-0.07421875
1003,3.016,IMU1,167.25609756097563,-10.365853658536587,372.07317073170736,-0.5224609375,-0.408203125,-0.052734375
1004,3.016,IMU2,165.4268292682927,-11.707317073170733,373.2926829268293,-0.576171875,-0.376953125,-0.0439453125
1005,3.026,IMU0,143.65853658536588,2.1951219512195124,334.51219512195127,-0.423828125,-0.6025390625,-0.15625
1006,3.026,IMU1,148.41463414634148,3.231707317073171,333.8414634146342,-0.46484375,-0.578125,-0.1171875
1007,3.026,IMU2,147.01219512195124,1.829268292682927,335.1829268292683,-0.533203125,-0.5478515625,-0.09765625
1008,3.036,IMU0,120.1829268292683,15.487804878048783,288.6585365853659,-0.408203125,-0.515625,-0.16796875
1009,3.036,IMU1,124.45121951219514,16.219512195121954,288.0487804878049,-0.455078125,-0.4921875,-0.1328125
1010,3.036,IMU2,123.41463414634147,15.30487804878049,289.26829268292687,-0.5224609375,-0.486328125,-0.1181640625
1011,3.046,IMU0,100.54878048780489,25.670731707317074,244.57317073170734,-0.326171875,-0.556640625,-0.138671875
1012,3.046,IMU1,104.32926829268294,26.219512195121954,244.08536585365854,-0.373046875,-0.5390625,-0.109375
1013,3.046,IMU2,103.23170731707317,25.670731707317074,245.12195121951223,-0.443359375,-0.53515625,-0.095703125
1014,3.056,IMU0,77.37804878048782,32.31707317073171,196.21951219512198,-0.251953125,-0.4208984375,-0.2001953125
1015,3.056,IMU1,80.67073170731707,32.5609756097561,195.7317073170732,-0.302734375,-0.4033203125,-0.171875
1016,3.056,IMU2,80.0,32.37804878048781,196.70731707317074,-0.375,-0.412109375,-0.15234375
1017,3.066,IMU0,57.560975609756106,37.987804878048784,153.90243902439025,-0.2509765625,-0.3544921875,-0.1416015625
1018,3.066,IMU1,60.54878048780488,37.86585365853659,153.65853658536588,-0.2900390625,-0.349609375,-0.1162109375
1019,3.066,IMU2,59.81707317073171,38.23170731707317,154.14634146341464,-0.341796875,-0.3447265625,-0.103515625
1020,3.076,IMU0,45.91463414634147,39.207317073170735,123.84146341463416,-0.287109375,-0.2548828125,-0.044921875
1021,3.076,IMU1,48.59756097560976,38.78048780487805,123.78048780487806,-0.3125,-0.24609375,-0.0263671875
1022,3.076,IMU2,47.743902439024396,39.451219512195124,123.96341463414635,-0.3515625,-0.251953125,-0.0263671875
1023,3.086,IMU0,36.646341463414636,32.926829268292686,101.76829268292684,-0.240234375,-0.228515625,-0.0625
1024,3.086,IMU1,39.32926829268293,32.31707317073171,101.70731707317074,-0.265625,-0.224609375,-0.048828125
1025,3.086,IMU2,38.35365853658537,33.29268292682927,101.70731707317074,-0.3095703125,-0.2265625,-0.044921875
1026,3.096,IMU0,28.84146341463415,31.219512195121954,78.23170731707317,-0.2255859375,-0.2080078125,-0.0771484375
1027,3.096,IMU1,31.219512195121954,30.487804878048784,78.29268292682927,-0.2451171875,-0.2001953125,-0.060546875
1028,3.096,IMU2,30.30487804878049,31.52439024390244,78.17073170731707,-0.2822265625,-0.208984375,-0.056640625
1029,3.106,IMU0,21.158536585365855,24.207317073170735,60.1219512195122,-0.2431640625,-0.095703125,-0.0185546875
1030,3.106,IMU1,23.59756097560976,23.29268292682927,60.243902439024396,-0.2568359375,-0.087890625,-0.0078125
1031,3.106,IMU2,22.682926829268293,24.573170731707318,59.93902439024391,-0.28515625,-0.095703125,-0.0068359375
1032,3.116,IMU0,15.853658536585368,16.34146341463415,47.07317073170732,-0.2470703125,-0.09375,-0.0263671875
1033,3.116,IMU1,18.353658536585368,15.426829268292684,47.13414634146342,-0.26171875,-0.08984375,-0.01953125
1034,3.116,IMU2,17.25609756097561,16.70731707317073,46.768292682926834,-0.2900390625,-0.09765625,-0.01953125
1035,3.126,IMU0,12.073170731707318,11.219512195121952,36.890243902439025,-0.2490234375,-0.125,-0.0439453125
1036,3.126,IMU1,14.51219512195122,10.24390243902439,37.01219512195122,-0.2607421875,-0.125,-0.0361328125
1037,3.126,IMU2,13.29268292682927,11.585365853658537,36.58536585365854,-0.2841796875,-0.1318359375,-0.033203125
1038,3.136,IMU0,8.353658536585366,6.2804878048780495,26.76829268292683,-0.25390625,-0.1279296875,-0.0302734375
1039,3.136,IMU1,10.792682926829269,5.121951219512195,26.89024390243903,-0.265625,-0.1201171875,-0.021484375
1040,3.136,IMU2,9.573170731707318,6.585365853658537,26.402439024390247,-0.2880859375,-0.1279296875,-0.0224609375
1041,3.146,IMU0,4.51219512195122,0.24390243902439027,17.073170731707318,-0.2470703125,-0.125,-0.025390625
1042,3.146,IMU1,6.890243902439025,-1.0365853658536586,17.134146341463417,-0.2587890625,-0.1171875,-0.0126953125
1043,3.146,IMU2,5.609756097560976,0.30487804878048785,16.646341463414636,-0.28125,-0.1240234375,-0.0078125
1044,3.156,IMU0,-0.12195121951219513,-7.134146341463415,4.51219512195122,-0.212890625,-0.0830078125,-0.0771484375
1045,3.156,IMU1,2.3170731707317076,-8.414634146341465,4.51219512195122,-0.232421875,-0.078125,-0.072265625
1046,3.156,IMU2,1.0365853658536586,-6.890243902439025,3.963414634146342,-0.2607421875,-0.0888671875,-0.0751953125
1047,3.166,IMU0,-4.75609756097561,-5.975609756097562,-12.195121951219512,-0.1953125,-0.1162109375,-0.140625
1048,3.166,IMU1,-2.439024390243903,-7.134146341463415,-12.073170731707318,-0.2138671875,-0.1103515625,-0.1279296875
1049,3.166,IMU2,-3.658536585365854,-5.426829268292684,-12.74390243902439,-0.2412109375,-0.115234375,-0.126953125
1050,3.176,IMU0,-9.390243902439025,-3.536585365853659,-23.170731707317074,-0.236328125,-0.0859375,-0.1279296875
1051,3.176,IMU1,-7.25609756097561,-4.878048780487806,-22.98780487804878,-0.2490234375,-0.0810546875,-0.1142578125
1052,3.176,IMU2,-8.597560975609756,-3.231707317073171,-23.59756097560976,-0.2705078125,-0.0869140625,-0.1162109375
1053,3.186,IMU0,-11.158536585365855,3.658536585365854,-28.353658536585368,-0.1982421875,-0.0126953125,-0.1552734375
1054,3.186,IMU1,-9.085365853658537,2.3170731707317076,-28.04878048780488,-0.1962890625,-0.0048828125,-0.1513671875
1055,3.186,IMU2,-10.121951219512196,4.146341463414634,-28.59756097560976,-0.1982421875,-0.0087890625,-0.1533203125
1056,3.196,IMU0,-9.26829268292683,8.048780487804878,-21.52439024390244,-0.1171875,0.0048828125,-0.28515625
1057,3.196,IMU1,-7.073170731707318,6.829268292682928,-21.097560975609756,-0.1142578125,0.0087890625,-0.2861328125
1058,3.196,IMU2,-8.048780487804878,8.719512195121952,-21.402439024390247,-0.119140625,-0.0029296875,-0.2978515625
1059,3.206,IMU0,-4.146341463414634,22.865853658536587,-10.182926829268293,0.0693359375,0.060546875,-0.3505859375
1060,3.206,IMU1,-2.1341463414634148,21.82926829268293,-9.695121951219512,0.0888671875,0.06640625,-0.34765625
1061,3.206,IMU2,-3.1097560975609757,23.59756097560976,-9.817073170731708,0.103515625,0.0517578125,-0.3447265625
1062,3.216,IMU0,3.353658536585366,27.865853658536587,7.560975609756098,0.18359375,0.072265625,-0.3984375
1063,3.216,IMU1,5.548780487804878,26.89024390243903,8.048780487804878,0.1923828125,0.078125,-0.3994140625
1064,3.216,IMU2,4.634146341463415,28.53658536585366,7.926829268292684,0.201171875,0.0595703125,-0.41015625
1065,3.226,IMU0,11.890243902439025,33.35365853658537,21.52439024390244,0.3515625,0.0,-0.421875
1066,3.226,IMU1,13.841463414634148,32.5,22.073170731707318,0.3544921875,0.0107421875,-0.40625
1067,3.226,IMU2,12.865853658536587,33.963414634146346,22.012195121951223,0.3486328125,-0.0078125,-0.396484375
1068,3.236,IMU0,15.121951219512196,32.926829268292686,26.58536585365854,0.48046875,-0.0439453125,-0.4658203125
1069,3.236,IMU1,17.012195121951223,32.19512195121951,27.073170731707318,0.47265625,-0.0322265625,-0.447265625
1070,3.236,IMU2,16.03658536585366,33.59756097560976,26.707317073170735,0.45703125,-0.046875,-0.4375
1071,3.246,IMU0,15.975609756097562,31.463414634146343,24.573170731707318,0.537109375,-0.0810546875,-0.453125
1072,3.246,IMU1,17.804878048780488,30.670731707317074,24.939024390243905,0.5185546875,-0.068359375,-0.435546875
1073,3.246,IMU2,16.70731707317073,32.07317073170732,24.451219512195124,0.4892578125,-0.0859375,-0.4306640625
1074,3.256,IMU0,13.719512195121952,29.695121951219516,17.98780487804878,0.5712890625,-0.0927734375,-0.501953125
1075,3.256,IMU1,15.54878048780488,28.84146341463415,18.414634146341466,0.556640625,-0.076171875,-0.4921875
1076,3.256,IMU2,14.390243902439027,30.30487804878049,17.865853658536587,0.541015625,-0.0830078125,-0.462890625
1077,3.266,IMU0,13.475609756097562,26.89024390243903,15.670731707317074,0.7978515625,-0.08203125,-0.626953125
1078,3.266,IMU1,15.30487804878049,25.914634146341466,16.03658536585366,0.791015625,-0.064453125,-0.6162109375
1079,3.266,IMU2,14.451219512195124,26.951219512195124,15.487804878048783,0.8017578125,-0.0830078125,-0.63671875
1080,3.276,IMU0,9.207317073170733,21.03658536585366,10.24390243902439,0.98828125,-0.1396484375,-0.763671875
1081,3.276,IMU1,11.097560975609756,20.121951219512198,10.609756097560977,0.966796875,-0.125,-0.73828125
1082,3.276,IMU2,9.634146341463415,21.646341463414636,10.121951219512196,0.9521484375,-0.1298828125,-0.7373046875
1083,3.286,IMU0,4.390243902439025,21.52439024390244,5.7926829268292686,1.1484375,-0.08984375,-0.87109375
1084,3.286,IMU1,6.402439024390245,20.54878048780488,6.158536585365854,1.1318359375,-0.07421875,-0.8359375
1085,3.286,IMU2,5.182926829268293,22.25609756097561,5.670731707317073,1.1181640625,-0.091796875,-0.7919921875
1086,3.296,IMU0,1.6463414634146343,20.914634146341466,2.073170731707317,1.2509765625,-0.08203125,-0.9140625
1087,3.296,IMU1,3.963414634146342,19.81707317073171,2.439024390243903,1.234375,-0.0615234375,-0.8955078125
1088,3.296,IMU2,2.682926829268293,21.158536585365855,2.0121951219512195,1.216796875,-0.072265625,-0.919921875
1089,3.306,IMU0,1.402439024390244,19.512195121951223,2.8658536585365857,1.2802734375,0.0185546875,-0.91796875
1090,3.306,IMU1,3.536585365853659,18.658536585365855,3.231707317073171,1.2744140625,0.033203125,-0.9140625
1091,3.306,IMU2,2.6219512195121952,20.0,3.1097560975609757,1.2802734375,-0.0078125,-0.966796875
1092,3.316,IMU0,2.3170731707317076,17.804878048780488,6.829268292682928,1.2841796875,0.015625,-0.9228515625
1093,3.316,IMU1,4.51219512195122,17.012195121951223,7.01219512195122,1.2744140625,0.0517578125,-0.9296875
1094,3.316,IMU2,3.231707317073171,18.475609756097562,6.341463414634147,1.310546875,0.0517578125,-0.9375
1095,3.326,IMU0,2.439024390243903,16.585365853658537,8.109756097560977,1.302734375,-0.07421875,-0.9482421875
1096,3.326,IMU1,4.390243902439025,15.487804878048783,8.414634146341465,1.2783203125,-0.0498046875,-0.95703125
1097,3.326,IMU2,3.048780487804878,17.31707317073171,7.865853658536586,1.2958984375,-0.0244140625,-0.892578125
1098,3.336,IMU0,5.060975609756098,13.170731707317074,13.841463414634148,1.541015625,-0.04296875,-1.044921875
1099,3.336,IMU1,7.500000000000001,11.951219512195124,14.207317073170733,1.529296875,-0.0107421875,-1.03515625
1100,3.336,IMU2,5.853658536585367,13.536585365853659,14.390243902439027,1.5615234375,0.009765625,-1.033203125
1101,3.346,IMU0,8.536585365853659,8.109756097560977,21.707317073170735,1.9462890625,-0.0048828125,-1.197265625
