,ts,acc_x,acc_y,acc_z
0,31175,-1,0,0
1,31185,0,0,0
2,31195,-1,0,0
3,31205,0,0,0
4,31215,0,0,0
5,31225,-1,0,0
6,31235,-1,0,0
7,31245,-1,0,0
8,31255,0,0,0
9,31265,-1,0,0
10,31275,0,0,0
11,31285,0,0,0
12,31295,0,0,0
13,31305,0,0,0
14,31315,-1,0,0
15,31325,-1,0,0
16,31335,0,0,0
17,31345,-1,-1,0
18,31355,-1,0,0
19,31365,0,0,0
20,31375,0,0,0
21,31385,-1,0,0
22,31395,0,0,0
23,31405,-1,0,0
24,31415,0,0,0
25,31425,-1,0,0
26,31435,0,0,0
27,31445,-1,0,0
28,31455,-1,0,0
29,31465,-1,0,0
30,31475,0,0,0
31,31485,0,0,0
32,31495,0,0,0
33,31505,-1,0,0
34,31515,0,0,0
35,31525,-1,0,0
36,31535,-1,0,0
37,31545,0,0,0
38,31555,0,0,0
39,31565,0,-1,0
40,31575,0,-1,0
41,31585,0,-1,0
42,31595,0,0,0
43,31605,-1,-1,0
44,31615,-1,0,0
45,31625,-1,0,0
46,31635,0,0,0
47,31645,0,0,0
48,31655,0,0,0
49,31665,0,0,0
50,31675,-1,0,0
51,31685,0,0,0
52,31695,-1,0,0
53,31705,-1,0,0
54,31715,-1,0,0
55,31725,0,-1,0
56,31735,-1,0,0
57,31745,0,-1,0
58,31755,-1,0,0
59,31765,0,-1,0
60,31775,0,0,0
61,31785,0,-1,0
62,31795,0,0,0
63,31805,0,0,0
64,31815,-1,0,0
65,31825,0,0,0
66,31835,-1,0,0
67,31845,0,-1,0
68,31855,-1,0,0
69,31865,-1,-1,0
70,31875,-1,0,0
71,31885,0,-1,0
72,31895,0,0,0
73,31905,-1,0,0
74,31915,-1,0,0
75,31925,0,-1,0
76,31935,-1,0,0
77,31945,0,0,0
78,31955,-1,0,0
79,31965,-1,0,0
80,31975,-1,0,0
81,31985,-1,0,0
82,31995,0,0,0
83,32005,-1,0,0
84,32015,-1,0,0
85,32025,0,0,0
86,32035,-1,0,0
87,32045,0,0,0
88,32055,0,0,0
89,32065,-1,0,0
90,32075,-1,0,0
91,32085,-1,0,0
92,32095,0,-1,0
93,32105,0,0,0
94,32115,0,0,0
95,32125,0,-1,0
96,32135,-1,0,0
97,32145,-1,1,0
98,32155,0,0,0
99,32165,-1,0,0
100,32175,-1,0,0
101,32185,-1,0,0
102,32195,-1,-1,0
103,32205,-1,0,0
104,32215,-1,0,0
105,32225,0,-1,0
106,32235,-1,0,0
107,32245,0,0,0
108,32255,0,-1,0
109,32265,-1,0,0
110,32275,0,0,0
111,32285,-1,0,0
112,32295,-1,-1,0
113,32305,-1,0,0
114,32315,-1,0,0
115,32325,-1,-1,0
116,32335,-1,1,0
117,32345,0,-1,0
118,32355,-1,0,0
119,32365,0,0,0
120,32375,0,0,0
121,32385,-1,-1,0
122,32395,-1,1,0
123,32405,-1,-1,0
124,32415,-1,-1,0
125,32425,-1,0,0
126,32435,0,-1,0
127,32445,-1,0,0
128,32455,0,0,0
129,32465,-1,0,0
130,32475,0,-1,0
131,32485,-1,0,0
132,32495,-1,0,0
133,32505,-1,-1,0
134,32515,0,-1,0
135,32525,-1,0,0
136,32535,0,0,0
137,32545,-1,-1,0
138,32555,-1,0,0
139,32565,-1,0,0
140,32575,-1,0,0
141,32585,0,-1,0
142,32595,0,0,0
143,32605,-1,0,0
144,32615,-1,0,0
145,32625,-1,-1,0
146,32635,-1,0,0
147,32645,-1,0,0
148,32655,0,0,0
149,32665,-1,0,0
150,32675,0,-1,0
151,32685,-1,0,0
152,32695,-1,0,0
153,32705,0,0,0
154,32715,-1,-1,0
155,32725,0,-1,0
156,32735,-1,0,0
157,32745,-1,0,0
158,32755,-1,0,0
159,32765,-1,0,0
160,32775,0,0,0
161,32785,-1,-1,0
162,32795,0,0,0
163,32805,0,0,0
164,32815,-1,0,0
165,32825,-1,-1,0
166,32835,-1,-1,0
167,32845,0,0,0
168,32855,-1,0,0
169,32865,0,0,0
170,32875,0,0,0
171,32885,0,-1,0
172,32895,-1,0,0
173,32905,0,0,0
174,32915,-1,1,0
175,32925,-1,0,0
176,32935,0,0,0
177,32945,-1,0,0
178,32955,0,-1,0
179,32965,-1,0,0
180,32975,-1,0,0
181,32985,-1,0,0
182,32995,0,0,0
183,33005,-1,0,0
184,33015,0,-1,0
185,33025,-1,-1,0
186,33035,-1,0,0
187,33045,0,0,0
188,33055,0,0,0
189,33065,-1,1,0
190,33075,0,-1,0
191,33085,0,-1,0
192,33095,-1,-1,0
193,33105,-1,0,0
194,33115,0,-1,0
195,33125,-1,1,0
196,33135,-1,0,0
197,33145,0,0,0
198,33155,0,0,0
199,33165,-1,-1,0
200,33175,0,-1,0
201,33185,-1,0,0
202,33195,-1,0,0
203,33205,0,0,0
204,33215,0,0,0
205,33225,0,0,0
206,33235,0,-1,0
207,33245,0,0,0
208,33255,0,-1,0
209,33265,-1,0,0
210,33275,0,0,0
211,33285,0,0,0
212,33295,0,0,0
213,33305,0,-1,0
214,33315,0,-1,0
215,33325,-1,0,0
216,33335,0,0,0
217,33345,0,0,0
218,33355,-1,0,0
219,33365,0,-1,0
220,33375,-1,0,0
221,33385,0,0,0
222,33395,0,-1,0
223,33405,-1,-1,0
224,33415,-1,0,0
225,33425,0,0,0
226,33435,0,-1,0
227,33445,-1,0,0
228,33455,0,0,0
229,33465,0,-1,0
230,33475,-1,-1,0
231,33485,0,0,0
232,33495,0,0,0
233,33505,-1,-1,0
234,33515,-1,0,0
235,33525,0,0,0
236,33535,-1,-1,0
237,33545,0,-1,0
238,33555,-1,1,0
239,33565,0,-1,0
240,33575,0,0,0
241,33585,0,0,0
242,33595,-1,0,0
243,33605,0,-1,0
244,33615,0,0,0
245,33625,-1,0,0
246,33635,0,-1,0
247,33645,-1,0,0
248,33655,0,0,0
249,33665,0,0,0
250,33675,-1,-1,0
251,33685,0,0,0
252,33695,-1,-1,0
253,33705,-1,0,0
254,33715,0,0,0
255,33725,0,0,0
256,33735,0,-1,0
257,33745,-1,1,0
258,33755,0,0,0
259,33765,0,-1,0
260,33775,-1,0,0
261,33785,0,0,0
262,33795,0,0,0
263,33805,0,-1,0
264,33815,-1,0,0
265,33825,-1,0,0
266,33835,-1,0,0
267,33845,0,-1,0
268,33855,-1,0,0
269,33865,0,0,0
270,33875,0,-1,0
271,33885,-1,-1,0
272,33895,0,0,0
273,33905,-1,0,0
274,33915,0,-1,0
275,33925,0,-1,0
276,33935,-1,0,0
277,33945,0,0,0
278,33955,0,0,0
279,33965,0,-1,0
280,33975,0,-1,0
281,33985,-1,0,0
282,33995,-1,1,0
283,34005,0,-1,0
284,34015,-1,-1,0
285,34025,-1,-1,0
286,34035,0,0,0
287,34045,-1,0,0
288,34055,0,-1,0
289,34065,-1,-1,0
290,34075,-1,0,0
291,34085,0,0,0
292,34095,0,0,0
293,34105,-1,-1,0
294,34115,-1,0,0
295,34125,0,0,0
296,34135,0,-1,0
297,34145,-1,-1,0
298,34155,0,-1,0
299,34165,-1,0,0
300,34175,0,0,0
301,34185,0,-1,0
302,34195,-1,-1,0
303,34205,0,-1,0
304,34215,-1,0,0
305,34225,-1,0,0
306,34235,0,-1,0
307,34245,-1,-1,0
308,34255,0,0,0
309,34265,0,0,0
310,34275,0,0,0
311,34285,0,-1,0
312,34295,-1,-1,0
313,34305,-1,0,0
314,34315,0,-1,0
315,34325,-1,0,0
316,34335,-1,-1,0
317,34345,0,0,0
318,34355,-1,0,0
319,34365,0,0,0
320,34375,-1,-1,0
321,34385,-1,-1,0
322,34395,0,-1,0
323,34405,-1,0,0
324,34415,0,0,0
325,34425,0,-1,0
326,34435,-1,-1,0
327,34445,-1,-1,0
328,34455,0,0,0
329,34465,-1,0,0
330,34475,0,-1,0
331,34485,-1,-1,0
332,34495,-1,-1,0
333,34505,-1,0,0
334,34515,-1,0,0
335,34525,0,1,0
336,34535,-1,-1,0
337,34545,-1,-1,0
338,34555,0,0,0
339,34565,-1,0,0
340,34575,0,-1,0
341,34585,0,-1,0
342,34595,-1,0,0
343,34605,-1,0,0
344,34615,0,0,0
345,34625,-1,0,0
346,34635,-1,-1,0
347,34645,-1,-1,0
348,34655,-1,-1,0
349,34665,-1,0,0
350,34675,0,0,0
351,34685,-1,0,0
352,34695,0,-1,0
353,34705,0,-1,0
354,34715,-1,-1,0
355,34725,-1,0,0
356,34735,0,0,0
357,34745,-1,0,0
358,34755,-1,0,0
359,34765,0,0,0
360,34775,0,-1,0
361,34785,-1,-1,0
362,34795,-1,0,0
363,34805,-1,-1,0
364,34815,-1,0,0
365,34825,-1,0,0
366,34835,0,-1,0
367,34845,-1,-1,0
368,34855,-1,0,0
369,34865,-1,-1,0
370,34875,-1,0,0
371,34885,-1,0,0
372,34895,-1,0,0
373,34905,-1,-1,0
374,34915,-1,0,0
375,34925,0,-1,0
376,34935,-1,-1,0
377,34945,0,0,0
378,34955,-1,0,0
379,34965,-1,0,0
380,34975,0,-1,0
381,34985,0,-1,0
382,34995,-1,0,0
383,35005,-1,0,0
384,35015,0,0,0
385,35025,-1,0,0
386,35035,-1,-1,0
387,35045,0,-1,0
388,35055,0,-1,0
389,35065,-1,0,0
390,35075,-1,0,0
391,35085,0,-1,0
392,35095,-1,0,0
393,35105,-1,0,0
394,35115,0,-1,0
395,35125,0,0,0
396,35135,-1,0,0
397,35145,-1,0,0
398,35155,0,0,0
399,35165,-1,0,0
400,35175,0,-1,0
401,35185,-1,-1,0
402,35195,-1,0,0
403,35205,0,0,0
404,35215,0,0,0
405,35225,-1,0,0
406,35235,-1,0,0
407,35245,0,-1,0
408,35255,-1,-1,0
409,35265,-1,-1,0
410,35275,0,-1,0
411,35285,0,0,0
412,35295,-1,0,0
413,35305,0,-1,0
414,35315,-1,-1,0
415,35325,0,-1,0
416,35335,-1,-1,0
417,35345,0,-1,0
418,35355,-1,-1,0
419,35365,0,0,0
420,35375,0,0,0
421,35385,0,-1,0
422,35395,-1,-1,0
423,35405,0,-1,0
424,35415,-1,0,0
425,35425,-1,0,0
426,35435,-1,0,0
427,35445,0,0,0
428,35455,-1,-1,0
429,35465,-1,0,0
430,35475,0,-1,0
431,35485,0,-1,0
432,35495,-1,0,0
433,35505,0,0,0
434,35515,0,-1,0
435,35525,-1,1,0
436,35535,0,-1,0
437,35545,0,-1,0
438,35555,0,-1,0
439,35565,-1,0,0
440,35575,0,-1,0
441,35585,-1,0,0
442,35595,-1,0,0
443,35605,0,0,0
444,35615,0,-1,0
445,35625,0,0,0
446,35635,0,-1,0
447,35645,0,-1,0
448,35655,0,-1,0
449,35665,-1,0,0
450,35675,-1,0,0
451,35685,0,-1,0
452,35695,-1,0,0
453,35705,-1,0,0
454,35715,0,0,0
455,35725,0,-1,0
456,35735,0,-1,0
457,35745,0,-1,0
458,35755,0,-1,0
459,35765,-1,-1,0
460,35775,0,0,0
461,35785,0,0,0
462,35795,0,-1,0
463,35805,0,-1,0
464,35815,0,-1,0
465,35825,-1,0,0
466,35835,0,0,0
467,35845,-1,-1,0
468,35855,0,0,0
469,35865,0,0,0
470,35875,0,-1,0
471,35885,0,-1,0
472,35895,-1,-1,0
473,35905,-1,-1,0
474,35915,0,-1,0
475,35925,0,-1,0
476,35935,-1,0,0
477,35945,0,0,0
478,35955,0,0,0
479,35965,0,-1,0
480,35975,-1,-1,0
481,35985,0,-1,0
482,35995,-1,-1,0
483,36005,-1,0,0
484,36015,0,0,0
485,36025,0,-1,0
486,36035,-1,0,0
487,36045,0,0,0
488,36055,0,-1,0
489,36065,0,-1,0
490,36075,-1,-1,0
491,36085,-1,-1,0
492,36095,0,-1,0
493,36105,-1,0,0
494,36115,-1,0,0
495,36125,0,0,0
496,36135,0,-1,0
497,36145,-1,0,0
498,36155,0,-1,0
499,36165,-1,-1,0
500,36175,0,-1,0
501,36185,-1,0,0
502,36195,0,0,0
503,36205,0,0,0
504,36215,-1,0,0
505,36225,0,-1,0
506,36235,0,-1,0
507,36245,-1,-1,0
508,36255,0,-1,0
509,36265,-1,-1,0
510,36275,-1,0,0
511,36285,-1,1,0
512,36295,-1,0,0
513,36305,0,0,0
514,36315,0,-1,0
515,36325,-1,0,0
516,36335,0,-1,0
517,36345,0,-1,0
518,36355,-1,-1,0
519,36365,-1,-1,0
520,36375,0,0,0
521,36385,0,0,0
522,36395,0,0,0
523,36405,0,-1,0
524,36415,0,-1,0
525,36425,0,-1,0
526,36435,-1,0,0
527,36445,0,-1,0
528,36455,-1,0,0
529,36465,0,0,0
530,36475,0,0,0
531,36485,-1,-1,0
532,36495,0,0,0
533,36505,-1,0,0
534,36515,0,-1,0
535,36525,0,-1,0
536,36535,-1,-1,0
537,36545,-1,0,0
538,36555,0,-1,0
539,36565,-1,0,0
540,36575,-1,0,0
541,36585,-1,0,0
542,36595,0,-1,0
543,36605,-1,-1,0
544,36615,0,-1,0
545,36625,-1,-1,0
546,36635,-1,0,0
547,36645,0,0,0
548,36655,0,-1,0
549,36665,0,0,0
550,36675,-1,0,0
551,36685,0,-1,0
552,36695,0,-1,0
553,36705,-1,-1,0
554,36715,-1,-1,0
555,36725,0,-1,0
556,36735,0,0,0
557,36745,0,0,0
558,36755,0,-1,0
559,36765,0,-1,0
560,36775,-1,-1,0
561,36785,0,-1,0
562,36795,0,0,0
563,36805,-1,0,0
564,36815,0,-1,0
565,36825,-1,-1,0
566,36835,0,-1,0
567,36845,-1,0,0
568,36855,-1,0,0
569,36865,0,-1,0
570,36875,-1,0,0
571,36885,0,-1,0
572,36895,-1,0,0
573,36905,0,0,0
574,36915,-1,-1,0
575,36925,0,0,0
576,36935,-1,-1,0
577,36945,0,-1,0
578,36955,-1,0,0
579,36965,-1,-1,0
580,36975,0,-1,0
581,36985,-1,0,0
582,36995,0,-1,0
583,37005,0,-1,0
584,37015,0,-1,0
585,37025,0,-1,0
586,37035,-1,-1,0
587,37045,0,-1,0
588,37055,-1,-1,0
589,37065,-1,-1,0
590,37075,0,-1,0
591,37085,0,-1,0
592,37095,0,0,0
593,37105,0,0,0
594,37115,-1,-1,0
595,37125,-1,-1,0
596,37135,-1,-1,0
597,37145,0,-1,0
598,37155,0,-1,0
599,37165,0,-1,0
600,37175,-1,-1,0
601,37185,0,-1,0
602,37195,0,-1,0
603,37205,-1,-1,0
604,37215,-1,-1,0
605,37225,0,-1,0
606,37235,0,-1,0
607,37245,0,-1,0
608,37255,-1,-1,0
609,37265,0,-1,0
610,37275,-1,-1,0
611,37285,-1,-1,0
612,37295,0,-1,0
613,37305,-1,0,0
614,37315,-1,-1,0
615,37325,-1,-1,0
616,37335,0,-1,0
617,37345,0,-1,0
618,37355,0,0,0
619,37365,-1,-1,0
620,37375,0,0,0
621,37385,0,0,0
622,37395,0,0,0
623,37405,0,0,0
624,37415,0,0,0
625,37425,0,0,0
626,37435,0,-1,0
627,37445,-1,-1,0
628,37455,0,0,0
629,37465,-1,-1,0
630,37475,0,-1,0
631,37485,-1,0,0
632,37495,0,-1,0
633,37505,-1,-1,0
634,37515,-1,-1,0
635,37525,0,0,0
636,37535,0,-1,0
637,37545,0,0,0
638,37555,-1,0,0
639,37565,-1,-1,0
640,37575,0,0,0
641,37585,0,0,0
642,37595,0,-1,0
643,37605,-1,-1,0
644,37615,-1,0,0
645,37625,-1,-1,0
646,37635,-1,-1,0
647,37645,0,-1,0
648,37655,-1,-1,0
649,37665,0,-1,0
650,37675,-1,-1,0
651,37685,-1,0,0
652,37695,-1,-1,0
653,37705,-1,-1,0
654,37715,0,-1,0
655,37725,0,0,0
656,37735,-1,-1,0
657,37745,0,0,0
658,37755,0,-1,0
659,37765,0,-1,0
660,37775,0,-1,0
661,37785,-1,0,0
662,37795,-1,-1,0
663,37805,-1,-1,0
664,37815,-1,-1,0
665,37825,-1,-1,0
666,37835,-1,0,0
667,37845,-1,-1,0
668,37855,0,-1,0
669,37865,-1,-1,0
670,37875,0,-1,0
671,37885,0,-1,0
672,37895,-1,0,0
673,37905,-1,-1,0
674,37915,-1,-1,0
675,37925,-1,-1,0
676,37935,0,-1,0
677,37945,-1,-1,0
678,37955,-1,-1,0
679,37965,-1,-1,0
680,37975,-1,0,0
681,37985,-1,-1,0
682,37995,0,-1,0
683,38005,0,-1,0
684,38015,-1,-1,0
685,38025,-1,-1,0
686,38035,-1,-1,0
687,38045,-1,-1,0
688,38055,-1,-1,0
689,38065,-1,-1,0
690,38075,-1,-1,0
691,38085,-1,-1,0
692,38095,-1,-1,0
693,38105,-1,-1,0
694,38115,-1,0,0
695,38125,-1,-1,0
696,38135,-1,-1,0
697,38145,0,-1,0
698,38155,0,-1,0
699,38165,-1,-1,0
700,38175,-1,-1,0
701,38185,0,-1,0
702,38195,0,-1,0
703,38205,0,-1,0
704,38215,0,-1,0
705,38225,-1,0,0
706,38235,-1,-1,0
707,38245,0,0,0
708,38255,0,-1,0
709,38265,0,-1,0
710,38275,-1,-1,0
711,38285,-1,-1,0
712,38295,-1,-1,0
713,38305,-1,-1,0
714,38315,-1,-1,0
715,38325,-1,-1,0
716,38335,0,-1,0
717,38345,0,-1,0
718,38355,0,-1,0
719,38365,0,-1,0
720,38375,-1,0,0
721,38385,-1,-1,0
722,38395,-1,-1,0
723,38405,-1,-1,0
724,38415,-1,-1,0
725,38425,0,-1,0
726,38435,-1,-1,0
727,38445,-1,-1,0
728,38455,0,-1,0
729,38465,-1,-1,0
730,38475,0,-1,0
731,38485,0,-1,0
732,38495,0,-1,0
733,38505,-1,-1,0
734,38515,-1,-1,0
735,38525,0,-1,0
736,38535,-1,-1,0
737,38545,0,-1,0
738,38555,0,-1,0
739,38565,0,-1,0
740,38575,0,-1,0
741,38585,0,-1,0
742,38595,-1,-1,0
743,38605,0,-1,0
744,38615,-1,0,0
745,38625,-1,-1,0
746,38635,-1,0,0
747,38645,0,-1,0
748,38655,-1,-1,0
749,38665,0,0,0
750,38675,-1,-1,0
751,38685,0,-1,0
752,38695,-1,-1,0
753,38705,-1,-1,0
754,38715,0,-1,0
755,38725,0,-1,0
756,38735,0,-1,0
757,38745,0,-1,0
758,38755,0,-1,0
759,38765,-1,-1,0
760,38775,0,-1,0
761,38785,0,-1,0
762,38795,0,-1,0
763,38805,0,-1,0
764,38815,0,-1,0
765,38825,0,-1,0
766,38835,-1,-1,0
767,38845,-1,-1,0
768,38855,0,-1,0
769,38865,0,-1,0
770,38875,-1,-1,0
771,38885,0,-1,0
772,38895,0,-1,0
773,38905,0,-1,0
774,38915,0,-1,0
775,38925,0,-1,0
776,38935,-1,-1,0
777,38945,0,-1,0
778,38955,0,-1,0
779,38965,0,-1,0
780,38975,0,-1,0
781,38985,0,-1,0
782,38995,-1,-1,0
783,39005,0,-1,0
784,39015,0,-1,0
785,39025,0,-1,0
786,39035,0,-1,0
787,39045,0,-1,0
788,39055,-1,-1,0
789,39065,0,-1,0
790,39075,0,-1,0
791,39085,0,-1,0
792,39095,0,-1,0
793,39105,-1,-1,0
794,39115,0,0,0
795,39125,0,-1,0
796,39135,-1,-1,0
797,39145,0,-1,0
798,39155,0,-1,0
799,39165,0,-1,0
800,39175,0,-1,0
801,39185,0,-1,0
802,39195,0,-1,0
803,39205,-1,-1,0
804,39215,0,-1,0
805,39225,0,-1,0
806,39235,0,-1,0
807,39245,-1,-1,0
808,39255,-1,-1,0
809,39265,0,-1,0
810,39275,0,-1,0
811,39285,0,-1,0
812,39295,0,-1,0
813,39305,0,-1,0
814,39315,-1,-1,0
815,39325,0,-1,0
816,39335,0,-1,0
817,39345,0,-1,0
818,39355,0,-1,0
819,39365,0,-1,0
820,39375,0,-1,0
821,39385,-1,-1,0
822,39395,-1,-1,0
823,39405,-1,-1,0
824,39415,0,-1,0
825,39425,-1,-1,0
826,39435,-1,-1,0
827,39445,0,-1,0
828,39455,0,-1,0
829,39465,0,-1,0
830,39475,0,-1,0
831,39485,0,-1,0
832,39495,0,-1,0
833,39505,0,-1,0
834,39515,0,0,0
835,39525,-1,-1,0
836,39535,0,-1,0
837,39545,0,-1,0
838,39555,0,-1,0
839,39565,-1,-1,0
840,39575,0,-1,0
841,39585,0,-1,0
842,39595,0,0,0
843,39605,0,0,0
844,39615,0,-1,0
845,39625,0,0,0
846,39635,0,0,0
847,39645,0,-1,0
848,39655,0,-1,0
849,39665,0,-1,0
850,39675,0,-1,0
851,39685,-1,-1,0
852,39695,-1,-1,0
853,39705,0,0,0
854,39715,-1,0,0
855,39725,0,-1,0
856,39735,0,-1,0
857,39745,0,-1,0
858,39755,0,-1,0
859,39765,0,-1,0
860,39775,0,-1,0
861,39785,0,-1,0
862,39795,0,-1,0
863,39805,0,-1,0
864,39815,0,-1,0
865,39825,0,-1,0
866,39835,0,-1,0
867,39845,-1,-1,0
868,39855,0,-1,0
869,39865,-1,0,0
870,39875,-1,-1,0
871,39885,0,-1,0
872,39895,0,0,0
873,39905,0,-1,0
874,39915,0,-1,0
875,39925,0,-1,0
876,39935,0,-1,0
877,39945,0,-1,0
878,39955,-1,-1,0
879,39965,0,-1,0
880,39975,-1,-1,0
881,39985,0,-1,0
882,39995,-1,-1,0
883,40005,-1,-1,0
884,40015,-1,0,0
885,40025,0,-1,0
886,40035,0,-1,0
887,40045,0,-1,0
888,40055,0,-1,0
889,40065,-1,-1,0
890,40075,-1,-1,0
891,40085,-1,-1,0
892,40095,0,-1,0
893,40105,0,-1,0
894,40115,0,-1,0
895,40125,0,-1,0
896,40135,0,-1,0
897,40145,0,-1,0
898,40155,0,-1,0
899,40165,0,-1,0
900,40175,0,-1,0
901,40185,0,-1,0
902,40195,0,-1,0
903,40205,0,-1,0
904,40215,-1,-1,0
905,40225,0,-1,0
906,40235,-1,-1,0
907,40245,0,-1,0
908,40255,-1,-1,0
909,40265,0,-1,0
910,40275,-1,-1,0
911,40285,-1,-1,0
912,40295,0,0,0
913,40305,0,0,0
914,40315,0,-1,0
915,40325,0,-1,0
916,40335,0,-1,0
917,40345,0,-1,0
918,40355,0,-1,0
919,40365,0,-1,0
920,40375,-1,-1,0
921,40385,-1,-1,0
922,40395,-1,-1,0
923,40405,-1,-1,0
924,40415,-1,0,0
925,40425,-1,-1,0
926,40435,0,-1,0
927,40445,0,-1,0
928,40455,0,-1,0
929,40465,0,0,0
930,40475,-1,-1,0
931,40485,-1,-1,0
932,40495,0,-1,0
933,40505,0,-1,0
934,40515,0,0,0
935,40525,-1,-1,0
936,40535,0,-1,0
937,40545,0,-1,0
938,40555,0,-1,0
939,40565,0,-1,0
940,40575,-1,-1,0
941,40585,0,-1,0
942,40595,0,-1,0
943,40605,0,-1,0
944,40615,0,0,0
945,40625,0,-1,0
946,40635,0,-1,0
947,40645,0,-1,0
948,40655,0,-1,0
949,40665,0,-1,0
950,40675,0,-1,0
951,40685,0,0,0
952,40695,0,-1,0
953,40705,-1,-1,0
954,40715,0,-1,0
955,40725,-1,-1,0
956,40735,1,-1,0
957,40745,-1,-1,0
958,40755,0,0,0
959,40765,0,0,0
960,40775,0,-1,0
961,40785,0,-1,0
962,40795,0,-1,0
963,40805,0,-1,0
964,40815,0,-1,0
965,40825,0,-1,0
966,40835,-1,-1,0
967,40845,0,-1,0
968,40855,0,-1,0
969,40865,0,-1,0
970,40875,0,0,0
971,40885,0,-1,0
972,40895,0,0,0
973,40905,-1,-1,0
974,40915,-1,-1,0
975,40925,0,-1,0
976,40935,0,-1,0
977,40945,0,-1,0
978,40955,0,-1,0
979,40965,0,-1,0
980,40975,0,-1,0
981,40985,0,-1,0
982,40995,0,-1,0
983,41005,0,-1,0
984,41015,0,-1,0
985,41025,0,-1,0
986,41035,0,-1,0
987,41045,-1,-1,0
988,41055,0,-1,0
989,41065,0,-1,0
990,41075,-1,0,0
991,41085,-1,-1,0
992,41095,0,-1,0
993,41105,0,-1,0
994,41115,0,0,0
995,41125,0,-1,0
996,41135,0,-1,0
997,41145,-1,-1,0
998,41155,0,-1,0
999,41165,-1,-1,0
1000,41175,0,-1,0
1001,41185,0,-1,0
1002,41195,0,-1,0
1003,41205,-1,-1,0
1004,41215,0,0,0
1005,41225,0,-1,0
1006,41235,-1,-1,0
1007,41245,0,-1,0
1008,41255,0,-1,0
1009,41265,0,-1,0
1010,41275,0,-1,0
1011,41285,0,-1,0
1012,41295,0,-1,0
1013,41305,-1,-1,0
1014,41315,-1,-1,0
1015,41325,-1,-1,0
1016,41335,-1,-1,0
1017,41345,-1,-1,0
1018,41355,0,-1,0
1019,41365,0,-1,0
1020,41375,0,-1,0
1021,41385,0,-1,0
1022,41395,1,-1,0
1023,41405,0,-1,0
1024,41415,0,0,0
1025,41425,0,-1,0
1026,41435,0,0,0
1027,41445,0,-1,0
1028,41455,-1,-1,0
1029,41465,0,-1,0
1030,41475,0,-1,0
1031,41485,-1,-1,0
1032,41495,-1,-1,0
1033,41505,0,-1,0
1034,41515,0,-1,0
1035,41525,0,-1,0
1036,41535,0,-1,0
1037,41545,0,-1,0
1038,41555,0,-1,0
1039,41565,0,-1,0
1040,41575,0,-1,0
1041,41585,0,-1,0
1042,41595,0,-1,0
1043,41605,0,-1,0
1044,41615,0,-1,0
1045,41625,0,-1,0
1046,41635,0,-1,0
1047,41645,-1,-1,0
1048,41655,-1,-1,0
1049,41665,0,-1,0
1050,41675,0,-1,0
1051,41685,-1,-1,0
1052,41695,0,-1,0
1053,41705,0,0,0
1054,41715,0,-1,0
1055,41725,0,-1,0
1056,41735,0,-1,0
1057,41745,0,-1,0
1058,41755,0,-1,0
1059,41765,0,-1,0
1060,41775,0,-1,0
1061,41785,-1,-1,0
1062,41795,0,-1,0
1063,41805,0,-1,0
1064,41815,0,-1,0
1065,41825,0,-1,0
1066,41835,0,-1,0
1067,41845,0,-1,0
1068,41855,0,-1,0
1069,41865,0,-1,0
1070,41875,0,-1,0
1071,41885,0,-1,0
1072,41895,-1,-1,0
1073,41905,0,-1,0
1074,41915,0,0,0
1075,41925,0,-1,0
1076,41935,0,-1,0
1077,41945,0,-1,0
1078,41955,0,-1,0
1079,41965,-1,-1,0
1080,41975,0,-1,0
1081,41985,0,-1,0
1082,41995,0,-1,0
1083,42005,0,-1,0
1084,42015,0,-1,0
1085,42025,-1,-1,0
1086,42035,-1,-1,0
1087,42045,0,-1,0
1088,42055,0,-1,0
1089,42065,-1,-1,0
1090,42075,0,-1,0
1091,42085,-1,-1,0
1092,42095,0,-1,0
1093,42105,0,-1,0
1094,42115,0,-1,0
1095,42125,0,-1,0
1096,42135,0,-1,0
1097,42145,0,-1,0
1098,42155,0,-1,0
1099,42165,0,-1,0
1100,42175,0,-1,0
1101,42185,-1,-1,0
1102,42195,0,-1,0
1103,42205,0,-1,0
1104,42215,0,-1,0
1105,42225,0,-1,0
1106,42235,0,-1,0
1107,42245,0,0,0
1108,42255,-1,-1,0
1109,42265,0,-1,0
1110,42275,0,-1,0
1111,42285,0,-1,0
1112,42295,0,-1,0
1113,42305,0,-1,0
1114,42315,0,-1,0
1115,42325,0,-1,0
1116,42335,0,-1,0
1117,42345,0,-1,0
1118,42355,0,-1,0
1119,42365,0,-1,0
1120,42375,0,-1,0
1121,42385,0,-1,0
1122,42395,-1,-1,0
1123,42405,0,0,0
1124,42415,0,-1,0
1125,42425,0,-1,0
1126,42435,0,-1,0
1127,42445,0,-1,0
1128,42455,-1,-1,0
1129,42465,0,-1,0
1130,42475,0,-1,0
1131,42485,-1,-1,0
1132,42495,0,-1,0
1133,42505,0,-1,0
1134,42515,0,-1,0
1135,42525,-1,-1,0
1136,42535,0,-1,0
1137,42545,0,-1,0
1138,42555,0,-1,0
1139,42565,0,-1,0
1140,42575,0,-1,0
1141,42585,0,-1,0
1142,42595,0,-1,0
1143,42605,0,-1,0
1144,42615,0,-1,0
1145,42625,-1,-1,0
1146,42635,0,-1,0
1147,42645,0,-1,0
1148,42655,0,-1,0
1149,42665,0,-1,0
1150,42675,0,-1,0
1151,42685,0,-1,0
1152,42695,0,-1,0
1153,42705,0,-1,0
1154,42715,0,-1,0
1155,42725,-1,-1,0
1156,42735,0,-1,0
1157,42745,0,-1,0
1158,42755,0,-1,0
1159,42765,-1,-1,0
1160,42775,0,-1,0
1161,42785,0,-1,0
1162,42795,0,-1,0
1163,42805,0,-1,0
1164,42815,0,0,0
1165,42825,0,-1,0
1166,42835,0,-1,0
1167,42845,0,-1,0
1168,42855,0,-1,0
1169,42865,0,-1,0
1170,42875,-1,-1,0
1171,42885,-1,-1,0
1172,42895,-1,-1,0
1173,42905,-1,-1,0
1174,42915,0,-1,0
1175,42925,0,-1,0
1176,42935,0,-1,0
1177,42945,0,-1,0
1178,42955,0,-1,0
1179,42965,-1,-1,0
1180,42975,-1,-1,0
1181,42985,-1,-1,0
1182,42995,-1,-1,0
1183,43005,0,-1,0
1184,43015,0,-1,0
1185,43025,0,-1,0
1186,43035,0,-1,0
1187,43045,0,-1,0
1188,43055,0,-1,0
1189,43065,0,-1,0
1190,43075,0,-1,0
1191,43085,0,-1,0
1192,43095,0,-1,0
1193,43105,0,-1,0
1194,43115,0,-1,0
1195,43125,0,-1,0
1196,43135,-1,0,0
1197,43145,0,-1,0
1198,43155,0,-1,0
1199,43165,0,-1,0
1200,43175,0,-1,0
1201,43185,0,-1,0
1202,43195,0,-1,0
1203,43205,0,-1,0
1204,43215,0,-1,0
1205,43225,0,-1,0
1206,43235,0,-1,0
1207,43245,0,-1,0
1208,43255,0,-1,0
1209,43265,-1,-1,0
1210,43275,0,-1,0
1211,43285,0,-1,0
1212,43295,0,-1,0
1213,43305,0,-1,0
1214,43315,0,-1,0
1215,43325,0,-1,0
1216,43335,0,-1,0
1217,43345,-1,-1,0
1218,43355,-1,-1,0
1219,43365,0,-1,0
1220,43375,0,-2,0
1221,43385,0,-1,0
1222,43395,0,-1,0
1223,43405,0,-1,0
1224,43415,0,-1,0
1225,43425,0,-1,0
1226,43435,0,-1,0
1227,43445,0,-1,0
1228,43455,0,-1,0
1229,43465,0,-1,0
1230,43475,0,-1,0
1231,43485,0,-1,0
1232,43495,0,-1,0
1233,43505,0,-1,0
1234,43515,0,-1,0
1235,43525,0,-1,0
1236,43535,-1,-1,0
1237,43545,0,-1,0
1238,43555,0,-1,0
1239,43565,0,-1,0
1240,43575,0,-1,0
1241,43585,0,-1,0
1242,43595,0,-1,0
1243,43605,0,-1,0
1244,43615,0,-1,0
1245,43625,-1,-1,0
1246,43635,0,-1,0
1247,43645,0,-1,0
1248,43655,0,-1,0
1249,43665,-1,-1,0
1250,43675,0,-1,0
1251,43685,0,-1,0
1252,43695,0,-1,0
1253,43705,0,-1,0
1254,43715,0,-1,0
1255,43725,0,-1,0
1256,43735,0,-1,0
1257,43745,0,-1,0
1258,43755,0,-1,0
1259,43765,0,-1,0
1260,43775,0,-1,0
1261,43785,0,-1,0
1262,43795,0,-1,0
1263,43805,0,-1,0
1264,43815,0,-1,0
1265,43825,0,-1,0
1266,43835,0,-1,0
1267,43845,0,-1,0
1268,43855,0,-1,0
1269,43865,0,-1,0
1270,43875,-1,-1,0
1271,43885,0,-1,0
1272,43895,-1,-1,0
1273,43905,0,-1,0
1274,43915,0,-1,0
1275,43925,0,-1,0
1276,43935,0,-1,0
1277,43945,-1,-1,0
1278,43955,0,-1,0
1279,43965,0,-1,0
1280,43975,0,-1,0
1281,43985,0,-1,0
1282,43995,0,-1,0
1283,44005,0,-1,0
1284,44015,0,-1,0
1285,44025,0,-1,0
1286,44035,0,-1,0
1287,44045,0,-1,0
1288,44055,0,-1,0
1289,44065,0,-1,0
1290,44075,0,-1,0
1291,44085,0,-1,0
1292,44095,0,-1,0
1293,44105,0,-1,0
1294,44115,0,-1,0
1295,44125,0,-1,0
1296,44135,0,-1,0
1297,44145,0,-1,0
1298,44155,0,-1,0
1299,44165,0,-1,0
1300,44175,0,-1,0
1301,44185,0,-1,0
1302,44195,0,-1,0
1303,44205,0,-1,0
1304,44215,0,-1,0
1305,44225,0,-1,0
1306,44235,0,-1,0
1307,44245,0,-1,0
1308,44255,0,-1,0
1309,44265,0,-1,0
1310,44275,0,-1,0
1311,44285,0,-1,0
1312,44295,0,-1,0
1313,44305,0,-1,0
1314,44315,0,-1,0
1315,44325,0,-1,0
1316,44335,0,-1,0
1317,44345,0,-1,0
1318,44355,0,-1,0
1319,44365,0,-1,0
1320,44375,0,-1,0
1321,44385,0,-1,0
1322,44395,0,-1,0
1323,44405,0,-1,0
1324,44415,0,-1,0
1325,44425,0,-1,0
1326,44435,0,-1,0
1327,44445,1,-1,0
1328,44455,0,-1,0
1329,44465,0,-1,0
1330,44475,0,-1,0
1331,44485,0,-1,0
1332,44495,0,-1,0
1333,44505,0,-1,0
1334,44515,0,-1,0
1335,44525,0,-1,0
1336,44535,0,-1,0
1337,44545,0,-1,0
1338,44555,0,-1,0
1339,44565,0,-1,0
1340,44575,0,-1,0
1341,44585,0,-1,0
1342,44595,0,-1,0
1343,44605,0,-1,0
1344,44615,0,-1,0
1345,44625,0,-1,0
1346,44635,0,-1,0
1347,44645,0,-1,0
1348,44655,0,-1,0
1349,44665,0,-1,0
1350,44675,0,-1,0
1351,44685,0,-1,0
1352,44695,-1,-1,0
1353,44705,0,-1,0
1354,44715,0,-1,0
1355,44725,0,-1,0
1356,44735,0,-1,0
1357,44745,0,-1,0
1358,44755,-1,-1,0
1359,44765,0,-1,0
1360,44775,0,-1,0
1361,44785,0,-1,0
1362,44795,0,-1,0
1363,44805,0,-1,0
1364,44815,0,-1,0
1365,44825,0,-1,0
1366,44835,-1,-1,0
1367,44845,0,-1,0
1368,44855,0,-1,0
1369,44865,0,-1,0
1370,44875,0,-1,0
1371,44885,-1,-1,0
1372,44895,0,-1,0
1373,44905,0,-1,0
1374,44915,0,-1,0
1375,44925,0,-1,0
1376,44935,0,-1,0
1377,44945,0,-1,0
1378,44955,0,-1,0
1379,44965,0,-1,0
1380,44975,0,-1,0
1381,44985,0,-1,0
1382,44995,0,-1,0
1383,45005,0,-1,0
1384,45015,0,-1,0
1385,45025,0,-1,0
1386,45035,-1,-1,0
1387,45045,0,-1,0
1388,45055,0,-1,0
1389,45065,0,-1,0
1390,45075,0,-1,0
1391,45085,0,-1,0
1392,45095,0,-1,0
1393,45105,0,-1,0
1394,45115,0,-1,0
1395,45125,0,-1,0
1396,45135,0,-1,0
1397,45145,0,-1,0
1398,45155,0,-1,0
1399,45165,0,-1,0
1400,45175,0,-1,0
1401,45185,0,-1,0
1402,45195,0,-1,0
1403,45205,0,-1,0
1404,45215,0,-1,0
1405,45225,0,-1,0
1406,45235,0,-1,0
1407,45245,0,-1,0
1408,45255,0,-1,0
1409,45265,0,-1,0
1410,45275,0,-1,0
1411,45285,-1,-1,0
1412,45295,0,-1,0
1413,45305,0,-1,0
1414,45315,0,-1,0
1415,45325,0,-1,0
1416,45335,0,-1,0
1417,45345,0,-1,0
1418,45355,0,0,0
1419,45365,0,-1,0
1420,45375,0,-1,0
1421,45385,0,-1,0
1422,45395,0,-1,0
1423,45405,0,-1,0
1424,45415,0,-1,0
1425,45425,0,-1,0
1426,45435,0,-1,0
1427,45445,0,-1,0
1428,45455,0,-1,0
1429,45465,-1,-1,0
1430,45475,0,-1,0
1431,45485,-1,-1,0
1432,45495,0,-1,0
1433,45505,0,-1,0
1434,45515,0,-1,0
1435,45525,-1,-1,0
1436,45535,0,-1,0
1437,45545,0,-1,0
1438,45555,-1,0,0
1439,45565,0,-1,0
1440,45575,0,-1,0
1441,45585,0,-1,0
1442,45595,0,-1,0
1443,45605,0,-1,0
1444,45615,0,-1,0
1445,45625,0,-1,0
1446,45635,0,-1,0
1447,45645,0,-1,0
1448,45655,0,-1,0
1449,45665,0,-1,0
1450,45675,0,-1,0
1451,45685,0,-1,0
1452,45695,0,-1,0
1453,45705,-1,-1,0
1454,45715,0,-1,0
1455,45725,-1,-1,0
1456,45735,0,-1,0
1457,45745,-1,-1,0
1458,45755,0,-1,0
1459,45765,0,-1,0
1460,45775,0,-1,0
1461,45785,0,-1,0
1462,45795,-1,-1,0
1463,45805,0,-1,0
1464,45815,0,-1,0
1465,45825,0,-1,0
1466,45835,0,-1,0
1467,45845,-1,-1,0
1468,45855,-1,-1,0
1469,45865,-1,0,0
1470,45875,0,0,0
1471,45885,0,-1,0
1472,45895,-1,-1,0
1473,45905,0,0,0
1474,45915,0,-1,0
1475,45925,0,-1,0
1476,45935,0,-1,0
1477,45945,-1,-1,0
1478,45955,-1,-1,0
1479,45965,0,-1,0
1480,45975,0,0,0
1481,45985,0,-1,0
1482,45995,0,-1,0
1483,46005,0,-1,0
1484,46015,0,-1,0
1485,46025,0,-1,0
1486,46035,0,-1,0
1487,46045,0,-1,0
1488,46055,0,-1,0
1489,46065,0,0,0
1490,46075,-1,-1,0
1491,46085,0,-1,0
1492,46095,0,-1,0
1493,46105,0,-1,0
1494,46115,-1,-1,0
1495,46125,0,-1,0
1496,46135,0,-1,0
1497,46145,0,-1,0
1498,46155,0,-1,0
1499,46165,0,-1,0
1500,46175,0,-1,0
1501,46185,0,-1,0
1502,46195,0,-1,0
1503,46205,0,-1,0
1504,46215,0,-1,0
1505,46225,0,-1,0
1506,46235,0,-1,0
1507,46245,0,-1,0
1508,46255,-1,-1,0
1509,46265,0,-1,0
1510,46275,0,-1,0
1511,46285,0,-1,0
1512,46295,0,-1,0
1513,46305,0,-1,0
1514,46315,0,-1,0
1515,46325,0,-1,0
1516,46335,0,-1,0
1517,46345,0,-1,0
1518,46355,0,-1,0
1519,46365,0,-1,0
1520,46375,0,-1,0
1521,46385,0,0,0
1522,46395,-1,0,0
1523,46405,0,0,0
1524,46415,0,-1,0
1525,46425,-1,-1,0
1526,46435,0,-1,0
1527,46445,0,-1,0
1528,46455,0,-1,0
1529,46465,0,-1,0
1530,46475,0,-1,0
1531,46485,-1,-1,0
1532,46495,0,-1,0
1533,46505,-1,-1,0
1534,46515,-1,0,0
1535,46525,0,-1,0
1536,46535,-1,-1,0
1537,46545,-1,-1,0
1538,46555,0,-1,0
1539,46565,0,-1,0
1540,46575,0,0,0
1541,46585,-1,0,0
1542,46595,0,-1,0
1543,46605,0,-1,0
1544,46615,0,-1,0
1545,46625,-1,-1,0
1546,46635,0,0,0
1547,46645,-1,0,0
1548,46655,-1,-1,0
1549,46665,0,-1,0
1550,46675,-1,-1,0
1551,46685,0,-1,0
1552,46695,-1,-1,0
1553,46705,0,-1,0
1554,46715,0,-1,0
1555,46725,0,-1,0
1556,46735,0,-1,0
1557,46745,0,-1,0
1558,46755,0,-1,0
1559,46765,-1,-1,0
1560,46775,0,-1,0
1561,46785,0,-1,0
1562,46795,0,-1,0
1563,46805,-1,-1,0
1564,46815,0,0,0
1565,46825,0,0,0
1566,46835,0,-1,0
1567,46845,0,0,0
1568,46855,0,-1,0
1569,46865,0,-1,0
1570,46875,-1,-1,0
1571,46885,0,-1,0
1572,46895,-1,-1,0
1573,46905,0,-1,0
1574,46915,-1,-1,0
1575,46925,0,-1,0
1576,46935,0,-1,0
1577,46945,0,-1,0
1578,46955,0,-1,0
1579,46965,0,-1,0
1580,46975,0,-1,0
1581,46985,0,-1,0
1582,46995,-1,-1,0
1583,47005,0,-1,0
1584,47015,0,-1,0
1585,47025,0,-1,0
1586,47035,0,-1,0
1587,47045,0,-1,0
1588,47055,-1,-1,0
1589,47065,-1,-1,0
1590,47075,0,-1,0
1591,47085,0,-1,0
1592,47095,0,-1,0
1593,47105,0,-1,0
1594,47115,0,-1,0
1595,47125,0,-1,0
1596,47135,0,-1,0
1597,47145,0,-1,0
1598,47155,0,-1,0
1599,47165,0,-1,0
1600,47175,0,-1,0
1601,47185,0,-1,0
1602,47195,-1,-1,0
1603,47205,0,-1,0
1604,47215,0,-1,0
1605,47225,0,-1,0
1606,47235,0,-1,0
1607,47245,0,-1,0
1608,47255,0,-1,0
1609,47265,0,-1,0
1610,47275,0,-1,0
1611,47285,0,-1,0
1612,47295,0,-1,0
1613,47305,0,-1,0
1614,47315,0,-1,0
1615,47325,0,-1,0
1616,47335,0,-1,0
1617,47345,0,-1,0
1618,47355,-1,-1,0
1619,47365,0,-1,0
1620,47375,0,-1,0
1621,47385,-1,-1,0
1622,47395,0,-1,0
1623,47405,0,-1,0
1624,47415,0,-1,0
1625,47425,0,-1,0
1626,47435,0,-1,0
1627,47445,-1,-1,0
1628,47455,0,-1,0
1629,47465,0,-1,0
1630,47475,0,-1,0
1631,47485,0,-1,0
1632,47495,0,-1,0
1633,47505,0,-1,0
1634,47515,0,-1,0
1635,47525,0,-1,0
1636,47535,0,-1,0
1637,47545,0,-1,0
1638,47555,-1,-1,0
1639,47565,-1,-1,0
1640,47575,-1,-1,0
1641,47585,0,-1,0
1642,47595,0,-1,0
1643,47605,0,-1,0
1644,47615,-1,-1,0
1645,47625,0,-1,0
1646,47635,0,-1,0
1647,47645,0,-1,0
1648,47655,0,-1,0
1649,47665,0,-1,0
1650,47675,0,-1,0
1651,47685,0,-1,0
1652,47695,0,-1,0
1653,47705,-1,-1,0
1654,47715,0,-1,0
1655,47725,0,-1,0
1656,47735,0,-1,0
1657,47745,0,-1,0
1658,47755,0,-1,0
1659,47765,0,-1,0
1660,47775,0,-1,0
1661,47785,0,-1,0
1662,47795,0,-1,0
1663,47805,0,-1,0
1664,47815,0,-1,0
1665,47825,0,-1,0
1666,47835,-1,-1,0
1667,47845,0,-1,0
1668,47855,0,-1,0
1669,47865,0,-1,0
1670,47875,0,-1,0
1671,47885,0,-1,0
1672,47895,0,-1,0
1673,47905,0,-1,0
1674,47915,0,-1,0
1675,47925,0,-1,0
1676,47935,0,-1,0
1677,47945,0,-1,0
1678,47955,0,-1,0
1679,47965,-1,-1,0
1680,47975,0,-1,0
1681,47985,0,-1,0
1682,47995,0,-1,0
1683,48005,-1,-1,0
1684,48015,0,-1,0
1685,48025,0,-1,0
1686,48035,0,-1,0
1687,48045,0,-1,0
1688,48055,0,-1,0
1689,48065,0,-1,0
1690,48075,0,-1,0
1691,48085,0,-1,0
1692,48095,0,-1,0
1693,48105,-1,-1,0
1694,48115,0,-1,0
1695,48125,0,-1,0
1696,48135,0,-1,0
1697,48145,0,-1,0
1698,48155,-1,-1,0
1699,48165,0,-1,0
1700,48175,0,-1,0
1701,48185,-1,-1,0
1702,48195,-1,-1,0
1703,48205,0,-1,0
1704,48215,-1,-1,0
1705,48225,-1,-1,0
1706,48235,0,-1,0
1707,48245,0,-1,0
1708,48255,0,-1,0
1709,48265,0,-2,0
1710,48275,0,-1,0
1711,48285,-1,-1,0
1712,48295,0,-1,0
1713,48305,0,-1,0
1714,48315,0,-1,0
1715,48325,-1,-1,0
1716,48335,0,-1,0
1717,48345,-1,-1,0
1718,48355,0,-1,0
1719,48365,0,-1,0
1720,48375,0,-1,0
1721,48385,0,-1,0
1722,48395,0,-1,0
1723,48405,0,-1,0
1724,48415,0,-1,0
1725,48425,0,-1,0
1726,48435,0,-1,0
1727,48445,0,-2,0
1728,48455,-1,-1,0
1729,48465,0,-1,0
1730,48475,0,-1,0
1731,48485,0,-1,0
1732,48495,0,-1,0
1733,48505,0,-1,0
1734,48515,-1,-1,0
1735,48525,0,-1,0
1736,48535,0,-1,0
1737,48545,0,-1,0
1738,48555,0,-1,0
1739,48565,0,-1,0
1740,48575,0,-1,0
1741,48585,0,-1,0
1742,48595,0,-1,0
1743,48605,0,-2,0
1744,48615,0,-1,0
1745,48625,0,-1,0
1746,48635,0,-1,0
1747,48645,0,-1,0
1748,48655,-1,-1,0
1749,48665,0,-1,0
1750,48675,0,-1,0
1751,48685,0,-1,0
1752,48695,0,-1,0
1753,48705,0,-1,0
1754,48715,0,-1,0
1755,48725,-1,-1,0
1756,48735,0,-1,0
1757,48745,0,-1,0
1758,48755,0,-1,0
1759,48765,0,-1,0
1760,48775,-1,-1,0
1761,48785,-1,-1,0
1762,48795,0,-1,0
1763,48805,0,-1,0
1764,48815,0,-1,0
1765,48825,0,-1,0
1766,48835,0,-1,0
1767,48845,-1,-1,0
1768,48855,0,-1,0
1769,48865,0,-2,0
1770,48875,0,-1,0
1771,48885,0,-1,0
1772,48895,-1,-1,0
1773,48905,0,-1,0
1774,48915,0,-1,0
1775,48925,0,-1,0
1776,48935,0,-1,0
1777,48945,-1,-1,0
1778,48955,0,-1,0
1779,48965,0,-1,0
1780,48975,0,-1,0
1781,48985,0,-1,0
1782,48995,0,-1,0
1783,49005,-1,-1,0
1784,49015,0,-1,0
1785,49025,0,-1,0
1786,49035,0,-1,0
1787,49045,0,-1,0
1788,49055,-1,-1,0
1789,49065,0,-1,0
1790,49075,0,-1,0
1791,49085,0,-1,0
1792,49095,-1,-1,0
1793,49105,-1,-1,0
1794,49115,0,-1,0
1795,49125,0,-1,0
1796,49135,0,-1,0
1797,49145,0,-1,0
1798,49155,0,-1,0
1799,49165,0,-1,0
1800,49175,0,-1,0
1801,49185,0,-1,0
1802,49195,-1,-1,0
1803,49205,0,-1,0
1804,49215,0,-1,0
1805,49225,-1,-1,0
1806,49235,-1,-1,0
1807,49245,0,-1,0
1808,49255,0,-1,0
1809,49265,0,-1,0
1810,49275,0,-1,0
1811,49285,0,-1,0
1812,49295,0,-1,0
1813,49305,0,-1,0
1814,49315,-1,-1,0
1815,49325,0,-1,0
1816,49335,0,-1,0
1817,49345,0,-1,0
1818,49355,0,-1,0
1819,49365,0,-1,0
1820,49375,0,-1,0
1821,49385,0,-1,0
1822,49395,0,-1,0
1823,49405,-1,-1,0
1824,49415,0,-1,0
1825,49425,0,-1,0
1826,49435,0,-1,0
1827,49445,0,-1,0
1828,49455,0,-1,0
1829,49465,0,-1,0
1830,49475,-1,-1,0
1831,49485,0,-1,0
1832,49495,0,-1,0
1833,49505,0,-1,0
1834,49515,0,-1,0
1835,49525,0,-1,0
1836,49535,0,-1,0
1837,49545,-1,-1,0
1838,49555,0,-1,0
1839,49565,0,-1,0
1840,49575,-1,-1,0
1841,49585,0,-1,0
1842,49595,0,-1,0
1843,49605,0,-1,0
1844,49615,0,-1,0
1845,49625,0,-1,0
1846,49635,0,-1,0
1847,49645,0,-1,0
1848,49655,0,-1,0
1849,49665,0,-1,0
1850,49675,0,-1,0
1851,49685,0,-1,0
1852,49695,0,-1,0
1853,49705,0,-1,0
1854,49715,0,-1,0
1855,49725,0,-1,0
1856,49735,0,-1,0
1857,49745,0,-1,0
1858,49755,0,-1,0
1859,49765,-1,-1,0
1860,49775,0,-1,0
1861,49785,0,-1,0
1862,49795,0,-1,0
1863,49805,0,-1,0
1864,49815,0,-1,0
1865,49825,-1,-1,0
1866,49835,0,-1,0
1867,49845,0,-1,0
1868,49855,0,-1,0
1869,49865,0,-1,0
1870,49875,0,-1,0
1871,49885,0,-1,0
1872,49895,0,-1,0
1873,49905,0,-1,0
1874,49915,0,-1,0
1875,49925,0,-1,0
1876,49935,0,-1,0
1877,49945,-1,-1,0
1878,49955,0,-1,0
1879,49965,0,-1,0
1880,49975,0,-1,0
1881,49985,0,-1,0
1882,49995,0,-1,0
1883,50005,0,-1,0
1884,50015,0,-1,0
1885,50025,0,-1,0
1886,50035,0,-1,0
1887,50045,0,-1,0
1888,50055,0,-1,0
1889,50065,-1,-1,0
1890,50075,0,-1,0
1891,50085,0,-1,0
1892,50095,0,-1,0
1893,50105,0,-1,0
1894,50115,-1,-1,0
1895,50125,-1,-1,0
1896,50135,0,-1,0
1897,50145,0,-1,0
1898,50155,0,-1,0
1899,50165,-1,-1,0
1900,50175,0,-1,0
1901,50185,0,-1,0
1902,50195,0,-1,0
1903,50205,0,-1,0
1904,50215,0,-1,0
1905,50225,0,-1,0
1906,50235,0,-1,0
1907,50245,0,-1,0
1908,50255,-1,-1,0
1909,50265,0,-1,0
1910,50275,0,-1,0
1911,50285,-1,-1,0
1912,50295,0,-1,0
1913,50305,0,-1,0
1914,50315,0,-1,0
1915,50325,-1,-1,0
1916,50335,-1,-1,0
1917,50345,-1,-1,0
1918,50355,0,-1,0
1919,50365,0,-1,0
1920,50375,0,-1,0
1921,50385,-1,-1,0
1922,50395,-1,-1,0
1923,50405,-1,-1,0
1924,50415,-1,-1,0
1925,50425,-1,-1,0
1926,50435,0,-1,0
1927,50445,0,-1,0
1928,50455,0,-1,0
1929,50465,0,-1,0
1930,50475,0,-1,0
1931,50485,-1,-1,0
1932,50495,-1,-1,0
1933,50505,0,-1,0
1934,50515,-1,-1,0
1935,50525,0,-1,0
1936,50535,0,-1,0
1937,50545,0,-1,0
1938,50555,0,-1,0
1939,50565,0,-1,0
1940,50575,0,-1,0
1941,50585,0,-1,0
1942,50595,0,-1,0
1943,50605,-1,-1,0
1944,50615,0,-1,0
1945,50625,0,-1,0
1946,50635,0,-1,0
1947,50645,-1,-1,0
1948,50655,0,-1,0
1949,50665,-1,-1,0
1950,50675,-1,-1,0
1951,50685,0,-1,0
1952,50695,-1,-1,0
1953,50705,0,0,0
1954,50715,0,-1,0
1955,50725,-1,-1,0
1956,50735,0,-1,0
1957,50745,0,-1,0
1958,50755,-1,-1,0
1959,50765,0,-1,0
1960,50775,0,-1,0
1961,50785,0,-1,0
1962,50795,0,-1,0
1963,50805,0,-1,0
1964,50815,-1,-1,0
1965,50825,-1,-1,0
1966,50835,-1,-1,0
1967,50845,0,-1,0
1968,50855,0,-1,0
1969,50865,0,-1,0
1970,50875,0,-1,0
1971,50885,0,-1,0
1972,50895,0,-1,0
1973,50905,0,-1,0
1974,50915,0,-1,0
1975,50925,0,-1,0
1976,50935,0,-1,0
1977,50945,0,-1,0
1978,50955,0,-1,0
1979,50965,0,-1,0
1980,50975,0,-1,0
1981,50985,0,-1,0
1982,50995,0,-1,0
1983,51005,0,-1,0
1984,51015,0,-1,0
1985,51025,-1,-1,0
1986,51035,0,-1,0
1987,51045,0,-1,0
1988,51055,0,-1,0
1989,51065,0,-1,0
1990,51075,0,-1,0
1991,51085,0,-1,0
1992,51095,0,-1,0
1993,51105,-1,-1,0
1994,51115,0,-1,0
1995,51125,0,-1,0
1996,51135,-1,-1,0
1997,51145,-1,-1,0
1998,51155,0,-1,0
1999,51165,0,-1,0
2000,51175,0,-1,0
2001,51185,0,-1,0
2002,51195,-1,-1,0
2003,51205,-1,-1,0
2004,51215,0,-1,0
2005,51225,0,-1,0
2006,51235,0,-1,0
2007,51245,0,-1,0
2008,51255,-1,-1,0
2009,51265,-1,-1,0
2010,51275,0,-1,0
2011,51285,0,-1,0
2012,51295,0,-1,0
2013,51305,0,-1,0
2014,51315,0,-1,0
2015,51325,0,-1,0
2016,51335,-1,-1,0
2017,51345,-1,-1,0
2018,51355,0,-1,0
2019,51365,-1,-1,0
2020,51375,0,-1,0
2021,51385,0,-1,0
2022,51395,0,-1,0
2023,51405,0,-1,0
2024,51415,-1,-1,0
2025,51425,-1,-1,0
2026,51435,-1,-1,0
2027,51445,-1,-1,0
2028,51455,-1,-1,0
2029,51465,-1,-1,0
2030,51475,-1,-1,0
2031,51485,-1,-1,0
2032,51495,0,-1,0
2033,51505,0,-1,0
2034,51515,0,-1,0
2035,51525,0,-1,0
2036,51535,0,-1,0
2037,51545,0,-1,0
2038,51555,-1,-1,0
2039,51565,0,-1,0
2040,51575,-1,-1,0
2041,51585,0,-1,0
2042,51595,0,-1,0
2043,51605,0,-1,0
2044,51615,0,-1,0
2045,51625,0,-1,0
2046,51635,0,-1,0
2047,51645,0,-1,0
2048,51655,0,-1,0
2049,51665,0,-1,0
2050,51675,0,-1,0
2051,51685,0,-1,0
2052,51695,0,-1,0
2053,51705,0,-1,0
2054,51715,-1,-1,0
2055,51725,0,-1,0
2056,51735,0,-1,0
2057,51745,0,-1,0
2058,51755,-1,-1,0
2059,51765,-1,-1,0
2060,51775,0,-1,0
2061,51785,-1,-1,0
2062,51795,0,-1,0
2063,51805,-1,-1,0
2064,51815,-1,-1,0
2065,51825,0,-1,0
2066,51835,0,-1,0
2067,51845,0,-1,0
2068,51855,-1,-1,0
2069,51865,0,-1,0
2070,51875,0,-1,0
2071,51885,0,-1,0
2072,51895,-1,-1,0
2073,51905,0,-1,0
2074,51915,0,-1,0
2075,51925,0,-1,0
2076,51935,0,-1,0
2077,51945,0,-1,0
2078,51955,0,-1,0
2079,51965,0,-1,0
2080,51975,0,-1,0
2081,51985,0,-1,0
2082,51995,0,-1,0
2083,52005,0,-1,0
2084,52015,0,-1,0
2085,52025,0,-1,0
2086,52035,0,-1,0
2087,52045,0,-1,0
2088,52055,0,-1,0
2089,52065,0,-1,0
2090,52075,-1,-1,0
2091,52085,0,-1,0
2092,52095,0,-1,0
2093,52105,0,-1,0
2094,52115,0,-1,0
2095,52125,0,-1,0
2096,52135,0,-1,0
2097,52145,0,-1,0
2098,52155,0,-1,0
2099,52165,0,-1,0
2100,52175,0,-1,0
2101,52185,0,-1,0
2102,52195,-1,-1,0
2103,52205,0,-1,0
2104,52215,0,-1,0
2105,52225,0,-1,0
2106,52235,0,-1,0
2107,52245,-1,-1,0
2108,52255,-1,-1,0
2109,52265,-1,-1,0
2110,52275,-1,0,0
2111,52285,0,-1,0
2112,52295,0,-1,0
2113,52305,0,-1,0
2114,52315,0,-1,0
2115,52325,0,-1,0
2116,52335,0,-1,0
2117,52345,0,-1,0
2118,52355,0,-1,0
2119,52365,0,-1,0
2120,52375,0,-1,0
2121,52385,0,-1,0
2122,52395,0,-1,0
2123,52405,0,-1,0
2124,52415,0,-1,0
2125,52425,0,-1,0
2126,52435,-1,-1,0
2127,52445,0,-1,0
2128,52455,0,-1,0
2129,52465,0,-1,0
2130,52475,0,-1,0
2131,52485,0,-1,0
2132,52495,0,-1,0
2133,52505,0,-1,0
2134,52515,0,-1,0
2135,52525,0,-1,0
2136,52535,0,-1,0
2137,52545,0,-1,0
2138,52555,0,-1,0
2139,52565,0,-1,0
2140,52575,0,-1,0
2141,52585,0,-1,0
2142,52595,0,-1,0
2143,52605,0,-1,0
2144,52615,0,-1,0
2145,52625,0,-1,0
2146,52635,0,-1,0
2147,52645,0,-1,0
2148,52655,0,-1,0
2149,52665,-1,-1,0
2150,52675,0,-1,0
2151,52685,0,-1,0
2152,52695,0,-1,0
2153,52705,0,-1,0
2154,52715,0,-1,0
2155,52725,0,-1,0
2156,52735,-1,-1,0
2157,52745,0,-1,0
2158,52755,0,-1,0
2159,52765,0,-1,0
2160,52775,0,-1,0
2161,52785,-1,-1,0
2162,52795,0,-1,0
2163,52805,0,-1,0
2164,52815,-1,-2,0
2165,52825,0,-1,0
2166,52835,0,-1,0
2167,52845,0,-1,0
2168,52855,0,-1,0
2169,52865,0,-1,0
2170,52875,0,-1,0
2171,52885,0,-1,0
2172,52895,0,-1,0
2173,52905,0,-1,0
2174,52915,0,-1,0
2175,52925,-1,-1,0
2176,52935,0,-1,0
2177,52945,0,-1,0
2178,52955,0,-1,0
2179,52965,0,-1,0
2180,52975,0,-1,0
2181,52985,0,-1,0
2182,52995,0,-1,0
2183,53005,0,-1,0
2184,53015,-1,-1,0
2185,53025,0,-1,0
2186,53035,0,-1,0
2187,53045,0,-1,0
2188,53055,0,-1,0
2189,53065,-1,-1,0
2190,53075,0,-1,0
2191,53085,0,-1,0
2192,53095,0,-1,0
2193,53105,0,-1,0
2194,53115,0,-1,0
2195,53125,0,-1,0
2196,53135,-1,-1,0
2197,53145,-1,-1,0
2198,53155,0,-1,0
2199,53165,0,-1,0
2200,53175,0,-1,0
2201,53185,0,-1,0
2202,53195,0,-1,0
2203,53205,0,-1,0
2204,53215,-1,-1,0
2205,53225,-1,-1,0
2206,53235,0,-1,0
2207,53245,0,-1,0
2208,53255,-1,-1,0
2209,53265,-1,-1,0
2210,53275,0,-1,0
2211,53285,0,-1,0
2212,53295,-1,-1,0
2213,53305,0,-1,0
2214,53315,0,-1,0
2215,53325,-1,-1,0
2216,53335,-1,-1,0
2217,53345,-1,-1,0
2218,53355,-1,-1,0
2219,53365,-1,-1,0
2220,53375,0,-2,0
2221,53385,0,-1,0
2222,53395,1,-1,0
2223,53405,0,0,0
2224,53415,0,-1,0
2225,53425,0,0,0
2226,53435,0,-1,0
2227,53445,-1,-1,0
2228,53455,-1,-2,0
2229,53465,-1,-2,0
2230,53475,-1,-2,0
2231,53485,-1,-1,0
2232,53495,-1,-1,0
2233,53505,0,-1,0
2234,53515,0,-1,0
2235,53525,0,0,0
2236,53535,0,0,0
2237,53545,1,-1,0
2238,53555,0,-1,0
2239,53565,0,-1,0
2240,53575,0,-1,0
2241,53585,0,-1,0
2242,53595,0,-1,0
2243,53605,-1,-1,0
2244,53615,-1,-1,0
2245,53625,-1,-1,0
2246,53635,0,-1,0
2247,53645,0,-1,0
2248,53655,-1,-1,0
2249,53665,-1,-1,0
2250,53675,0,-1,0
2251,53685,-1,-1,0
2252,53695,-1,-1,0
2253,53705,0,-1,0
2254,53715,0,-1,0
2255,53725,0,-1,0
2256,53735,0,-1,0
2257,53745,-1,-1,0
2258,53755,0,-1,0
2259,53765,0,-1,0
2260,53775,0,-1,0
2261,53785,-1,-1,0
2262,53795,0,-1,0
2263,53805,0,-1,0
2264,53815,-1,-1,0
2265,53825,0,-1,0
2266,53835,0,-1,0
2267,53845,0,-1,0
2268,53855,-1,-1,0
2269,53865,0,-1,0
2270,53875,-1,-1,0
2271,53885,0,-1,0
2272,53895,0,-1,0
2273,53905,-1,-1,0
2274,53915,0,-1,0
2275,53925,0,-1,0
2276,53935,-1,-1,0
2277,53945,0,-1,0
2278,53955,0,-1,0
2279,53965,-1,-1,0
2280,53975,-1,-1,0
2281,53985,0,-1,0
2282,53995,0,-1,0
2283,54005,-1,-1,0
2284,54015,0,-2,0
2285,54025,0,-1,0
2286,54035,0,0,0
2287,54045,0,0,0
2288,54055,-1,-1,0
2289,54065,-1,-1,0
2290,54075,-1,-2,0
2291,54085,0,-2,0
2292,54095,0,-2,0
2293,54105,0,-2,0
2294,54115,0,-1,0
2295,54125,0,-1,0
2296,54135,0,-1,0
2297,54145,0,0,0
2298,54155,0,-1,0
2299,54165,-1,-1,0
2300,54175,-1,-1,0
2301,54185,-1,-2,0
2302,54195,-1,-1,0
2303,54205,-1,-1,0
2304,54215,0,-1,0
2305,54225,0,-1,0
2306,54235,-1,-1,0
2307,54245,0,-1,0
2308,54255,0,-1,0
2309,54265,0,-1,0
2310,54275,-1,-1,0
2311,54285,-1,-1,0
2312,54295,0,-1,0
2313,54305,0,-2,0
2314,54315,0,-1,0
2315,54325,0,-1,0
2316,54335,-1,-1,0
2317,54345,-1,-1,0
2318,54355,-1,-2,0
2319,54365,0,-1,0
2320,54375,0,-1,0
2321,54385,0,-1,0
2322,54395,0,-1,0
2323,54405,0,-1,0
2324,54415,0,-1,0
2325,54425,-1,-2,0
2326,54435,-1,-2,0
2327,54445,0,-1,0
2328,54455,0,-1,0
2329,54465,0,-1,0
2330,54475,-1,-1,0
2331,54485,-1,-1,0
2332,54495,0,-1,0
2333,54505,0,-1,0
2334,54515,0,-2,0
2335,54525,0,-1,0
2336,54535,0,-1,0
2337,54545,0,-1,0
2338,54555,-1,-1,0
2339,54565,-1,-1,0
2340,54575,-1,-1,0
2341,54585,-1,-2,0
2342,54595,-1,-1,0
2343,54605,-1,-1,0
2344,54615,0,-1,0
2345,54625,0,-1,0
2346,54635,0,-1,0
2347,54645,0,-1,0
2348,54655,0,-1,0
2349,54665,-1,-1,0
2350,54675,-1,-2,0
2351,54685,0,-1,0
2352,54695,-1,-1,0
2353,54705,-1,-1,0
2354,54715,-1,-1,0
2355,54725,0,-1,0
2356,54735,0,-1,0
2357,54745,-1,-1,0
2358,54755,-1,-1,0
2359,54765,-1,-1,0
2360,54775,0,-1,0
2361,54785,1,-1,0
2362,54795,0,-1,0
2363,54805,0,-1,0
2364,54815,0,-1,0
2365,54825,0,-1,0
2366,54835,0,-1,0
2367,54845,-1,-1,0
2368,54855,0,-1,0
2369,54865,0,-1,0
2370,54875,-1,-1,0
2371,54885,1,-1,0
2372,54895,0,-1,0
2373,54905,-1,-1,0
2374,54915,0,-1,0
2375,54925,0,-1,0
2376,54935,0,-1,0
2377,54945,0,-1,0
2378,54955,0,-1,0
2379,54965,-1,-1,0
2380,54975,-1,-1,0
2381,54985,0,-1,0
2382,54995,-1,-1,0
2383,55005,0,-2,0
2384,55015,0,-1,0
2385,55025,0,-1,0
2386,55035,0,-1,0
2387,55045,-1,-1,0
2388,55055,0,-1,0
2389,55065,0,-1,0
2390,55075,-1,-1,0
2391,55085,0,-1,0
2392,55095,0,-1,0
2393,55105,-1,-1,0
2394,55115,0,-1,0
2395,55125,0,-1,0
2396,55135,0,-1,0
2397,55145,-1,-1,0
2398,55155,0,-1,0
2399,55165,1,-1,0
2400,55175,0,-1,0
2401,55185,-1,-1,0
2402,55195,-1,-1,0
2403,55205,0,-1,0
2404,55215,0,-1,0
2405,55225,0,-1,0
2406,55235,-1,-1,0
2407,55245,-1,-1,0
2408,55255,-1,-1,0
2409,55265,-1,-1,0
2410,55275,-1,-1,0
2411,55285,-1,-1,0
2412,55295,-1,-1,0
2413,55305,-1,-1,0
2414,55315,0,-1,0
2415,55325,0,-1,0
2416,55335,0,-1,0
2417,55345,0,-1,0
2418,55355,0,-1,0
2419,55365,0,-1,0
2420,55375,0,-1,0
2421,55385,1,-1,0
2422,55395,0,-1,0
2423,55405,0,-1,0
2424,55415,0,-1,0
2425,55425,0,-1,0
2426,55435,0,-1,0
2427,55445,0,-1,0
2428,55455,0,-1,0
2429,55465,0,-1,0
2430,55475,0,-1,0
2431,55485,0,-1,0
2432,55495,0,-1,0
2433,55505,0,-1,0
2434,55515,0,-1,0
2435,55525,0,-1,0
2436,55535,0,-1,0
2437,55545,0,-1,0
2438,55555,0,-1,0
2439,55565,0,-1,0
2440,55575,1,-1,0
2441,55585,0,-1,0
2442,55595,0,-1,0
2443,55605,0,-1,0
2444,55615,0,-1,0
2445,55625,-1,-1,0
2446,55635,-1,-1,0
2447,55645,-1,-1,0
2448,55655,-1,-1,0
2449,55665,0,-1,0
2450,55675,0,-1,0
2451,55685,0,-1,0
2452,55695,0,-1,0
2453,55705,-1,-1,0
2454,55715,-1,-1,0
2455,55725,-1,-2,0
2456,55735,0,-1,0
2457,55745,0,-2,0
2458,55755,1,-1,0
2459,55765,0,-1,0
2460,55775,-1,-1,0
2461,55785,-1,-1,0
2462,55795,-1,-1,0
2463,55805,0,-2,0
2464,55815,0,-1,0
2465,55825,0,-1,0
2466,55835,0,0,0
2467,55845,0,-1,0
2468,55855,0,-1,0
2469,55865,0,-2,0
2470,55875,0,-2,0
2471,55885,0,-1,0
2472,55895,0,-1,0
2473,55905,0,-1,0
2474,55915,0,-1,0
2475,55925,-1,-2,0
2476,55935,0,-1,0
2477,55945,0,-1,0
2478,55955,0,-1,0
2479,55965,0,-1,0
2480,55975,-1,-1,0
2481,55985,-1,-1,0
2482,55995,0,-2,0
2483,56005,0,-1,0
2484,56015,0,-1,0
2485,56025,0,-1,0
2486,56035,-1,-1,0
2487,56045,0,-1,0
2488,56055,0,-1,0
2489,56065,-1,-1,0
2490,56075,-1,-1,0
2491,56085,0,-2,0
2492,56095,0,-1,0
2493,56105,0,-1,0
2494,56115,-1,-1,0
2495,56125,0,-1,0
2496,56135,-1,-1,0
2497,56145,0,-1,0
2498,56155,0,-1,0
2499,56165,0,-1,0
2500,56175,0,-1,0
2501,56185,0,-1,0
2502,56195,0,-1,0
2503,56205,-1,-1,0
2504,56215,0,-2,0
2505,56225,0,-1,0
2506,56235,-1,-1,0
2507,56245,0,-1,0
2508,56255,0,-1,0
2509,56265,0,-1,0
2510,56275,-1,-1,0
2511,56285,0,-1,0
2512,56295,-1,-1,0
2513,56305,-1,-1,0
2514,56315,0,-1,0
2515,56325,-1,-1,0
2516,56335,-1,-1,0
2517,56345,0,-1,0
2518,56355,0,-1,0
2519,56365,0,-1,0
2520,56375,-1,-1,0
2521,56385,-1,-1,0
2522,56395,0,-1,0
2523,56405,0,-1,0
2524,56415,0,-1,0
2525,56425,-1,-1,0
2526,56435,0,-1,0
2527,56445,0,-2,0
2528,56455,0,-1,0
2529,56465,0,-1,0
2530,56475,0,-1,0
2531,56485,-1,-1,0
2532,56495,0,-1,0
2533,56505,0,-1,0
2534,56515,0,-1,0
2535,56525,-1,-1,0
2536,56535,0,-1,0
2537,56545,0,-1,0
2538,56555,-1,-1,0
2539,56565,-1,-1,0
2540,56575,0,-1,0
2541,56585,0,-1,0
2542,56595,0,-1,0
2543,56605,-1,-1,0
2544,56615,0,-1,0
2545,56625,0,-1,0
2546,56635,0,-1,0
2547,56645,0,-1,0
2548,56655,0,-1,0
2549,56665,0,-1,0
2550,56675,-1,-1,0
2551,56685,0,-1,0
2552,56695,0,-1,0
2553,56705,-1,-1,0
2554,56715,0,-1,0
2555,56725,0,-1,0
2556,56735,0,-1,0
2557,56745,0,-1,0
2558,56755,0,-1,0
2559,56765,-1,-1,0
2560,56775,0,-1,0
2561,56785,0,-1,0
2562,56795,-1,-1,0
