,ts,acc_x,acc_y,acc_z
0,-0.361,0,-1,0
1,-0.351,0,-1,0
2,-0.341,0,-1,0
3,-0.331,0,0,0
4,-0.321,0,-1,0
5,-0.311,0,-1,0
6,-0.301,0,-1,0
7,-0.291,0,-1,0
8,-0.281,0,-1,0
9,-0.271,0,-1,0
10,-0.261,0,-1,0
11,-0.251,0,-1,0
12,-0.241,0,-1,0
13,-0.231,0,0,0
14,-0.221,0,-1,0
15,-0.211,0,-1,0
16,-0.201,0,-1,0
17,-0.191,0,-1,0
18,-0.181,0,-1,0
19,-0.171,0,-1,0
20,-0.161,0,-1,0
21,-0.151,0,-1,0
22,-0.141,-1,-1,0
23,-0.131,0,-1,0
24,-0.121,0,-1,0
25,-0.111,0,-1,0
26,-0.101,-1,-1,0
27,-0.091,-1,-1,0
28,-0.081,-1,-1,0
29,-0.071,-1,-1,0
30,-0.061,-1,-1,0
31,-0.051,0,0,0
32,-0.041,0,0,0
33,-0.031,-1,-1,0
34,-0.021,0,-1,0
35,-0.011,0,-1,0
36,-0.001,0,-1,0
37,0.009,0,-1,0
38,0.019,0,-1,0
39,0.029,0,-1,0
40,0.039,-1,-1,0
41,0.049,-1,0,0
42,0.059,0,0,0
43,0.069,0,-1,0
44,0.079,0,-1,0
45,0.089,0,0,0
46,0.099,-1,0,0
47,0.109,0,0,0
48,0.119,0,-1,0
49,0.129,-1,0,0
50,0.139,-1,0,0
51,0.149,0,-1,0
52,0.159,0,-1,0
53,0.169,0,0,0
54,0.179,-1,0,0
55,0.189,0,-1,0
56,0.199,-1,0,0
57,0.209,-1,0,0
58,0.219,0,-1,0
59,0.229,0,0,0
60,0.239,0,-1,0
61,0.249,0,-1,0
62,0.259,0,0,0
63,0.269,0,-1,0
64,0.279,0,-1,0
65,0.289,-1,-1,0
66,0.299,0,-1,0
67,0.309,-1,0,0
68,0.319,0,-1,0
69,0.329,0,0,0
70,0.339,0,-1,0
71,0.349,0,-1,0
72,0.359,-1,-1,0
73,0.369,0,-1,0
74,0.379,-1,0,0
75,0.389,0,-1,0
76,0.399,0,0,0
77,0.409,0,-2,0
78,0.419,0,0,0
79,0.429,0,-1,0
80,0.439,0,0,0
81,0.449,0,-1,0
82,0.459,0,0,0
83,0.469,0,-1,0
84,0.479,0,-1,0
85,0.489,0,0,0
86,0.499,0,-1,0
87,0.509,0,0,0
88,0.519,0,-1,0
89,0.529,0,0,0
90,0.539,0,-1,0
91,0.549,0,-1,0
92,0.559,0,-1,0
93,0.569,0,-1,0
94,0.579,0,-1,0
95,0.589,0,0,0
96,0.599,0,-1,0
97,0.609,0,0,0
98,0.619,0,-1,0
99,0.629,0,-1,0
100,0.639,0,-1,0
101,0.649,-1,0,0
102,0.659,-1,-1,0
103,0.669,-1,0,0
104,0.679,0,-1,0
105,0.689,-1,0,0
106,0.699,-1,-1,0
107,0.709,0,0,0
108,0.719,0,-1,0
109,0.729,0,-1,0
110,0.739,0,-1,0
111,0.749,0,-1,0
112,0.759,0,0,0
113,0.769,-1,-1,0
114,0.779,0,-1,0
115,0.789,-1,-1,0
116,0.799,-1,0,0
117,0.809,0,-1,0
118,0.819,-1,0,0
119,0.829,0,-1,0
120,0.839,0,-1,0
121,0.849,0,0,0
122,0.859,0,-1,0
123,0.869,-1,0,0
124,0.879,-1,-1,0
125,0.889,-1,-1,0
126,0.899,0,-1,0
127,0.909,0,-1,0
128,0.919,0,-1,0
129,0.929,-1,-1,0
130,0.939,-1,0,0
131,0.949,0,-1,0
132,0.959,0,0,0
133,0.969,0,-1,0
134,0.979,-1,-1,0
135,0.989,-1,-1,0
136,0.999,0,-1,0
137,1.009,-1,0,0
138,1.019,0,-1,0
139,1.029,-1,-1,0
140,1.039,-1,-1,0
141,1.049,-1,-1,0
142,1.059,-1,-1,0
143,1.069,-1,0,0
144,1.079,-1,-1,0
145,1.089,-1,-1,0
146,1.099,0,-1,0
147,1.109,-1,-1,0
148,1.119,-1,0,0
149,1.129,-1,0,0
150,1.139,-1,-1,0
151,1.149,-1,0,0
152,1.159,0,-1,0
153,1.169,0,-1,0
154,1.179,-1,0,0
155,1.189,0,0,0
156,1.199,-1,-1,0
157,1.209,-1,-1,0
158,1.219,0,-1,0
159,1.229,-1,-1,0
160,1.239,-1,-1,0
161,1.249,0,0,0
162,1.259,-1,-1,0
163,1.269,-1,-1,0
164,1.279,0,-1,0
165,1.289,-1,-1,0
166,1.299,-1,-1,0
167,1.309,0,0,0
168,1.319,-1,0,0
169,1.329,0,-1,0
170,1.339,0,-1,0
171,1.349,-1,-1,0
172,1.359,-1,-1,0
173,1.369,0,-1,0
174,1.379,-1,-1,0
175,1.389,-1,0,0
176,1.399,0,0,0
177,1.409,-1,0,0
178,1.419,0,-1,0
179,1.429,0,0,0
180,1.439,0,-1,0
181,1.449,-1,-1,0
182,1.459,-1,-1,0
183,1.469,0,-1,0
184,1.479,0,0,0
185,1.489,-1,-1,0
186,1.499,-1,0,0
187,1.509,0,0,0
188,1.519,-1,-1,0
189,1.529,0,-1,0
190,1.539,-1,0,0
191,1.549,0,-1,0
192,1.559,0,-1,0
193,1.569,-1,-1,0
194,1.579,0,-1,0
195,1.589,-1,0,0
196,1.599,0,-1,0
197,1.609,0,-1,0
198,1.619,-1,-1,0
199,1.629,0,0,0
200,1.639,-1,-1,0
201,1.649,0,-1,0
202,1.659,-1,-1,0
203,1.669,0,0,0
204,1.679,0,-1,0
205,1.689,-1,-1,0
206,1.699,0,-1,0
207,1.709,0,-1,0
208,1.719,0,0,0
209,1.729,0,-1,0
210,1.739,-1,-1,0
211,1.749,-1,0,0
212,1.759,0,0,0
213,1.769,0,-1,0
214,1.779,-1,-1,0
215,1.789,0,-1,0
216,1.799,0,0,0
217,1.809,0,-1,0
218,1.819,0,-1,0
219,1.829,-1,-1,0
220,1.839,0,0,0
221,1.849,0,-1,0
222,1.859,-1,-1,0
223,1.869,0,-1,0
224,1.879,-1,0,0
225,1.889,0,0,0
226,1.899,0,-1,0
227,1.909,0,-1,0
228,1.919,0,-1,0
229,1.929,0,0,0
230,1.939,0,-1,0
231,1.949,0,-1,0
232,1.959,-1,-1,0
233,1.969,0,0,0
234,1.979,0,0,0
235,1.989,0,0,0
236,1.999,0,-1,0
237,2.009,0,-1,0
238,2.019,-1,0,0
239,2.029,0,0,0
240,2.039,0,-1,0
241,2.049,-1,-1,0
242,2.059,0,-1,0
243,2.069,0,-1,0
244,2.079,0,0,0
245,2.089,0,-1,0
246,2.099,-1,-1,0
247,2.109,0,-1,0
248,2.119,0,0,0
249,2.129,0,0,0
250,2.139,0,-1,0
251,2.149,0,0,0
252,2.159,0,-1,0
253,2.169,0,0,0
254,2.179,0,-1,0
255,2.189,0,-1,0
256,2.199,0,-1,0
257,2.209,-1,0,0
258,2.219,0,-1,0
259,2.229,0,-1,0
260,2.239,0,-1,0
261,2.249,0,-1,0
262,2.259,0,-1,0
263,2.269,0,0,0
264,2.279,0,-1,0
265,2.289,0,-1,0
266,2.299,0,-1,0
267,2.309,0,-1,0
268,2.319,0,0,0
269,2.329,0,0,0
270,2.339,0,-1,0
271,2.349,0,-1,0
272,2.359,0,-1,0
273,2.369,0,-1,0
274,2.379,0,0,0
275,2.389,0,-2,0
276,2.399,0,-1,0
277,2.409,0,0,0
278,2.419,0,0,0
279,2.429,0,-1,0
280,2.439,0,-1,0
281,2.449,0,-1,0
282,2.459,0,0,0
283,2.469,0,0,0
284,2.479,0,-1,0
285,2.489,-1,-1,0
286,2.499,0,0,0
287,2.509,0,-1,0
288,2.519,-1,0,0
289,2.529,0,-1,0
290,2.539,0,-1,0
291,2.549,0,-1,0
292,2.559,0,0,0
293,2.569,0,0,0
294,2.579,0,-1,0
295,2.589,0,-1,0
296,2.599,0,0,0
297,2.609,0,-1,0
298,2.619,0,0,0
299,2.629,0,-1,0
300,2.639,0,-1,0
301,2.649,0,-1,0
302,2.659,0,0,0
303,2.669,0,0,0
304,2.679,0,0,0
305,2.689,0,-1,0
306,2.699,0,-1,0
307,2.709,0,0,0
308,2.719,0,-1,0
309,2.729,0,0,0
310,2.739,-1,0,0
311,2.749,0,-1,0
312,2.759,-1,-1,0
313,2.769,0,0,0
314,2.779,0,0,0
315,2.789,0,0,0
316,2.799,0,-1,0
317,2.809,0,-1,0
318,2.819,-1,0,0
319,2.829,0,0,0
320,2.839,0,-1,0
321,2.849,0,-1,0
322,2.859,0,-1,0
323,2.869,0,-1,0
324,2.879,0,0,0
325,2.889,0,0,0
326,2.899,0,-1,0
327,2.909,-1,-1,0
328,2.919,0,-1,0
329,2.929,0,-1,0
330,2.939,-1,0,0
331,2.949,0,0,0
332,2.959,0,0,0
333,2.969,0,-1,0
334,2.979,-1,-1,0
335,2.989,-1,0,0
336,2.999,0,0,0
337,3.009,0,-1,0
338,3.019,0,-1,0
339,3.029,0,-1,0
340,3.039,0,-1,0
341,3.049,-1,0,0
342,3.059,0,0,0
343,3.069,0,-1,0
344,3.079,-1,0,0
345,3.089,0,-1,0
346,3.099,0,0,0
347,3.109,0,0,0
348,3.119,0,-1,0
349,3.129,0,-1,0
350,3.139,0,-1,0
351,3.149,0,-1,0
352,3.159,0,0,0
353,3.169,0,-1,0
354,3.179,-1,-1,0
355,3.189,-1,-1,0
356,3.199,0,0,0
357,3.209,0,-1,0
358,3.219,0,-1,0
359,3.229,-1,-1,0
360,3.239,-1,0,0
361,3.249,0,-1,0
362,3.259,0,-1,0
363,3.269,-1,-1,0
364,3.279,0,0,0
365,3.289,-1,-1,0
366,3.299,0,-1,0
367,3.309,-1,-1,0
368,3.319,0,0,0
369,3.329,0,-1,0
370,3.339,-1,-1,0
371,3.349,-1,-1,0
372,3.359,0,0,0
373,3.369,0,0,0
374,3.379,-1,-1,0
375,3.389,0,0,0
376,3.399,0,-1,0
377,3.409,0,-1,0
378,3.419,0,-1,0
379,3.429,-1,0,0
380,3.439,0,-1,0
381,3.449,0,-1,0
382,3.459,-1,0,0
383,3.469,0,0,0
384,3.479,0,-1,0
385,3.489,0,-1,0
386,3.499,0,-1,0
387,3.509,0,0,0
388,3.519,0,-1,0
389,3.529,-1,-1,0
390,3.539,-1,0,0
391,3.549,0,0,0
392,3.559,-1,-1,0
393,3.569,0,-1,0
394,3.579,-1,0,0
395,3.589,0,-1,0
396,3.599,0,-1,0
397,3.609,-1,-1,0
398,3.619,0,-1,0
399,3.629,0,0,0
400,3.639,0,-1,0
401,3.649,0,-1,0
402,3.659,0,0,0
403,3.669,0,-1,0
404,3.679,0,0,0
405,3.689,-1,-1,0
406,3.699,0,0,0
407,3.709,0,0,0
408,3.719,0,-1,0
409,3.729,0,-1,0
410,3.739,-1,0,0
411,3.749,0,-1,0
412,3.759,0,0,0
413,3.769,0,-1,0
414,3.779,-1,-1,0
415,3.789,0,0,0
416,3.799,-1,-1,0
417,3.809,0,-1,0
418,3.819,0,-1,0
419,3.829,0,0,0
420,3.839,0,-1,0
421,3.849,0,-1,0
422,3.859,-1,0,0
423,3.869,0,0,0
424,3.879,-1,-1,0
425,3.889,0,-1,0
426,3.899,0,-1,0
427,3.909,0,0,0
428,3.919,0,-1,0
429,3.929,0,-1,0
430,3.939,-1,-1,0
431,3.949,0,-1,0
432,3.959,-1,-1,0
433,3.969,0,-1,0
434,3.979,0,-1,0
435,3.989,0,0,0
436,3.999,-1,0,0
437,4.009,0,-1,0
438,4.019,-1,-1,0
439,4.029,0,-1,0
440,4.039,-1,-1,0
441,4.049,0,-1,0
442,4.059,0,-1,0
443,4.069,-1,-1,0
444,4.079,0,0,0
445,4.089,0,0,0
446,4.099,-1,0,0
447,4.109,0,-1,0
448,4.119,0,-1,0
449,4.129,0,-1,0
450,4.139,0,0,0
451,4.149,0,-1,0
452,4.159,-1,-1,0
453,4.169,0,-1,0
454,4.179,0,0,0
455,4.189,0,0,0
456,4.199,0,-1,0
457,4.209,0,-1,0
458,4.219,-1,-1,0
459,4.229,0,0,0
460,4.239,0,-2,0
461,4.249,0,-1,0
462,4.259,-1,0,0
463,4.269,0,-1,0
464,4.279,-1,-1,0
465,4.289,-1,-1,0
466,4.299,0,-1,0
467,4.309,0,0,0
468,4.319,0,-1,0
469,4.329,0,-1,0
470,4.339,-1,-1,0
471,4.349,0,-1,0
472,4.359,-1,-1,0
473,4.369,0,-1,0
474,4.379,0,-1,0
475,4.389,0,-1,0
476,4.399,0,0,0
477,4.409,0,-1,0
478,4.419,-1,-1,0
479,4.429,0,-1,0
480,4.439,0,0,0
481,4.449,0,-1,0
482,4.459,0,-1,0
483,4.469,0,-1,0
484,4.479,0,0,0
485,4.489,0,-1,0
486,4.499,0,0,0
487,4.509,0,-1,0
488,4.519,0,-1,0
489,4.529,-1,0,0
490,4.539,0,0,0
491,4.549,0,-1,0
492,4.559,0,-1,0
493,4.569,0,-1,0
494,4.579,0,0,0
495,4.589,0,-1,0
496,4.599,-1,-2,0
497,4.609,0,0,0
498,4.619,0,-1,0
499,4.629,0,-1,0
500,4.639,0,-1,0
501,4.649,0,-1,0
502,4.659,0,0,0
503,4.669,-1,-1,0
504,4.679,0,-1,0
505,4.689,-1,-1,0
506,4.699,-1,0,0
507,4.709,-1,-1,0
508,4.719,-1,-1,0
509,4.729,-1,-1,0
510,4.739,0,-1,0
511,4.749,1,-1,0
512,4.759,0,0,0
513,4.769,0,-1,0
514,4.779,0,-1,0
515,4.789,0,-1,0
516,4.799,0,-1,0
517,4.809,-1,-1,0
518,4.819,0,-1,0
519,4.829,-1,-1,0
520,4.839,-1,-1,0
521,4.849,0,-1,0
522,4.859,0,-1,0
523,4.869,0,0,0
524,4.879,0,-1,0
525,4.889,-1,-1,0
526,4.899,0,-1,0
527,4.909,0,0,0
528,4.919,-1,-1,0
529,4.929,0,-1,0
530,4.939,0,0,0
531,4.949,-1,-1,0
532,4.959,-1,-1,0
533,4.969,-1,-1,0
534,4.979,0,-1,0
535,4.989,-1,-1,0
536,4.999,-1,-1,0
537,5.009,-1,-1,0
538,5.019,-1,-1,0
539,5.029,-1,-1,0
540,5.039,0,0,0
541,5.049,-1,-1,0
542,5.059,0,-1,0
543,5.069,-1,-1,0
544,5.079,-1,-1,0
545,5.089,-1,-1,0
546,5.099,0,-1,0
547,5.109,-1,-1,0
548,5.119,-1,0,0
549,5.129,-1,-1,0
550,5.139,0,0,0
551,5.149,-1,-1,0
552,5.159,-1,-1,0
553,5.169,-1,-1,0
554,5.179,-1,-1,0
555,5.189,0,0,0
556,5.199,0,-1,0
557,5.209,-1,-1,0
558,5.219,0,0,0
559,5.229,-1,-1,0
560,5.239,0,-1,0
561,5.249,-1,0,0
562,5.259,-1,-1,0
563,5.269,-1,-1,0
564,5.279,-1,-1,0
565,5.289,0,-1,0
566,5.299,-1,-1,0
567,5.309,-1,-1,0
568,5.319,-1,-1,0
569,5.329,-1,-1,0
570,5.339,0,-1,0
571,5.349,-1,-1,0
572,5.359,0,-1,0
573,5.369,-1,-1,0
574,5.379,0,-1,0
575,5.389,0,0,0
576,5.399,-1,-1,0
577,5.409,0,-1,0
578,5.419,-1,-1,0
579,5.429,0,-1,0
580,5.439,0,-1,0
581,5.449,-1,-1,0
582,5.459,-1,-1,0
583,5.469,0,-1,0
584,5.479,0,-1,0
585,5.489,0,-1,0
586,5.499,-1,-1,0
587,5.509,-1,-1,0
588,5.519,-1,-1,0
589,5.529,-1,-1,0
590,5.539,0,-1,0
591,5.549,-1,-1,0
592,5.559,0,-1,0
593,5.569,-1,-1,0
594,5.579,-1,-1,0
595,5.589,-1,-1,0
596,5.599,0,-1,0
597,5.609,-1,-1,0
598,5.619,0,-1,0
599,5.629,-1,-1,0
600,5.639,0,-1,0
601,5.649,-1,-1,0
602,5.659,-1,-1,0
603,5.669,-1,-1,0
604,5.679,-1,-1,0
605,5.689,0,-1,0
606,5.699,0,-1,0
607,5.709,0,-1,0
608,5.719,0,-1,0
609,5.729,-1,-1,0
610,5.739,-1,-1,0
611,5.749,0,-1,0
612,5.759,-1,-1,0
613,5.769,-1,-1,0
614,5.779,-1,-1,0
615,5.789,-1,-1,0
616,5.799,-1,-1,0
617,5.809,-1,-1,0
618,5.819,-1,-1,0
619,5.829,-1,-1,0
620,5.839,0,-1,0
621,5.849,0,-1,0
622,5.859,-1,-1,0
623,5.869,-1,-1,0
624,5.879,-1,-1,0
625,5.889,-1,-1,0
626,5.899,0,-1,0
627,5.909,-1,-1,0
628,5.919,0,-1,0
629,5.929,0,-1,0
630,5.939,0,-1,0
631,5.949,0,-1,0
632,5.959,-1,-1,0
633,5.969,-1,-1,0
634,5.979,-1,-1,0
635,5.989,0,-1,0
636,5.999,0,-1,0
637,6.009,-1,-1,0
638,6.019,0,-1,0
639,6.029,-1,-1,0
640,6.039,-1,-1,0
641,6.049,-1,-1,0
642,6.059,-1,-1,0
643,6.069,0,-1,0
644,6.079,-1,-1,0
645,6.089,-1,-1,0
646,6.099,-1,-1,0
647,6.109,0,-1,0
648,6.119,-1,-1,0
649,6.129,0,-1,0
650,6.139,0,-1,0
651,6.149,-1,-1,0
652,6.159,0,-1,0
653,6.169,-1,-1,0
654,6.179,0,-1,0
655,6.189,-1,-1,0
656,6.199,0,-1,0
657,6.209,0,-1,0
658,6.219,0,-1,0
659,6.229,0,-1,0
660,6.239,0,-1,0
661,6.249,0,-1,0
662,6.259,-1,-1,0
663,6.269,-1,-1,0
664,6.279,0,-1,0
665,6.289,-1,-1,0
666,6.299,0,-1,0
667,6.309,0,-1,0
668,6.319,0,-1,0
669,6.329,0,-1,0
670,6.339,-1,-1,0
671,6.349,-1,-1,0
672,6.359,0,-1,0
673,6.369,0,-1,0
674,6.379,0,-1,0
675,6.389,-1,-1,0
676,6.399,-1,-1,0
677,6.409,0,-1,0
678,6.419,-1,-1,0
679,6.429,0,-1,0
680,6.439,-1,-1,0
681,6.449,0,-1,0
682,6.459,0,-1,0
683,6.469,-1,-1,0
684,6.479,0,-1,0
685,6.489,0,-1,0
686,6.499,-1,-1,0
687,6.509,0,-1,0
688,6.519,-1,-1,0
689,6.529,0,-1,0
690,6.539,-1,-1,0
691,6.549,0,-1,0
692,6.559,0,-1,0
693,6.569,0,-1,0
694,6.579,0,-1,0
695,6.589,0,-1,0
696,6.599,0,-1,0
697,6.609,0,-1,0
698,6.619,0,-1,0
699,6.629,0,-1,0
700,6.639,0,-1,0
701,6.649,0,-1,0
702,6.659,0,-1,0
703,6.669,0,-1,0
704,6.679,0,-1,0
705,6.689,0,-1,0
706,6.699,0,-1,0
707,6.709,0,-1,0
708,6.719,0,-1,0
709,6.729,0,-1,0
710,6.739,-1,-1,0
711,6.749,-1,-1,0
712,6.759,0,-1,0
713,6.769,0,-1,0
714,6.779,-1,-1,0
715,6.789,0,-1,0
716,6.799,-1,-1,0
717,6.809,0,-1,0
718,6.819,-1,-1,0
719,6.829,0,-1,0
720,6.839,0,-1,0
721,6.849,-1,-1,0
722,6.859,0,-1,0
723,6.869,-1,-1,0
724,6.879,0,-1,0
725,6.889,-1,-1,0
726,6.899,0,-1,0
727,6.909,0,-1,0
728,6.919,0,-1,0
729,6.929,-1,-1,0
730,6.939,-1,-1,0
731,6.949,-1,-1,0
732,6.959,-1,-1,0
733,6.969,0,-1,0
734,6.979,0,-1,0
735,6.989,0,-1,0
736,6.999,0,-1,0
737,7.009,0,-1,0
738,7.019,0,-1,0
739,7.029,0,-1,0
740,7.039,0,-1,0
741,7.049,0,-1,0
742,7.059,0,-1,0
743,7.069,0,-1,0
744,7.079,0,-1,0
745,7.089,0,-1,0
746,7.099,0,-1,0
747,7.109,0,-1,0
748,7.119,0,-1,0
749,7.129,0,-1,0
750,7.139,0,-1,0
751,7.149,0,-1,0
752,7.159,0,-1,0
753,7.169,0,-1,0
754,7.179,0,-1,0
755,7.189,0,-1,0
756,7.199,-1,-1,0
757,7.209,0,-1,0
758,7.219,0,-1,0
759,7.229,0,-1,0
760,7.239,0,-1,0
761,7.249,0,-1,0
762,7.259,0,-1,0
763,7.269,0,-1,0
764,7.279,0,-1,0
765,7.289,0,-1,0
766,7.299,0,-1,0
767,7.309,0,-1,0
768,7.319,0,-1,0
769,7.329,0,-1,0
770,7.339,0,-1,0
771,7.349,0,-1,0
772,7.359,0,-1,0
773,7.369,0,-1,0
774,7.379,0,-1,0
775,7.389,0,-1,0
776,7.399,0,-1,0
777,7.409,-1,-1,0
778,7.419,0,-1,0
779,7.429,0,-1,0
780,7.439,0,-1,0
781,7.449,0,-1,0
782,7.459,-1,-1,0
783,7.469,0,-1,0
784,7.479,0,-1,0
785,7.489,0,-1,0
786,7.499,-1,-1,0
787,7.509,0,-1,0
788,7.519,0,-1,0
789,7.529,0,-1,0
790,7.539,0,-1,0
791,7.549,0,-1,0
792,7.559,0,-1,0
793,7.569,0,-1,0
794,7.579,0,-1,0
795,7.589,0,-1,0
796,7.599,0,-1,0
797,7.609,-1,-1,0
798,7.619,0,-1,0
799,7.629,0,-1,0
800,7.639,0,-1,0
801,7.649,0,-1,0
802,7.659,0,-1,0
803,7.669,0,-1,0
804,7.679,-1,-1,0
805,7.689,0,-1,0
806,7.699,0,-1,0
807,7.709,0,-1,0
808,7.719,0,-1,0
809,7.729,0,-1,0
810,7.739,0,-1,0
811,7.749,0,-1,0
812,7.759,0,-1,0
813,7.769,0,-1,0
814,7.779,0,-1,0
815,7.789,0,-1,0
816,7.799,-1,-1,0
817,7.809,-1,-1,0
818,7.819,0,-1,0
819,7.829,-1,-1,0
820,7.839,0,-1,0
821,7.849,0,-1,0
822,7.859,-1,-1,0
823,7.869,0,-1,0
824,7.879,0,-1,0
825,7.889,0,-1,0
826,7.899,0,-1,0
827,7.909,0,-1,0
828,7.919,0,-1,0
829,7.929,0,-1,0
830,7.939,0,-1,0
831,7.949,0,-1,0
832,7.959,-1,-1,0
833,7.969,0,-1,0
834,7.979,0,-1,0
835,7.989,0,-1,0
836,7.999,0,-1,0
837,8.009,-1,-1,0
838,8.019,0,-1,0
839,8.029,0,-1,0
840,8.039,0,-1,0
841,8.049,0,-1,0
842,8.059,0,-1,0
843,8.069,0,-1,0
844,8.079,-1,-1,0
845,8.089,0,-1,0
846,8.099,0,-1,0
847,8.109,0,-1,0
848,8.119,0,-1,0
849,8.129,0,-1,0
850,8.139,0,-1,0
851,8.149,0,-1,0
852,8.159,0,-1,0
853,8.169,0,-1,0
854,8.179,0,-1,0
855,8.189,0,-1,0
856,8.199,0,-1,0
857,8.209,0,-1,0
858,8.219,0,-1,0
859,8.229,-1,-1,0
860,8.239,0,-1,0
861,8.249,0,-1,0
862,8.259,0,-1,0
863,8.269,0,-1,0
864,8.279,0,-1,0
865,8.289,0,-1,0
866,8.299,0,-1,0
867,8.309,0,-1,0
868,8.319,0,-1,0
869,8.329,0,-1,0
870,8.339,0,-1,0
871,8.349,-1,-1,0
872,8.359,0,-1,0
873,8.369,0,-1,0
874,8.379,-1,-1,0
875,8.389,0,-1,0
876,8.399,0,-1,0
877,8.409,0,-1,0
878,8.419,0,-1,0
879,8.429,0,-1,0
880,8.439,0,-1,0
881,8.449,0,-1,0
882,8.459,0,-1,0
883,8.469,0,-1,0
884,8.479,-1,-1,0
885,8.489,0,-1,0
886,8.499,0,-1,0
887,8.509,0,-1,0
888,8.519,0,-1,0
889,8.529,0,-1,0
890,8.539,-1,-1,0
891,8.549,-1,-1,0
892,8.559,0,-1,0
893,8.569,0,-1,0
894,8.579,0,-1,0
895,8.589,0,-1,0
896,8.599,0,-1,0
897,8.609,0,-1,0
898,8.619,0,-1,0
899,8.629,0,-1,0
900,8.639,0,-1,0
901,8.649,0,-1,0
902,8.659,0,-1,0
903,8.669,0,-1,0
904,8.679,0,-1,0
905,8.689,0,-1,0
906,8.699,0,-1,0
907,8.709,0,-1,0
908,8.719,0,-1,0
909,8.729,0,-1,0
910,8.739,0,-1,0
911,8.749,0,-1,0
912,8.759,0,-1,0
913,8.769,0,-1,0
914,8.779,0,-1,0
915,8.789,0,-1,0
916,8.799,0,-1,0
917,8.809,0,-1,0
918,8.819,0,-1,0
919,8.829,0,-1,0
920,8.839,0,-1,0
921,8.849,0,-1,0
922,8.859,0,-1,0
923,8.869,0,-1,0
924,8.879,0,-1,0
925,8.889,0,-1,0
926,8.899,0,-1,0
927,8.909,0,-1,0
928,8.919,0,-1,0
929,8.929,0,-1,0
930,8.939,0,-1,0
931,8.949,-1,-1,0
932,8.959,0,-1,0
933,8.969,0,-1,0
934,8.979,0,-1,0
935,8.989,0,-1,0
936,8.999,0,-1,0
937,9.009,0,-1,0
938,9.019,0,-1,0
939,9.029,0,-1,0
940,9.039,0,-1,0
941,9.049,0,-1,0
942,9.059,0,-1,0
943,9.069,0,-1,0
944,9.079,0,-1,0
945,9.089,0,-1,0
946,9.099,0,-1,0
947,9.109,0,-1,0
948,9.119,0,-1,0
949,9.129,0,-1,0
950,9.139,0,-1,0
951,9.149,0,-1,0
952,9.159,0,-1,0
953,9.169,0,-1,0
954,9.179,0,-1,0
955,9.189,0,0,0
956,9.199,0,-1,0
957,9.209,0,-1,0
958,9.219,0,-1,0
959,9.229,0,-1,0
960,9.239,-1,-1,0
961,9.249,0,-1,0
962,9.259,0,-1,0
963,9.269,0,-1,0
964,9.279,0,-1,0
965,9.289,0,0,0
966,9.299,0,-1,0
967,9.309,0,-1,0
968,9.319,0,-1,0
969,9.329,0,-1,0
970,9.339,0,-1,0
971,9.349,0,-1,0
972,9.359,0,-1,0
973,9.369,0,-1,0
974,9.379,0,-1,0
975,9.389,-1,-1,0
976,9.399,0,-1,0
977,9.409,0,-1,0
978,9.419,0,-1,0
979,9.429,0,-1,0
980,9.439,0,-1,0
981,9.449,0,-1,0
982,9.459,0,-1,0
983,9.469,0,-1,0
984,9.479,0,-1,0
985,9.489,0,-1,0
986,9.499,0,-1,0
987,9.509,0,-1,0
988,9.519,0,-1,0
989,9.529,0,-1,0
990,9.539,0,-1,0
991,9.549,0,-1,0
992,9.559,0,-1,0
993,9.569,0,-1,0
994,9.579,-1,-1,0
995,9.589,0,-1,0
996,9.599,0,-1,0
997,9.609,0,-1,0
998,9.619,-1,-1,0
999,9.629,0,-1,0
1000,9.639,0,-1,0
1001,9.649,-1,-1,0
1002,9.659,0,-1,0
1003,9.669,0,-1,0
1004,9.679,0,-1,0
1005,9.689,0,-1,0
1006,9.699,0,-1,0
1007,9.709,0,-1,0
1008,9.719,0,-1,0
1009,9.729,0,-1,0
1010,9.739,0,-1,0
1011,9.749,0,-1,0
1012,9.759,0,-1,0
1013,9.769,0,-1,0
1014,9.779,0,-1,0
1015,9.789,0,-1,0
1016,9.799,0,-1,0
1017,9.809,0,-1,0
1018,9.819,0,-1,0
1019,9.829,0,-1,0
1020,9.839,0,-1,0
1021,9.849,0,-1,0
1022,9.859,0,-1,0
1023,9.869,0,-1,0
1024,9.879,0,-1,0
1025,9.889,0,-1,0
1026,9.899,0,-1,0
1027,9.909,0,-1,0
1028,9.919,0,-1,0
1029,9.929,0,-1,0
1030,9.939,0,-1,0
1031,9.949,0,-1,0
1032,9.959,0,-1,0
1033,9.969,0,-1,0
1034,9.979,0,-1,0
1035,9.989,0,-1,0
1036,9.999,0,-1,0
1037,10.009,0,-1,0
1038,10.019,0,-1,0
1039,10.029,0,-1,0
1040,10.039,-1,-1,0
1041,10.049,0,-1,0
1042,10.059,0,-1,0
1043,10.069,0,-1,0
1044,10.079,-1,-1,0
1045,10.089,0,-1,0
1046,10.099,0,-1,0
1047,10.109,0,-1,0
1048,10.119,0,-1,0
1049,10.129,0,-1,0
1050,10.139,0,-1,0
1051,10.149,0,-1,0
1052,10.159,0,-1,0
1053,10.169,0,-1,0
1054,10.179,0,-1,0
1055,10.189,0,-1,0
1056,10.199,0,-1,0
1057,10.209,0,-1,0
1058,10.219,0,-1,0
1059,10.229,0,-1,0
1060,10.239,0,0,0
1061,10.249,0,-1,0
1062,10.259,0,-1,0
1063,10.269,0,-1,0
1064,10.279,0,-1,0
1065,10.289,0,-1,0
1066,10.299,0,-1,0
1067,10.309,0,-1,0
1068,10.319,0,-1,0
1069,10.329,0,-1,0
1070,10.339,0,-1,0
1071,10.349,0,-1,0
1072,10.359,0,-1,0
1073,10.369,0,-1,0
1074,10.379,0,-1,0
1075,10.389,1,-1,0
1076,10.399,0,-1,0
1077,10.409,-1,-1,0
1078,10.419,0,-1,0
1079,10.429,0,-1,0
1080,10.439,0,-1,0
1081,10.449,0,-1,0
1082,10.459,-1,-1,0
1083,10.469,0,-1,0
1084,10.479,0,-1,0
1085,10.489,0,-1,0
1086,10.499,-1,-1,0
1087,10.509,0,-1,0
1088,10.519,0,-1,0
1089,10.529,0,-1,0
1090,10.539,0,-1,0
1091,10.549,0,-1,0
1092,10.559,0,-1,0
1093,10.569,0,-1,0
1094,10.579,0,-1,0
1095,10.589,0,-1,0
1096,10.599,0,-1,0
1097,10.609,0,-1,0
1098,10.619,0,-1,0
1099,10.629,0,-1,0
1100,10.639,0,-1,0
1101,10.649,0,-1,0
1102,10.659,0,-1,0
1103,10.669,0,-1,0
1104,10.679,0,-1,0
1105,10.689,0,-1,0
1106,10.699,0,-1,0
1107,10.709,0,-1,0
1108,10.719,0,-1,0
1109,10.729,0,-1,0
1110,10.739,0,-1,0
1111,10.749,0,0,0
1112,10.759,0,-1,0
1113,10.769,0,-1,0
1114,10.779,0,-1,0
1115,10.789,0,-1,0
1116,10.799,0,-1,0
1117,10.809,0,-1,0
1118,10.819,0,-1,0
1119,10.829,0,-1,0
1120,10.839,0,-1,0
1121,10.849,0,-1,0
1122,10.859,0,-1,0
1123,10.869,0,-1,0
1124,10.879,0,-1,0
1125,10.889,0,-1,0
1126,10.899,0,-1,0
1127,10.909,0,-1,0
1128,10.919,0,-1,0
1129,10.929,0,-1,0
1130,10.939,0,-1,0
1131,10.949,0,-1,0
1132,10.959,-1,-1,0
1133,10.969,-1,-1,0
1134,10.979,0,-1,0
1135,10.989,0,-1,0
1136,10.999,0,-1,0
1137,11.009,0,-1,0
1138,11.019,0,-1,0
1139,11.029,0,-1,0
1140,11.039,0,-1,0
1141,11.049,0,-1,0
1142,11.059,0,-1,0
1143,11.069,0,-1,0
1144,11.079,0,-1,0
1145,11.089,0,-1,0
1146,11.099,0,-1,0
1147,11.109,0,-1,0
1148,11.119,0,-1,0
1149,11.129,0,-1,0
1150,11.139,0,-1,0
1151,11.149,-1,-1,0
1152,11.159,-1,-1,0
1153,11.169,-1,-1,0
1154,11.179,-1,-1,0
1155,11.189,0,-1,0
1156,11.199,0,-1,0
1157,11.209,0,-1,0
1158,11.219,0,-1,0
1159,11.229,0,-1,0
1160,11.239,0,-1,0
1161,11.249,0,-1,0
1162,11.259,0,-1,0
1163,11.269,0,-1,0
1164,11.279,0,-1,0
1165,11.289,0,-1,0
1166,11.299,0,-1,0
1167,11.309,0,-1,0
1168,11.319,0,-1,0
1169,11.329,0,-1,0
1170,11.339,0,-1,0
1171,11.349,0,-1,0
1172,11.359,0,-1,0
1173,11.369,0,-1,0
1174,11.379,-1,0,0
1175,11.389,-1,-1,0
1176,11.399,-1,-1,0
1177,11.409,-1,-1,0
1178,11.419,0,-1,0
1179,11.429,-1,-1,0
1180,11.439,-1,-1,0
1181,11.449,0,-1,0
1182,11.459,0,-1,0
1183,11.469,0,-1,0
1184,11.479,0,-1,0
1185,11.489,0,-1,0
1186,11.499,0,-1,0
1187,11.509,0,-1,0
1188,11.519,0,-1,0
1189,11.529,0,-1,0
1190,11.539,0,-1,0
1191,11.549,0,-1,0
1192,11.559,0,-1,0
1193,11.569,0,-1,0
1194,11.579,-1,-1,0
1195,11.589,0,-1,0
1196,11.599,0,-1,0
1197,11.609,0,-1,0
1198,11.619,0,-1,0
1199,11.629,0,-1,0
1200,11.639,-1,-1,0
1201,11.649,0,-1,0
1202,11.659,-1,-1,0
1203,11.669,0,-1,0
1204,11.679,0,-1,0
1205,11.689,0,-1,0
1206,11.699,0,-1,0
1207,11.709,0,-1,0
1208,11.719,0,-1,0
1209,11.729,0,-1,0
1210,11.739,0,-1,0
1211,11.749,-1,-1,0
1212,11.759,0,-1,0
1213,11.769,-1,-1,0
1214,11.779,0,-1,0
1215,11.789,0,-1,0
1216,11.799,0,-1,0
1217,11.809,0,-1,0
1218,11.819,0,-1,0
1219,11.829,0,0,0
1220,11.839,0,-1,0
1221,11.849,0,-1,0
1222,11.859,0,0,0
1223,11.869,0,-1,0
1224,11.879,0,-1,0
1225,11.889,0,0,0
1226,11.899,-1,-1,0
1227,11.909,0,-1,0
1228,11.919,0,-1,0
1229,11.929,-1,-1,0
1230,11.939,0,-1,0
1231,11.949,0,-1,0
1232,11.959,-1,-1,0
1233,11.969,0,-1,0
1234,11.979,0,-1,0
1235,11.989,-1,-1,0
1236,11.999,-1,-1,0
1237,12.009,0,-2,0
1238,12.019,0,-1,0
1239,12.029,0,0,0
1240,12.039,0,0,0
1241,12.049,-1,-1,0
1242,12.059,-1,-1,0
1243,12.069,-1,-1,0
1244,12.079,-1,-1,0
1245,12.089,0,-1,0
1246,12.099,1,-1,0
1247,12.109,0,-1,0
1248,12.119,-1,-1,0
1249,12.129,-1,-1,0
1250,12.139,0,-1,0
1251,12.149,0,-1,0
1252,12.159,-1,-1,0
1253,12.169,-1,-1,0
1254,12.179,-1,-1,0
1255,12.189,0,-1,0
1256,12.199,-1,-1,0
1257,12.209,-1,-1,0
1258,12.219,-1,-1,0
1259,12.229,-1,-1,0
1260,12.239,-1,-2,0
1261,12.249,-1,-1,0
1262,12.259,-1,-1,0
1263,12.269,-1,-1,0
1264,12.279,-1,-1,0
1265,12.289,0,-1,0
1266,12.299,-1,-1,0
1267,12.309,0,-1,0
1268,12.319,0,0,0
1269,12.329,0,-1,0
1270,12.339,-1,-1,0
1271,12.349,0,-1,0
1272,12.359,0,-1,0
1273,12.369,-1,-1,0
1274,12.379,0,0,0
1275,12.389,0,-1,0
1276,12.399,0,-1,0
1277,12.409,0,-1,0
1278,12.419,0,-1,0
1279,12.429,0,-1,0
1280,12.439,0,0,0
1281,12.449,0,-1,0
1282,12.459,0,-1,0
1283,12.469,0,-1,0
1284,12.479,0,-1,0
1285,12.489,0,-1,0
1286,12.499,0,0,0
1287,12.509,0,0,0
1288,12.519,-1,0,0
1289,12.529,0,-1,0
1290,12.539,0,-1,0
1291,12.549,0,-1,0
1292,12.559,0,-1,0
1293,12.569,0,-1,0
1294,12.579,0,0,0
1295,12.589,0,0,0
1296,12.599,0,-1,0
1297,12.609,0,-1,0
1298,12.619,0,-1,0
1299,12.629,0,-1,0
1300,12.639,0,-1,0
1301,12.649,0,-1,0
1302,12.659,0,-1,0
1303,12.669,0,0,0
1304,12.679,0,-1,0
1305,12.689,0,-1,0
1306,12.699,0,-1,0
1307,12.709,-1,0,0
1308,12.719,0,-1,0
1309,12.729,0,-1,0
1310,12.739,0,-1,0
1311,12.749,0,-1,0
1312,12.759,0,-1,0
1313,12.769,0,-1,0
1314,12.779,0,-1,0
1315,12.789,0,-1,0
1316,12.799,0,-1,0
1317,12.809,0,-1,0
1318,12.819,-1,-1,0
1319,12.829,0,-1,0
1320,12.839,0,-1,0
1321,12.849,0,-1,0
1322,12.859,0,-1,0
1323,12.869,0,-1,0
1324,12.879,0,-1,0
1325,12.889,1,-1,0
1326,12.899,0,-1,0
1327,12.909,0,-1,0
1328,12.919,0,-1,0
1329,12.929,0,-1,0
1330,12.939,0,-1,0
1331,12.949,0,-1,0
1332,12.959,0,-1,0
1333,12.969,-1,-1,0
1334,12.979,0,-1,0
1335,12.989,-1,-1,0
1336,12.999,-1,-1,0
1337,13.009,-1,-1,0
1338,13.019,0,-1,0
1339,13.029,0,-1,0
1340,13.039,0,-1,0
1341,13.049,0,-1,0
1342,13.059,0,-1,0
1343,13.069,0,-1,0
1344,13.079,0,0,0
1345,13.089,-1,-1,0
1346,13.099,0,-1,0
1347,13.109,0,-1,0
1348,13.119,-1,-1,0
1349,13.129,0,-1,0
1350,13.139,0,0,0
1351,13.149,0,-1,0
1352,13.159,-1,-1,0
1353,13.169,-1,-1,0
1354,13.179,0,-1,0
1355,13.189,0,-1,0
1356,13.199,0,-1,0
1357,13.209,-1,-1,0
1358,13.219,-1,-1,0
1359,13.229,0,-1,0
1360,13.239,0,-1,0
1361,13.249,0,-1,0
1362,13.259,-1,-1,0
1363,13.269,0,-1,0
1364,13.279,0,-1,0
1365,13.289,0,-1,0
1366,13.299,0,-1,0
1367,13.309,0,-1,0
1368,13.319,0,-1,0
1369,13.329,0,-1,0
1370,13.339,0,-1,0
1371,13.349,0,0,0
1372,13.359,0,-1,0
1373,13.369,0,-1,0
1374,13.379,1,-1,0
1375,13.389,-1,-1,0
1376,13.399,0,-1,0
1377,13.409,0,-1,0
1378,13.419,0,-1,0
1379,13.429,0,-1,0
1380,13.439,0,-1,0
1381,13.449,0,-1,0
1382,13.459,0,-1,0
1383,13.469,0,-1,0
1384,13.479,0,-1,0
1385,13.489,0,-1,0
1386,13.499,0,-1,0
1387,13.509,0,-1,0
1388,13.519,0,-1,0
1389,13.529,0,-1,0
1390,13.539,0,-1,0
1391,13.549,0,-1,0
1392,13.559,0,-1,0
1393,13.569,0,-1,0
1394,13.579,0,-1,0
1395,13.589,0,-1,0
1396,13.599,0,-1,0
1397,13.609,-1,-1,0
1398,13.619,0,-1,0
1399,13.629,0,-1,0
1400,13.639,0,-1,0
1401,13.649,0,-1,0
1402,13.659,0,-1,0
1403,13.669,0,-1,0
1404,13.679,0,-1,0
1405,13.689,0,-1,0
1406,13.699,0,-1,0
1407,13.709,0,-1,0
1408,13.719,-1,-1,0
1409,13.729,0,-1,0
1410,13.739,0,-2,0
1411,13.749,0,-1,0
1412,13.759,0,-1,0
1413,13.769,0,-1,0
1414,13.779,0,-1,0
1415,13.789,-1,-1,0
1416,13.799,0,-1,0
1417,13.809,-1,-1,0
1418,13.819,0,-1,0
1419,13.829,0,-1,0
1420,13.839,0,-1,0
1421,13.849,0,-1,0
1422,13.859,0,-1,0
1423,13.869,0,-1,0
1424,13.879,0,-1,0
1425,13.889,-1,-1,0
1426,13.899,0,-1,0
1427,13.909,-1,-1,0
1428,13.919,0,0,0
1429,13.929,0,-1,0
1430,13.939,0,-1,0
1431,13.949,-1,-1,0
1432,13.959,0,-1,0
1433,13.969,0,-1,0
1434,13.979,-1,-1,0
1435,13.989,0,-1,0
1436,13.999,1,-1,0
1437,14.009,0,-1,0
1438,14.019,0,-1,0
1439,14.029,-1,-1,0
1440,14.039,-1,-1,0
1441,14.049,0,-1,0
1442,14.059,0,-1,0
1443,14.069,1,-1,0
1444,14.079,0,0,0
1445,14.089,0,-1,0
1446,14.099,-1,-1,0
1447,14.109,-1,-1,0
1448,14.119,-1,-2,0
1449,14.129,-1,-1,0
1450,14.139,-1,-1,0
1451,14.149,-1,-1,0
1452,14.159,0,-1,0
1453,14.169,0,-1,0
1454,14.179,0,0,0
1455,14.189,0,-1,0
1456,14.199,0,-1,0
1457,14.209,0,-1,0
1458,14.219,0,-2,0
1459,14.229,0,-2,0
1460,14.239,0,-1,0
1461,14.249,0,-1,0
1462,14.259,0,-1,0
1463,14.269,0,-1,0
1464,14.279,0,-1,0
1465,14.289,0,-1,0
1466,14.299,0,-1,0
1467,14.309,0,-1,0
1468,14.319,0,-1,0
1469,14.329,0,-1,0
1470,14.339,0,-1,0
1471,14.349,0,-1,0
1472,14.359,0,-1,0
1473,14.369,0,-1,0
1474,14.379,0,-1,0
1475,14.389,0,-1,0
1476,14.399,0,-1,0
1477,14.409,0,-1,0
1478,14.419,0,-1,0
1479,14.429,0,-1,0
1480,14.439,-1,-1,0
1481,14.449,-1,-1,0
1482,14.459,-1,-1,0
1483,14.469,0,-1,0
1484,14.479,-1,-1,0
1485,14.489,0,-1,0
1486,14.499,0,-1,0
1487,14.509,0,-1,0
1488,14.519,0,-1,0
1489,14.529,0,-1,0
1490,14.539,0,-1,0
1491,14.549,0,-1,0
1492,14.559,-1,-1,0
1493,14.569,0,-1,0
1494,14.579,0,-1,0
1495,14.589,0,-2,0
1496,14.599,0,-1,0
1497,14.609,0,-1,0
1498,14.619,0,-1,0
1499,14.629,0,-1,0
1500,14.639,-1,-1,0
1501,14.649,0,-1,0
1502,14.659,0,-1,0
1503,14.669,-1,-2,0
1504,14.679,0,-1,0
1505,14.689,0,-1,0
1506,14.699,0,-2,0
1507,14.709,0,-1,0
1508,14.719,0,-1,0
1509,14.729,0,-1,0
1510,14.739,0,-1,0
1511,14.749,0,-1,0
1512,14.759,0,-1,0
1513,14.769,0,-1,0
1514,14.779,0,-1,0
1515,14.789,0,-1,0
1516,14.799,-1,-1,0
1517,14.809,0,-1,0
1518,14.819,-1,-1,0
1519,14.829,-1,-1,0
1520,14.839,-1,-1,0
1521,14.849,0,-1,0
1522,14.859,-1,-1,0
1523,14.869,0,-1,0
1524,14.879,-1,-1,0
1525,14.889,0,-1,0
1526,14.899,0,-1,0
1527,14.909,0,-2,0
1528,14.919,0,-2,0
1529,14.929,0,-1,0
1530,14.939,0,-1,0
1531,14.949,-1,-1,0
1532,14.959,0,-1,0
1533,14.969,0,-1,0
1534,14.979,0,-1,0
1535,14.989,0,-1,0
1536,14.999,0,-1,0
1537,15.009,-1,-1,0
1538,15.019,0,-1,0
1539,15.029,0,-1,0
1540,15.039,0,-1,0
1541,15.049,-1,-1,0
1542,15.059,0,-1,0
1543,15.069,0,-1,0
1544,15.079,0,-1,0
1545,15.089,0,-1,0
1546,15.099,0,-1,0
1547,15.109,0,-1,0
1548,15.119,0,-1,0
1549,15.129,0,-1,0
1550,15.139,0,-1,0
1551,15.149,0,-1,0
1552,15.159,0,-1,0
1553,15.169,0,-1,0
1554,15.179,0,-1,0
1555,15.189,0,-1,0
1556,15.199,0,-1,0
1557,15.209,0,-1,0
1558,15.219,0,-1,0
1559,15.229,-1,-1,0
1560,15.239,0,-1,0
1561,15.249,0,-1,0
1562,15.259,0,-1,0
1563,15.269,0,-1,0
1564,15.279,0,-1,0
1565,15.289,0,-1,0
1566,15.299,0,-1,0
1567,15.309,0,-1,0
1568,15.319,0,-1,0
1569,15.329,0,-1,0
1570,15.339,0,-1,0
1571,15.349,-1,-1,0
1572,15.359,0,-1,0
1573,15.369,-1,-1,0
1574,15.379,0,-1,0
1575,15.389,0,-1,0
1576,15.399,0,-1,0
1577,15.409,0,-1,0
1578,15.419,0,-1,0
1579,15.429,0,-1,0
1580,15.439,0,-1,0
1581,15.449,0,-1,0
1582,15.459,0,-1,0
1583,15.469,0,-1,0
1584,15.479,0,-1,0
1585,15.489,0,-1,0
1586,15.499,0,-1,0
1587,15.509,0,-1,0
1588,15.519,0,-1,0
1589,15.529,-1,-1,0
1590,15.539,0,-1,0
1591,15.549,0,-1,0
1592,15.559,0,-1,0
1593,15.569,0,-1,0
1594,15.579,0,-1,0
1595,15.589,-1,-1,0
1596,15.599,0,-1,0
1597,15.609,0,-1,0
1598,15.619,-1,-1,0
1599,15.629,0,-1,0
1600,15.639,0,-1,0
1601,15.649,0,-1,0
1602,15.659,0,-1,0
1603,15.669,0,-1,0
1604,15.679,0,-1,0
1605,15.689,0,-1,0
1606,15.699,0,-1,0
1607,15.709,-1,-1,0
1608,15.719,0,-1,0
1609,15.729,0,-1,0
1610,15.739,-1,-1,0
1611,15.749,-1,-1,0
1612,15.759,0,-1,0
1613,15.769,0,-1,0
1614,15.779,-1,-1,0
1615,15.789,0,-1,0
1616,15.799,0,-1,0
1617,15.809,0,-1,0
1618,15.819,0,-1,0
1619,15.829,-1,-1,0
1620,15.839,-1,-1,0
1621,15.849,0,-1,0
1622,15.859,0,-1,0
1623,15.869,0,-1,0
1624,15.879,0,-1,0
1625,15.889,0,-1,0
1626,15.899,-1,-2,0
1627,15.909,-1,-2,0
1628,15.919,0,-1,0
1629,15.929,0,-1,0
1630,15.939,0,-1,0
1631,15.949,-1,-1,0
1632,15.959,0,-1,0
1633,15.969,0,-1,0
1634,15.979,0,-1,0
1635,15.989,-1,-1,0
1636,15.999,0,-1,0
1637,16.009,0,-2,0
1638,16.019,0,-1,0
1639,16.029,-1,-1,0
1640,16.039,0,-1,0
1641,16.049,0,-1,0
1642,16.059,0,-1,0
1643,16.069,-1,-1,0
1644,16.079,0,-2,0
1645,16.089,0,-2,0
1646,16.099,0,-1,0
1647,16.109,-1,-1,0
1648,16.119,0,-1,0
1649,16.129,0,-1,0
1650,16.139,0,-1,0
1651,16.149,0,-1,0
1652,16.159,0,-1,0
1653,16.169,-1,-1,0
1654,16.179,0,-1,0
1655,16.189,0,-1,0
1656,16.199,-1,-1,0
1657,16.209,-1,-1,0
1658,16.219,0,-1,0
1659,16.229,1,-1,0
1660,16.239,1,-1,0
1661,16.249,0,-1,0
1662,16.259,0,-1,0
1663,16.269,0,-2,0
1664,16.279,-1,-1,0
1665,16.289,-1,-1,0
1666,16.299,0,0,0
1667,16.309,0,-1,0
1668,16.319,0,-1,0
1669,16.329,-1,-1,0
1670,16.339,1,-1,0
1671,16.349,0,-1,0
1672,16.359,0,-1,0
1673,16.369,0,-1,0
1674,16.379,0,-1,0
1675,16.389,-1,-1,0
1676,16.399,0,-2,0
1677,16.409,0,-1,0
1678,16.419,0,-1,0
1679,16.429,0,-1,0
1680,16.439,0,-1,0
1681,16.449,-1,-1,0
1682,16.459,0,-1,0
1683,16.469,0,-1,0
1684,16.479,0,-1,0
1685,16.489,0,-1,0
1686,16.499,0,-1,0
1687,16.509,0,-1,0
1688,16.519,0,-1,0
1689,16.529,1,-1,0
1690,16.539,0,-1,0
1691,16.549,0,-1,0
1692,16.559,-1,-1,0
1693,16.569,0,-1,0
1694,16.579,-1,-1,0
1695,16.589,0,-1,0
1696,16.599,0,-1,0
1697,16.609,-1,-1,0
1698,16.619,0,-1,0
1699,16.629,1,-1,0
1700,16.639,0,-1,0
1701,16.649,-1,-1,0
1702,16.659,-1,-1,0
1703,16.669,1,-1,0
1704,16.679,0,-1,0
1705,16.689,0,-1,0
1706,16.699,0,-1,0
1707,16.709,1,-1,0
1708,16.719,0,-1,0
1709,16.729,0,-1,0
1710,16.739,0,-1,0
1711,16.749,0,-1,0
1712,16.759,0,-1,0
1713,16.769,0,-1,0
1714,16.779,0,-1,0
1715,16.789,-1,-1,0
1716,16.799,-1,-1,0
1717,16.809,-1,-1,0
1718,16.819,-1,-1,0
1719,16.829,0,-1,0
1720,16.839,0,-1,0
1721,16.849,0,-1,0
1722,16.859,0,-1,0
1723,16.869,0,-1,0
1724,16.879,1,-1,0
1725,16.889,1,-1,0
1726,16.899,1,-1,0
1727,16.909,0,-1,0
1728,16.919,0,-1,0
1729,16.929,0,-1,0
1730,16.939,0,-1,0
1731,16.949,0,-1,0
1732,16.959,0,-1,0
1733,16.969,0,-1,0
1734,16.979,0,-1,0
1735,16.989,-1,-1,0
1736,16.999,0,-1,0
1737,17.009,-1,-1,0
1738,17.019,-1,-1,0
1739,17.029,-1,-1,0
1740,17.039,0,-1,0
1741,17.049,-1,-1,0
1742,17.059,0,-1,0
1743,17.069,0,-1,0
1744,17.079,0,-1,0
1745,17.089,0,-1,0
1746,17.099,1,-1,0
1747,17.109,0,-1,0
1748,17.119,0,-1,0
1749,17.129,1,-1,0
1750,17.139,1,-1,0
1751,17.149,1,-1,0
1752,17.159,1,-1,0
1753,17.169,1,-1,0
1754,17.179,1,-1,0
1755,17.189,0,-1,0
1756,17.199,0,-1,0
1757,17.209,1,-1,0
1758,17.219,1,-1,0
1759,17.229,0,-1,0
1760,17.239,0,-1,0
1761,17.249,0,-1,0
1762,17.259,-1,-1,0
1763,17.269,-1,-1,0
1764,17.279,0,-1,0
1765,17.289,0,-1,0
1766,17.299,0,-1,0
1767,17.309,-1,-1,0
1768,17.319,-1,-1,0
1769,17.329,-1,-1,0
1770,17.339,0,-1,0
1771,17.349,0,-1,0
1772,17.359,-1,-1,0
1773,17.369,-1,-1,0
1774,17.379,-1,-1,0
1775,17.389,0,-1,0
1776,17.399,0,-1,0
1777,17.409,0,-1,0
1778,17.419,0,-1,0
1779,17.429,0,-1,0
1780,17.439,0,-2,0
1781,17.449,0,-1,0
1782,17.459,0,-1,0
1783,17.469,0,-1,0
1784,17.479,0,-1,0
1785,17.489,0,-1,0
1786,17.499,0,-1,0
1787,17.509,0,-1,0
1788,17.519,0,-1,0
1789,17.529,0,-1,0
1790,17.539,0,-1,0
1791,17.549,0,-1,0
1792,17.559,-1,-1,0
1793,17.569,0,-1,0
1794,17.579,0,-1,0
1795,17.589,0,-1,0
1796,17.599,0,-1,0
1797,17.609,0,-1,0
1798,17.619,0,-1,0
1799,17.629,0,-1,0
1800,17.639,0,-1,0
1801,17.649,0,-1,0
1802,17.659,0,-1,0
1803,17.669,0,-1,0
1804,17.679,-1,-1,0
1805,17.689,0,-1,0
1806,17.699,-1,-1,0
1807,17.709,0,-1,0
1808,17.719,0,-1,0
1809,17.729,0,-1,0
1810,17.739,0,-1,0
1811,17.749,0,0,0
1812,17.759,-1,-1,0
1813,17.769,-1,-1,0
1814,17.779,0,-1,0
1815,17.789,0,-1,0
1816,17.799,0,-1,0
1817,17.809,0,-1,0
1818,17.819,-1,-1,0
1819,17.829,0,-1,0
1820,17.839,-1,-1,0
1821,17.849,0,-1,0
1822,17.859,0,-1,0
1823,17.869,0,-1,0
1824,17.879,0,-1,0
1825,17.889,0,-1,0
1826,17.899,-1,-1,0
1827,17.909,0,-1,0
1828,17.919,0,-2,0
1829,17.929,-1,-1,0
1830,17.939,0,-1,0
1831,17.949,0,-1,0
1832,17.959,-1,-1,0
1833,17.969,0,-1,0
1834,17.979,-1,-1,0
1835,17.989,-1,-1,0
1836,17.999,0,-1,0
1837,18.009,-1,-1,0
1838,18.019,0,-1,0
1839,18.029,0,-1,0
1840,18.039,0,-1,0
1841,18.049,-1,-1,0
1842,18.059,0,-1,0
1843,18.069,0,-1,0
1844,18.079,0,-1,0
1845,18.089,0,-1,0
1846,18.099,-1,-1,0
1847,18.109,0,-1,0
1848,18.119,0,-1,0
1849,18.129,0,-1,0
1850,18.139,-1,-2,0
1851,18.149,0,-1,0
1852,18.159,0,-1,0
1853,18.169,0,-1,0
1854,18.179,-1,-1,0
1855,18.189,0,-1,0
1856,18.199,0,-1,0
1857,18.209,0,-1,0
1858,18.219,0,-1,0
1859,18.229,0,-1,0
1860,18.239,0,-1,0
1861,18.249,-1,0,0
1862,18.259,-1,-1,0
1863,18.269,-1,-1,0
1864,18.279,0,-2,0
1865,18.289,0,-2,0
1866,18.299,0,-1,0
1867,18.309,0,-1,0
1868,18.319,0,-1,0
1869,18.329,0,-1,0
1870,18.339,-1,-1,0
1871,18.349,0,-1,0
1872,18.359,0,-1,0
1873,18.369,0,-1,0
1874,18.379,0,-1,0
1875,18.389,-1,-1,0
1876,18.399,-1,-1,0
1877,18.409,0,-1,0
1878,18.419,0,-1,0
1879,18.429,-1,-1,0
1880,18.439,-1,-1,0
1881,18.449,0,-1,0
1882,18.459,0,-1,0
1883,18.469,0,-1,0
1884,18.479,-1,-1,0
1885,18.489,0,-1,0
1886,18.499,0,-1,0
1887,18.509,0,-1,0
1888,18.519,-1,-1,0
1889,18.529,0,-1,0
1890,18.539,0,-1,0
1891,18.549,0,-1,0
1892,18.559,-1,-1,0
1893,18.569,0,-1,0
1894,18.579,0,-1,0
1895,18.589,0,-1,0
1896,18.599,-1,-1,0
1897,18.609,0,-1,0
1898,18.619,-1,-1,0
1899,18.629,0,-1,0
1900,18.639,-1,-1,0
1901,18.649,0,-1,0
1902,18.659,0,-1,0
1903,18.669,-1,-1,0
1904,18.679,0,-1,0
1905,18.689,-1,-1,0
1906,18.699,0,-1,0
1907,18.709,0,-1,0
1908,18.719,-1,-1,0
1909,18.729,0,-1,0
1910,18.739,0,-1,0
1911,18.749,0,-1,0
1912,18.759,0,-1,0
1913,18.769,0,-1,0
1914,18.779,0,-1,0
1915,18.789,-1,-1,0
1916,18.799,0,-1,0
1917,18.809,0,-1,0
1918,18.819,0,-1,0
1919,18.829,0,-1,0
1920,18.839,-1,-1,0
1921,18.849,0,-1,0
1922,18.859,0,-1,0
1923,18.869,0,-1,0
1924,18.879,0,-1,0
1925,18.889,0,-1,0
1926,18.899,0,-1,0
1927,18.909,0,-2,0
1928,18.919,0,-1,0
1929,18.929,-1,-1,0
1930,18.939,0,-2,0
1931,18.949,0,-1,0
1932,18.959,0,-1,0
1933,18.969,1,-1,0
1934,18.979,-1,-1,0
1935,18.989,-1,-1,0
1936,18.999,0,-1,0
1937,19.009,0,-1,0
1938,19.019,0,-1,0
1939,19.029,0,-1,0
1940,19.039,0,-1,0
1941,19.049,0,-1,0
1942,19.059,0,-1,0
1943,19.069,-1,-1,0
1944,19.079,-1,-1,0
1945,19.089,-1,-1,0
1946,19.099,-1,-1,0
1947,19.109,-1,-1,0
1948,19.119,-1,-1,0
1949,19.129,-1,-1,0
1950,19.139,-1,-1,0
1951,19.149,-1,-1,0
1952,19.159,-1,-1,0
1953,19.169,0,-1,0
1954,19.179,0,-1,0
1955,19.189,0,-1,0
1956,19.199,0,-1,0
1957,19.209,0,-1,0
1958,19.219,0,-1,0
1959,19.229,-1,-1,0
1960,19.239,-1,-1,0
1961,19.249,0,-1,0
1962,19.259,0,-1,0
1963,19.269,0,-1,0
1964,19.279,-1,-1,0
1965,19.289,-1,-1,0
1966,19.299,0,-1,0
1967,19.309,0,-1,0
1968,19.319,1,-1,0
1969,19.329,-1,-2,0
1970,19.339,-1,-1,0
1971,19.349,0,-1,0
1972,19.359,0,-1,0
1973,19.369,0,-1,0
1974,19.379,-1,-1,0
1975,19.389,-1,-1,0
1976,19.399,0,-1,0
1977,19.409,0,-1,0
1978,19.419,1,-1,0
1979,19.429,0,-1,0
1980,19.439,0,-1,0
1981,19.449,-1,-1,0
1982,19.459,-1,-1,0
1983,19.469,0,-1,0
1984,19.479,1,-1,0
1985,19.489,0,-1,0
1986,19.499,1,-1,0
1987,19.509,0,-1,0
1988,19.519,0,-1,0
1989,19.529,-1,-1,0
1990,19.539,-1,-1,0
1991,19.549,-1,-1,0
1992,19.559,0,-1,0
1993,19.569,0,-1,0
1994,19.579,1,-1,0
1995,19.589,0,-1,0
1996,19.599,1,-1,0
1997,19.609,0,-1,0
1998,19.619,1,-1,0
1999,19.629,0,-1,0
2000,19.639,0,-1,0
2001,19.649,-1,-1,0
2002,19.659,-1,-1,0
2003,19.669,-1,-1,0
2004,19.679,0,-1,0
2005,19.689,0,-1,0
2006,19.699,0,-1,0
2007,19.709,0,-1,0
2008,19.719,1,-1,0
2009,19.729,0,-1,0
2010,19.739,0,-1,0
2011,19.749,0,-1,0
2012,19.759,0,-1,0
2013,19.769,0,-1,0
2014,19.779,0,-1,0
2015,19.789,-1,-1,0
2016,19.799,-1,-1,0
2017,19.809,-1,-1,0
2018,19.819,-1,-1,0
2019,19.829,-1,-1,0
2020,19.839,-1,-1,0
2021,19.849,-1,-1,0
2022,19.859,-1,-1,0
2023,19.869,-1,-1,0
2024,19.879,-1,-1,0
2025,19.889,0,-1,0
2026,19.899,-1,-1,0
2027,19.909,0,-1,0
2028,19.919,0,-1,0
2029,19.929,0,-1,0
2030,19.939,0,-1,0
2031,19.949,0,-1,0
2032,19.959,0,-1,0
2033,19.969,1,-1,0
2034,19.979,1,-1,0
2035,19.989,1,-1,0
2036,19.999,1,-1,0
2037,20.009,0,-1,0
2038,20.019,0,-1,0
2039,20.029,0,-1,0
2040,20.039,0,-1,0
2041,20.049,0,-1,0
2042,20.059,0,-1,0
2043,20.069,0,-1,0
2044,20.079,0,-1,0
2045,20.089,0,-1,0
2046,20.099,0,-1,0
2047,20.109,0,-1,0
2048,20.119,0,-1,0
2049,20.129,0,-1,0
2050,20.139,0,-1,0
2051,20.149,0,-2,0
2052,20.159,0,-1,0
2053,20.169,-1,-1,0
2054,20.179,0,-1,0
2055,20.189,-1,-1,0
2056,20.199,0,-1,0
2057,20.209,-1,-1,0
2058,20.219,0,-1,0
2059,20.229,-1,-1,0
2060,20.239,-1,-1,0
2061,20.249,-1,-1,0
2062,20.259,-1,-1,0
2063,20.269,0,-1,0
2064,20.279,0,-1,0
2065,20.289,0,-1,0
2066,20.299,0,-1,0
2067,20.309,0,-1,0
2068,20.319,0,-2,0
2069,20.329,0,-1,0
2070,20.339,0,-1,0
2071,20.349,0,-1,0
2072,20.359,0,-1,0
2073,20.369,0,-1,0
2074,20.379,0,-1,0
2075,20.389,0,-1,0
2076,20.399,0,-1,0
2077,20.409,0,-2,0
2078,20.419,0,-1,0
2079,20.429,0,-1,0
2080,20.439,0,-1,0
2081,20.449,0,-1,0
2082,20.459,-1,-1,0
2083,20.469,0,-1,0
2084,20.479,0,-1,0
2085,20.489,0,-1,0
2086,20.499,0,-1,0
2087,20.509,0,-1,0
2088,20.519,0,-1,0
2089,20.529,0,-1,0
2090,20.539,0,-1,0
2091,20.549,0,-1,0
2092,20.559,0,-1,0
2093,20.569,0,-1,0
2094,20.579,0,-1,0
2095,20.589,0,-1,0
2096,20.599,0,-1,0
2097,20.609,0,-1,0
2098,20.619,1,-2,0
2099,20.629,0,-1,0
2100,20.639,0,-1,0
2101,20.649,1,-1,0
2102,20.659,1,-1,0
2103,20.669,0,-1,0
2104,20.679,0,-1,0
2105,20.689,1,-1,0
2106,20.699,0,-1,0
2107,20.709,1,-1,0
2108,20.719,0,-1,0
2109,20.729,0,-1,0
2110,20.739,0,-1,0
2111,20.749,0,-1,0
2112,20.759,0,-1,0
2113,20.769,0,-1,0
2114,20.779,0,-1,0
2115,20.789,0,-1,0
2116,20.799,0,-1,0
2117,20.809,0,-1,0
2118,20.819,0,-1,0
2119,20.829,-1,-1,0
2120,20.839,-1,-1,0
2121,20.849,-1,-1,0
2122,20.859,-1,-1,0
2123,20.869,-1,-2,0
2124,20.879,-1,-1,0
2125,20.889,0,-1,0
2126,20.899,0,-1,0
2127,20.909,1,-1,0
2128,20.919,1,-1,0
2129,20.929,1,-1,0
2130,20.939,0,-1,0
2131,20.949,0,-1,0
2132,20.959,-1,-1,0
2133,20.969,-1,-1,0
2134,20.979,-1,-2,0
2135,20.989,0,-1,0
2136,20.999,0,-1,0
2137,21.009,0,-1,0
2138,21.019,1,-1,0
2139,21.029,0,0,0
2140,21.039,0,-1,0
2141,21.049,0,-1,0
2142,21.059,-1,-1,0
2143,21.069,0,-1,0
2144,21.079,-1,-1,0
2145,21.089,-1,-1,0
2146,21.099,-1,-1,0
2147,21.109,-1,-1,0
2148,21.119,-1,-1,0
2149,21.129,-1,-1,0
2150,21.139,0,-1,0
2151,21.149,0,-1,0
2152,21.159,0,-1,0
2153,21.169,0,-1,0
2154,21.179,0,-1,0
2155,21.189,1,-1,0
2156,21.199,1,-1,0
2157,21.209,0,-1,0
2158,21.219,0,-1,0
2159,21.229,0,-1,0
2160,21.239,0,-1,0
2161,21.249,-1,-1,0
2162,21.259,-1,-2,0
2163,21.269,-1,-1,0
2164,21.279,-1,-1,0
2165,21.289,-1,-1,0
2166,21.299,0,-1,0
2167,21.309,0,-1,0
2168,21.319,1,-1,0
2169,21.329,0,-1,0
2170,21.339,1,-1,0
2171,21.349,0,-1,0
2172,21.359,0,-1,0
2173,21.369,0,-1,0
2174,21.379,-1,-2,0
2175,21.389,-1,-1,0
2176,21.399,-1,-1,0
2177,21.409,-1,-1,0
2178,21.419,0,-1,0
2179,21.429,0,-1,0
2180,21.439,1,-1,0
2181,21.449,0,-1,0
2182,21.459,1,-1,0
2183,21.469,0,-1,0
