,ts,id,Gx,Gy,Gz,Ax,Ay,Az
0,-0.324,IMU1,1.707317073170732,-0.7926829268292683,-0.12195121951219513,0.908203125,0.0068359375,-0.4384765625
1,-0.324,IMU2,0.48780487804878053,0.6097560975609757,-0.6097560975609757,0.904296875,-0.013671875,-0.4375
2,-0.314,IMU0,-0.5487804878048781,-0.12195121951219513,-0.30487804878048785,0.91796875,0.0048828125,-0.4443359375
3,-0.314,IMU1,1.5853658536585367,-1.2804878048780488,-0.1829268292682927,0.904296875,0.0224609375,-0.4404296875
4,-0.314,IMU2,0.426829268292683,0.24390243902439027,-0.7317073170731708,0.9052734375,0.0029296875,-0.4423828125
5,-0.304,IMU0,-0.7317073170731708,0.3658536585365854,0.0,0.927734375,-0.0126953125,-0.4501953125
6,-0.304,IMU1,1.524390243902439,-0.7926829268292683,0.12195121951219513,0.916015625,0.0078125,-0.443359375
7,-0.304,IMU2,0.30487804878048785,0.7317073170731708,-0.48780487804878053,0.9130859375,-0.015625,-0.4443359375
8,-0.294,IMU0,0.12195121951219513,0.1829268292682927,-0.48780487804878053,0.9150390625,-0.0126953125,-0.455078125
9,-0.294,IMU1,2.378048780487805,-1.0365853658536586,-0.30487804878048785,0.9033203125,0.0068359375,-0.4482421875
10,-0.294,IMU2,1.0975609756097562,0.48780487804878053,-0.853658536585366,0.900390625,-0.013671875,-0.4453125
11,-0.284,IMU0,0.12195121951219513,0.30487804878048785,-0.3658536585365854,0.9228515625,-0.0009765625,-0.4404296875
12,-0.284,IMU1,2.25609756097561,-0.853658536585366,-0.12195121951219513,0.9091796875,0.017578125,-0.4384765625
13,-0.284,IMU2,1.2195121951219514,0.6707317073170732,-0.7317073170731708,0.90625,-0.0009765625,-0.439453125
14,-0.274,IMU0,-0.06097560975609757,0.6707317073170732,-0.12195121951219513,0.92578125,0.0166015625,-0.4521484375
15,-0.274,IMU1,2.0121951219512195,-0.5487804878048781,0.1829268292682927,0.91015625,0.0302734375,-0.4521484375
16,-0.274,IMU2,0.9756097560975611,1.0365853658536586,-0.426829268292683,0.9140625,0.01953125,-0.4482421875
17,-0.264,IMU0,1.707317073170732,2.5609756097560976,1.2195121951219514,0.9306640625,0.0244140625,-0.42578125
18,-0.264,IMU1,3.963414634146342,1.402439024390244,1.3414634146341464,0.9296875,0.0478515625,-0.4208984375
19,-0.264,IMU2,2.5609756097560976,2.5609756097560976,1.0975609756097562,0.9296875,0.013671875,-0.404296875
20,-0.254,IMU0,3.1097560975609757,2.5,3.536585365853659,0.9384765625,-0.0166015625,-0.6044921875
21,-0.254,IMU1,5.365853658536586,1.0975609756097562,3.7195121951219514,0.927734375,0.001953125,-0.5986328125
22,-0.254,IMU2,4.390243902439025,3.4756097560975614,3.231707317073171,0.9287109375,-0.0205078125,-0.6005859375
23,-0.244,IMU0,4.573170731707317,14.756097560975611,3.1707317073170733,0.9521484375,-0.068359375,-0.6787109375
24,-0.244,IMU1,6.585365853658537,13.475609756097562,3.4756097560975614,0.9326171875,-0.0576171875,-0.658203125
25,-0.244,IMU2,5.365853658536586,15.487804878048783,2.7439024390243905,0.9453125,-0.056640625,-0.6689453125
26,-0.234,IMU0,4.146341463414634,33.109756097560975,0.853658536585366,1.0654296875,-0.015625,-0.7421875
27,-0.234,IMU1,5.914634146341464,31.646341463414636,1.1585365853658538,1.05078125,0.0,-0.7373046875
28,-0.234,IMU2,5.060975609756098,34.32926829268293,0.6097560975609757,1.072265625,-0.0205078125,-0.7265625
29,-0.224,IMU0,4.329268292682928,49.93902439024391,3.9024390243902443,1.154296875,-0.0283203125,-0.7138671875
30,-0.224,IMU1,5.731707317073171,48.59756097560976,4.2682926829268295,1.134765625,-0.013671875,-0.7177734375
31,-0.224,IMU2,5.426829268292684,51.03658536585366,3.658536585365854,1.1845703125,-0.021484375,-0.6943359375
32,-0.214,IMU0,5.2439024390243905,55.1219512195122,10.24390243902439,1.5078125,-0.0830078125,-0.75390625
33,-0.214,IMU1,6.7682926829268295,54.32926829268293,10.548780487804878,1.48828125,-0.0517578125,-0.755859375
34,-0.214,IMU2,6.2804878048780495,55.1829268292683,10.182926829268293,1.521484375,-0.1005859375,-0.73828125
35,-0.204,IMU0,6.097560975609756,46.646341463414636,12.621951219512196,1.7939453125,-0.1552734375,-0.7958984375
36,-0.204,IMU1,7.682926829268293,45.73170731707317,12.926829268292684,1.787109375,-0.1142578125,-0.7900390625
37,-0.204,IMU2,7.073170731707318,46.768292682926834,12.682926829268293,1.759765625,-0.1611328125,-0.7373046875
38,-0.194,IMU0,3.780487804878049,34.451219512195124,12.987804878048781,1.8603515625,-0.1201171875,-0.8076171875
39,-0.194,IMU1,5.426829268292684,33.35365853658537,13.29268292682927,1.833984375,-0.0986328125,-0.796875
40,-0.194,IMU2,4.634146341463415,34.451219512195124,12.560975609756099,1.849609375,-0.0908203125,-0.76171875
41,-0.184,IMU0,-1.524390243902439,22.5609756097561,7.134146341463415,2.091796875,-0.0966796875,-0.8876953125
42,-0.184,IMU1,0.426829268292683,21.402439024390247,7.500000000000001,2.0654296875,-0.05078125,-0.8720703125
43,-0.184,IMU2,-0.7926829268292683,22.378048780487806,6.52439024390244,2.06640625,-0.1201171875,-0.85546875
44,-0.174,IMU0,-2.1951219512195124,14.329268292682928,3.963414634146342,2.10546875,-0.0810546875,-0.939453125
45,-0.174,IMU1,-0.1829268292682927,13.109756097560977,4.085365853658537,2.087890625,-0.052734375,-0.9521484375
46,-0.174,IMU2,-0.9756097560975611,14.634146341463415,3.780487804878049,2.09765625,-0.0751953125,-0.9091796875
47,-0.164,IMU0,-1.9512195121951221,14.02439024390244,6.707317073170732,2.1318359375,-0.04296875,-1.0107421875
48,-0.164,IMU1,0.12195121951219513,12.987804878048781,6.890243902439025,2.1015625,-0.0224609375,-0.9873046875
49,-0.164,IMU2,-1.0365853658536586,14.51219512195122,6.219512195121951,2.1298828125,-0.0146484375,-1.0771484375
50,-0.154,IMU0,-0.3658536585365854,21.82926829268293,6.52439024390244,2.154296875,-0.1630859375,-1.1201171875
51,-0.154,IMU1,1.3414634146341464,20.853658536585368,6.646341463414635,2.1435546875,-0.1171875,-1.111328125
52,-0.154,IMU2,0.426829268292683,22.31707317073171,6.646341463414635,2.1044921875,-0.1552734375,-1.05859375
53,-0.144,IMU0,0.6097560975609757,27.134146341463417,6.036585365853659,2.2783203125,-0.0546875,-1.0927734375
54,-0.144,IMU1,2.25609756097561,26.03658536585366,6.341463414634147,2.251953125,-0.009765625,-1.0810546875
55,-0.144,IMU2,1.402439024390244,28.04878048780488,5.7926829268292686,2.2685546875,-0.0849609375,-1.0849609375
56,-0.134,IMU0,-2.378048780487805,26.34146341463415,1.7682926829268295,2.318359375,-0.1015625,-1.0751953125
57,-0.134,IMU1,-0.7926829268292683,25.182926829268293,2.073170731707317,2.2822265625,-0.0751953125,-1.0634765625
58,-0.134,IMU2,-1.7682926829268295,26.58536585365854,1.2195121951219514,2.322265625,-0.0966796875,-1.041015625
59,-0.124,IMU0,-5.365853658536586,22.743902439024392,-1.402439024390244,2.4482421875,-0.1630859375,-1.064453125
60,-0.124,IMU1,-3.4756097560975614,21.585365853658537,-1.0975609756097562,2.4140625,-0.138671875,-1.060546875
61,-0.124,IMU2,-5.060975609756098,22.378048780487806,-1.829268292682927,2.4267578125,-0.1064453125,-1.0244140625
62,-0.114,IMU0,-3.7195121951219514,13.170731707317074,-1.1585365853658538,2.4736328125,-0.1943359375,-1.1162109375
63,-0.114,IMU1,-1.707317073170732,12.073170731707318,-1.0975609756097562,2.4599609375,-0.142578125,-1.115234375
64,-0.114,IMU2,-2.9268292682926833,12.926829268292684,-0.853658536585366,2.4189453125,-0.2099609375,-1.0810546875
65,-0.104,IMU0,-2.5609756097560976,7.987804878048781,1.3414634146341464,2.578125,-0.12890625,-1.1845703125
66,-0.104,IMU1,-0.7926829268292683,6.890243902439025,1.4634146341463417,2.5693359375,-0.0732421875,-1.185546875
67,-0.104,IMU2,-0.9756097560975611,8.353658536585366,1.7682926829268295,2.541015625,-0.203125,-1.189453125
68,-0.094,IMU0,-1.524390243902439,6.097560975609756,4.390243902439025,2.7197265625,-0.1494140625,-1.279296875
69,-0.094,IMU1,0.5487804878048781,4.878048780487806,4.573170731707317,2.7021484375,-0.09375,-1.2841796875
70,-0.094,IMU2,-0.1829268292682927,6.158536585365854,4.573170731707317,2.6796875,-0.2275390625,-1.265625
71,-0.084,IMU0,-2.1951219512195124,5.487804878048781,2.439024390243903,2.8564453125,-0.2587890625,-1.3740234375
72,-0.084,IMU1,0.12195121951219513,4.146341463414634,2.7439024390243905,2.83203125,-0.2041015625,-1.3583984375
73,-0.084,IMU2,-1.2195121951219514,5.975609756097562,1.7682926829268295,2.8046875,-0.3193359375,-1.328125
74,-0.074,IMU0,-4.329268292682928,6.585365853658537,-2.6219512195121952,2.939453125,-0.2333984375,-1.42578125
75,-0.074,IMU1,-1.829268292682927,5.609756097560976,-2.1341463414634148,2.921875,-0.177734375,-1.4248046875
76,-0.074,IMU2,-2.987804878048781,7.134146341463415,-2.7439024390243905,2.9091796875,-0.263671875,-1.375
77,-0.064,IMU0,-3.963414634146342,7.317073170731708,0.9756097560975611,3.04296875,-0.216796875,-1.3984375
78,-0.064,IMU1,-1.8902439024390245,6.463414634146342,1.0365853658536586,3.021484375,-0.1689453125,-1.408203125
79,-0.064,IMU2,-2.9268292682926833,7.073170731707318,1.0365853658536586,3.0419921875,-0.22265625,-1.3935546875
80,-0.054,IMU0,-2.7439024390243905,4.024390243902439,3.5975609756097566,3.1806640625,-0.2548828125,-1.4765625
81,-0.054,IMU1,-0.5487804878048781,2.9268292682926833,3.9024390243902443,3.154296875,-0.197265625,-1.470703125
82,-0.054,IMU2,-2.073170731707317,4.146341463414634,3.414634146341464,3.1650390625,-0.240234375,-1.45703125
83,-0.044,IMU0,-3.7195121951219514,0.426829268292683,1.0365853658536586,3.2646484375,-0.2548828125,-1.515625
84,-0.044,IMU1,-1.3414634146341464,-1.0975609756097562,0.7317073170731708,3.2353515625,-0.2080078125,-1.5068359375
85,-0.044,IMU2,-2.8658536585365857,0.426829268292683,0.30487804878048785,3.234375,-0.255859375,-1.4716796875
86,-0.034,IMU0,-3.536585365853659,-2.1341463414634148,0.48780487804878053,3.318359375,-0.236328125,-1.5263671875
87,-0.034,IMU1,-1.2804878048780488,-3.414634146341464,0.5487804878048781,3.3125,-0.20703125,-1.5361328125
88,-0.034,IMU2,-2.5,-1.9512195121951221,0.0,3.3232421875,-0.25390625,-1.51953125
89,-0.024,IMU0,-5.182926829268293,-2.5609756097560976,-0.06097560975609757,3.3984375,-0.271484375,-1.5869140625
90,-0.024,IMU1,-2.9268292682926833,-3.1707317073170733,-0.24390243902439027,3.3544921875,-0.20703125,-1.615234375
91,-0.024,IMU2,-4.451219512195122,-1.6463414634146343,-0.7317073170731708,3.36328125,-0.2548828125,-1.6044921875
92,-0.014,IMU0,-7.195121951219513,-1.0365853658536586,-0.9146341463414634,3.44140625,-0.2607421875,-1.6484375
93,-0.014,IMU1,-4.085365853658537,-2.073170731707317,-0.9756097560975611,3.41796875,-0.2333984375,-1.6005859375
94,-0.014,IMU2,-6.341463414634147,-0.6707317073170732,-1.402439024390244,3.4248046875,-0.283203125,-1.5771484375
95,-0.004,IMU0,-7.743902439024391,-1.0975609756097562,-0.853658536585366,3.521484375,-0.24609375,-1.646484375
96,-0.004,IMU1,-5.3048780487804885,-2.439024390243903,-0.48780487804878053,3.521484375,-0.1865234375,-1.6884765625
97,-0.004,IMU2,-7.01219512195122,-1.0365853658536586,-1.0365853658536586,3.537109375,-0.236328125,-1.6787109375
98,0.006,IMU0,-7.317073170731708,-1.402439024390244,2.9268292682926833,3.607421875,-0.234375,-1.703125
99,0.006,IMU1,-4.878048780487806,-2.682926829268293,3.1707317073170733,3.564453125,-0.1806640625,-1.6796875
100,0.006,IMU2,-6.2804878048780495,-1.3414634146341464,2.6219512195121952,3.578125,-0.2314453125,-1.6650390625
101,0.016,IMU0,-6.036585365853659,-2.3170731707317076,5.914634146341464,3.66015625,-0.2421875,-1.6953125
102,0.016,IMU1,-4.085365853658537,-3.9024390243902443,6.219512195121951,3.6455078125,-0.1904296875,-1.7099609375
103,0.016,IMU2,-5.182926829268293,-2.5,5.548780487804878,3.65625,-0.2392578125,-1.6982421875
104,0.026,IMU0,-5.060975609756098,-3.658536585365854,8.719512195121952,3.6533203125,-0.20703125,-1.689453125
105,0.026,IMU1,-2.682926829268293,-5.2439024390243905,8.902439024390244,3.62890625,-0.1357421875,-1.71484375
106,0.026,IMU2,-3.963414634146342,-3.8414634146341466,8.292682926829269,3.6474609375,-0.189453125,-1.69921875
107,0.036,IMU0,-3.1707317073170733,-3.963414634146342,12.500000000000002,3.5966796875,-0.1416015625,-1.73046875
108,0.036,IMU1,0.12195121951219513,-4.817073170731708,13.29268292682927,3.5322265625,-0.12890625,-1.7001953125
109,0.036,IMU2,-1.402439024390244,-3.536585365853659,12.80487804878049,3.5419921875,-0.177734375,-1.677734375
110,0.046,IMU0,0.6707317073170732,-0.5487804878048781,15.975609756097562,3.5302734375,-0.1689453125,-1.701171875
111,0.046,IMU1,3.7195121951219514,-2.073170731707317,16.28048780487805,3.515625,-0.083984375,-1.7314453125
112,0.046,IMU2,1.6463414634146343,-0.9146341463414634,15.79268292682927,3.5322265625,-0.1298828125,-1.724609375
113,0.056,IMU0,2.1341463414634148,0.48780487804878053,13.78048780487805,3.578125,-0.1787109375,-1.712890625
114,0.056,IMU1,4.634146341463415,-0.6707317073170732,12.987804878048781,3.5693359375,-0.09375,-1.74609375
115,0.056,IMU2,2.8658536585365857,0.7926829268292683,12.378048780487806,3.5791015625,-0.1513671875,-1.7333984375
116,0.066,IMU0,3.231707317073171,-0.06097560975609757,10.487804878048781,3.5595703125,-0.119140625,-1.75390625
117,0.066,IMU1,5.975609756097562,-1.2195121951219514,10.548780487804878,3.482421875,-0.103515625,-1.7275390625
118,0.066,IMU2,4.146341463414634,-0.12195121951219513,10.182926829268293,3.486328125,-0.146484375,-1.6904296875
119,0.076,IMU0,3.7195121951219514,0.5487804878048781,7.560975609756098,3.5078125,-0.16015625,-1.72265625
120,0.076,IMU1,5.609756097560976,-0.9146341463414634,7.195121951219513,3.5,-0.107421875,-1.744140625
121,0.076,IMU2,3.963414634146342,0.3658536585365854,6.585365853658537,3.509765625,-0.150390625,-1.7431640625
122,0.086,IMU0,2.682926829268293,1.402439024390244,0.48780487804878053,3.5390625,-0.1259765625,-1.7890625
123,0.086,IMU1,4.573170731707317,-0.06097560975609757,0.9146341463414634,3.5009765625,-0.0693359375,-1.7822265625
124,0.086,IMU2,3.536585365853659,1.0975609756097562,0.12195121951219513,3.5087890625,-0.1328125,-1.7705078125
125,0.096,IMU0,4.939024390243903,4.085365853658537,-2.1341463414634148,3.478515625,-0.08984375,-1.8115234375
126,0.096,IMU1,6.646341463414635,2.804878048780488,-1.9512195121951221,3.4150390625,-0.064453125,-1.7529296875
127,0.096,IMU2,5.548780487804878,4.390243902439025,-2.378048780487805,3.42578125,-0.09765625,-1.7587890625
128,0.106,IMU0,7.439024390243903,6.2804878048780495,0.48780487804878053,3.4970703125,-0.0673828125,-1.841796875
129,0.106,IMU1,8.841463414634147,5.2439024390243905,0.7926829268292683,3.4736328125,-0.01171875,-1.8232421875
130,0.106,IMU2,8.658536585365855,6.646341463414635,0.24390243902439027,3.4833984375,-0.0703125,-1.8076171875
131,0.116,IMU0,5.853658536585367,7.743902439024391,-0.30487804878048785,3.5068359375,-0.0791015625,-1.8056640625
132,0.116,IMU1,7.987804878048781,7.01219512195122,-0.06097560975609757,3.4609375,-0.0419921875,-1.79296875
133,0.116,IMU2,6.890243902439025,8.109756097560977,-0.6097560975609757,3.482421875,-0.076171875,-1.791015625
134,0.126,IMU0,5.548780487804878,7.8048780487804885,0.12195121951219513,3.544921875,-0.087890625,-1.8388671875
135,0.126,IMU1,7.926829268292684,7.073170731707318,0.426829268292683,3.509765625,-0.03515625,-1.8466796875
136,0.126,IMU2,6.52439024390244,8.353658536585366,-0.12195121951219513,3.517578125,-0.099609375,-1.818359375
137,0.136,IMU0,3.780487804878049,6.2804878048780495,-1.3414634146341464,3.5458984375,-0.0830078125,-1.8681640625
138,0.136,IMU1,6.585365853658537,5.487804878048781,-1.0975609756097562,3.498046875,-0.0458984375,-1.84375
139,0.136,IMU2,5.0,6.341463414634147,-1.7682926829268295,3.51953125,-0.072265625,-1.861328125
140,0.146,IMU0,1.402439024390244,5.853658536585367,-4.695121951219512,3.5966796875,-0.08984375,-1.849609375
141,0.146,IMU1,4.2682926829268295,4.939024390243903,-4.573170731707317,3.5546875,-0.0537109375,-1.8466796875
142,0.146,IMU2,2.682926829268293,6.158536585365854,-5.0,3.572265625,-0.0791015625,-1.82421875
143,0.156,IMU0,3.414634146341464,-5.731707317073171,-2.9268292682926833,3.6708984375,-0.0712890625,-1.7822265625
144,0.156,IMU1,6.158536585365854,-6.707317073170732,-2.7439024390243905,3.6435546875,-0.015625,-1.7998046875
145,0.156,IMU2,4.878048780487806,-5.7926829268292686,-3.1707317073170733,3.64453125,-0.0791015625,-1.755859375
146,0.166,IMU0,4.451219512195122,-19.085365853658537,-3.1707317073170733,3.603515625,-0.1318359375,-1.796875
147,0.166,IMU1,7.378048780487806,-20.243902439024392,-2.8658536585365857,3.5625,-0.0693359375,-1.8017578125
148,0.166,IMU2,5.853658536585367,-19.02439024390244,-3.8414634146341466,3.56640625,-0.158203125,-1.791015625
149,0.176,IMU0,2.0121951219512195,-26.28048780487805,-5.609756097560976,3.4609375,-0.115234375,-1.7685546875
150,0.176,IMU1,5.487804878048781,-27.621951219512198,-5.548780487804878,3.419921875,-0.068359375,-1.76953125
151,0.176,IMU2,3.231707317073171,-26.03658536585366,-6.158536585365854,3.4404296875,-0.1025390625,-1.763671875
152,0.186,IMU0,-0.6097560975609757,-30.000000000000004,-4.085365853658537,3.4267578125,-0.05859375,-1.7666015625
153,0.186,IMU1,2.6219512195121952,-31.402439024390247,-4.146341463414634,3.4013671875,-0.009765625,-1.7841796875
154,0.186,IMU2,0.7317073170731708,-29.87804878048781,-4.390243902439025,3.4169921875,-0.044921875,-1.763671875
155,0.196,IMU0,-1.2804878048780488,-35.97560975609756,1.2804878048780488,3.421875,-0.1162109375,-1.8515625
156,0.196,IMU1,2.3170731707317076,-37.07317073170732,1.1585365853658538,3.390625,-0.0595703125,-1.83984375
157,0.196,IMU2,0.1829268292682927,-35.91463414634147,0.48780487804878053,3.400390625,-0.0859375,-1.80859375
158,0.206,IMU0,-2.378048780487805,-44.390243902439025,1.3414634146341464,3.423828125,-0.0791015625,-1.7861328125
159,0.206,IMU1,0.30487804878048785,-45.243902439024396,1.2804878048780488,3.3828125,-0.04296875,-1.763671875
160,0.206,IMU2,-1.0975609756097562,-44.57317073170732,0.6707317073170732,3.4140625,-0.0517578125,-1.8115234375
161,0.216,IMU0,-1.3414634146341464,-49.57317073170732,5.7926829268292686,3.3603515625,-0.0712890625,-1.765625
162,0.216,IMU1,1.8902439024390245,-50.54878048780488,5.548780487804878,3.3349609375,-0.03125,-1.755859375
163,0.216,IMU2,0.12195121951219513,-49.75609756097561,5.487804878048781,3.3798828125,-0.05078125,-1.7783203125
164,0.226,IMU0,-2.5609756097560976,-45.426829268292686,8.292682926829269,3.326171875,-0.091796875,-1.849609375
165,0.226,IMU1,0.6097560975609757,-46.82926829268293,8.170731707317074,3.302734375,-0.041015625,-1.841796875
166,0.226,IMU2,-0.6707317073170732,-44.75609756097561,7.500000000000001,3.29296875,-0.111328125,-1.8056640625
167,0.236,IMU0,-5.609756097560976,-39.63414634146342,4.695121951219512,3.375,-0.1220703125,-1.79296875
168,0.236,IMU1,-2.682926829268293,-41.34146341463415,4.75609756097561,3.322265625,-0.0791015625,-1.794921875
169,0.236,IMU2,-4.451219512195122,-39.146341463414636,3.536585365853659,3.3017578125,-0.1416015625,-1.7666015625
170,0.246,IMU0,-8.719512195121952,-37.25609756097561,0.426829268292683,3.369140625,-0.076171875,-1.798828125
171,0.246,IMU1,-6.463414634146342,-38.65853658536586,0.48780487804878053,3.3349609375,-0.03515625,-1.7958984375
172,0.246,IMU2,-7.378048780487806,-37.5,-0.06097560975609757,3.3583984375,-0.0810546875,-1.8212890625
173,0.256,IMU0,-9.695121951219512,-39.51219512195122,1.6463414634146343,3.4560546875,-0.0283203125,-1.8125
174,0.256,IMU1,-6.585365853658537,-40.73170731707317,1.524390243902439,3.4365234375,0.017578125,-1.82421875
175,0.256,IMU2,-8.902439024390244,-39.08536585365854,0.9146341463414634,3.4775390625,-0.0166015625,-1.77734375
176,0.266,IMU0,-7.195121951219513,-44.57317073170732,7.682926829268293,3.4794921875,-0.0439453125,-1.7822265625
177,0.266,IMU1,-3.5975609756097566,-45.73170731707317,7.439024390243903,3.4384765625,0.0068359375,-1.771484375
178,0.266,IMU2,-6.463414634146342,-44.146341463414636,7.01219512195122,3.4345703125,-0.0302734375,-1.7607421875
179,0.276,IMU0,-8.414634146341465,-46.15853658536586,4.75609756097561,3.3369140625,-0.109375,-1.765625
180,0.276,IMU1,-5.0,-47.987804878048784,4.634146341463415,3.3037109375,-0.0595703125,-1.765625
181,0.276,IMU2,-7.01219512195122,-46.463414634146346,4.085365853658537,3.3330078125,-0.0986328125,-1.740234375
182,0.286,IMU0,-7.195121951219513,-42.43902439024391,3.048780487804878,3.337890625,0.013671875,-1.751953125
183,0.286,IMU1,-4.451219512195122,-44.207317073170735,2.9268292682926833,3.3056640625,0.0634765625,-1.7548828125
184,0.286,IMU2,-5.914634146341464,-41.951219512195124,2.5,3.3017578125,0.005859375,-1.73828125
185,0.296,IMU0,-2.439024390243903,-40.73170731707317,5.7926829268292686,3.3173828125,-0.00390625,-1.6962890625
186,0.296,IMU1,-0.30487804878048785,-41.951219512195124,5.914634146341464,3.2666015625,0.029296875,-1.7041015625
187,0.296,IMU2,-1.9512195121951221,-40.36585365853659,5.3048780487804885,3.26953125,-0.03515625,-1.693359375
188,0.306,IMU0,-0.426829268292683,-41.646341463414636,5.914634146341464,3.3115234375,0.0205078125,-1.70703125
189,0.306,IMU1,2.6219512195121952,-42.743902439024396,5.7926829268292686,3.2919921875,0.0751953125,-1.7158203125
190,0.306,IMU2,0.30487804878048785,-41.21951219512196,5.2439024390243905,3.3251953125,0.0439453125,-1.72265625
191,0.316,IMU0,2.3170731707317076,-40.60975609756098,5.548780487804878,3.291015625,0.0185546875,-1.7109375
192,0.316,IMU1,5.365853658536586,-41.707317073170735,5.548780487804878,3.2490234375,0.056640625,-1.70703125
193,0.316,IMU2,3.2926829268292686,-40.304878048780495,4.939024390243903,3.251953125,-0.0048828125,-1.6767578125
194,0.326,IMU0,3.4756097560975614,-36.951219512195124,3.231707317073171,3.30078125,-0.0234375,-1.716796875
195,0.326,IMU1,5.975609756097562,-38.04878048780488,3.353658536585366,3.2646484375,0.021484375,-1.7080078125
196,0.326,IMU2,4.695121951219512,-36.40243902439025,2.8658536585365857,3.27734375,-0.0205078125,-1.701171875
197,0.336,IMU0,3.8414634146341466,-38.71951219512196,-1.1585365853658538,3.2998046875,0.0703125,-1.65234375
198,0.336,IMU1,6.646341463414635,-39.69512195121951,-1.0975609756097562,3.2578125,0.1142578125,-1.6640625
199,0.336,IMU2,5.182926829268293,-38.170731707317074,-1.6463414634146343,3.2666015625,0.064453125,-1.640625
200,0.346,IMU0,7.195121951219513,-37.6219512195122,2.0121951219512195,3.189453125,0.04296875,-1.619140625
201,0.346,IMU1,10.0,-38.78048780487805,2.0121951219512195,3.158203125,0.0947265625,-1.630859375
202,0.346,IMU2,7.987804878048781,-37.37804878048781,1.4634146341463417,3.18359375,0.05859375,-1.634765625
203,0.356,IMU0,7.500000000000001,-35.79268292682927,0.30487804878048785,3.201171875,0.033203125,-1.6328125
204,0.356,IMU1,10.670731707317074,-36.890243902439025,0.5487804878048781,3.1611328125,0.0771484375,-1.60546875
205,0.356,IMU2,8.536585365853659,-35.426829268292686,0.06097560975609757,3.1640625,0.03125,-1.5869140625
206,0.366,IMU0,5.487804878048781,-33.170731707317074,-2.8658536585365857,3.154296875,0.0068359375,-1.5478515625
207,0.366,IMU1,7.987804878048781,-34.268292682926834,-2.682926829268293,3.1083984375,0.0419921875,-1.5439453125
208,0.366,IMU2,6.341463414634147,-32.987804878048784,-3.231707317073171,3.1123046875,-0.0087890625,-1.5224609375
209,0.376,IMU0,3.2926829268292686,-31.58536585365854,-3.536585365853659,3.1025390625,0.048828125,-1.5595703125
210,0.376,IMU1,6.158536585365854,-32.86585365853659,-3.4756097560975614,3.0830078125,0.0986328125,-1.5751953125
211,0.376,IMU2,4.146341463414634,-31.707317073170735,-4.024390243902439,3.1044921875,0.0595703125,-1.5673828125
212,0.386,IMU0,3.048780487804878,-31.219512195121954,0.853658536585366,3.1357421875,0.142578125,-1.5087890625
213,0.386,IMU1,6.2804878048780495,-32.5,0.7926829268292683,3.111328125,0.19921875,-1.51171875
214,0.386,IMU2,3.9024390243902443,-30.975609756097565,0.30487804878048785,3.1328125,0.15625,-1.5224609375
215,0.396,IMU0,4.390243902439025,-33.04878048780488,4.695121951219512,3.111328125,0.142578125,-1.4853515625
216,0.396,IMU1,7.682926829268293,-34.08536585365854,4.634146341463415,3.078125,0.181640625,-1.462890625
217,0.396,IMU2,5.3048780487804885,-32.5,4.085365853658537,3.091796875,0.1376953125,-1.447265625
218,0.406,IMU0,7.134146341463415,-33.109756097560975,8.902439024390244,3.005859375,0.0693359375,-1.4814453125
219,0.406,IMU1,10.182926829268293,-34.268292682926834,8.963414634146343,2.97265625,0.111328125,-1.4775390625
220,0.406,IMU2,8.475609756097562,-32.86585365853659,8.292682926829269,2.98046875,0.0703125,-1.4580078125
221,0.416,IMU0,4.573170731707317,-29.939024390243905,7.01219512195122,3.017578125,0.1015625,-1.44140625
222,0.416,IMU1,7.560975609756098,-31.03658536585366,7.073170731707318,2.9931640625,0.1552734375,-1.435546875
223,0.416,IMU2,5.975609756097562,-29.573170731707318,6.402439024390245,3.005859375,0.109375,-1.4267578125
224,0.426,IMU0,2.073170731707317,-30.0609756097561,5.060975609756098,3.1171875,0.1728515625,-1.4091796875
225,0.426,IMU1,4.451219512195122,-30.975609756097565,5.182926829268293,3.076171875,0.2138671875,-1.396484375
226,0.426,IMU2,3.8414634146341466,-29.573170731707318,4.451219512195122,3.0908203125,0.171875,-1.384765625
227,0.436,IMU0,3.536585365853659,-37.31707317073171,6.463414634146342,3.056640625,0.2216796875,-1.3544921875
228,0.436,IMU1,6.52439024390244,-38.47560975609756,6.463414634146342,3.0185546875,0.259765625,-1.3671875
229,0.436,IMU2,4.817073170731708,-36.951219512195124,5.853658536585367,3.0341796875,0.2216796875,-1.36328125
230,0.446,IMU0,3.963414634146342,-36.707317073170735,10.548780487804878,2.947265625,0.2099609375,-1.4013671875
231,0.446,IMU1,7.621951219512196,-38.47560975609756,10.426829268292684,2.9296875,0.2587890625,-1.4130859375
232,0.446,IMU2,6.097560975609756,-36.951219512195124,9.939024390243903,2.9365234375,0.2119140625,-1.4013671875
233,0.456,IMU0,6.341463414634147,-31.707317073170735,14.451219512195124,2.970703125,0.1728515625,-1.4736328125
234,0.456,IMU1,10.0,-33.35365853658537,14.451219512195124,2.9453125,0.2119140625,-1.455078125
235,0.456,IMU2,7.926829268292684,-32.01219512195122,13.963414634146343,2.9560546875,0.1748046875,-1.4375
236,0.466,IMU0,7.195121951219513,-29.39024390243903,16.82926829268293,3.1025390625,0.1708984375,-1.3984375
237,0.466,IMU1,10.24390243902439,-30.487804878048784,16.890243902439025,3.068359375,0.22265625,-1.3984375
238,0.466,IMU2,8.719512195121952,-29.512195121951223,16.28048780487805,3.08203125,0.16796875,-1.3896484375
239,0.476,IMU0,4.024390243902439,-33.59756097560976,17.682926829268293,3.1748046875,0.2021484375,-1.375
240,0.476,IMU1,7.682926829268293,-34.207317073170735,17.5,3.134765625,0.248046875,-1.3623046875
241,0.476,IMU2,5.609756097560976,-33.35365853658537,17.012195121951223,3.1650390625,0.201171875,-1.345703125
242,0.486,IMU0,4.207317073170732,-39.268292682926834,18.10975609756098,3.142578125,0.1513671875,-1.3544921875
243,0.486,IMU1,7.500000000000001,-40.60975609756098,18.10975609756098,3.0947265625,0.1875,-1.3564453125
244,0.486,IMU2,5.609756097560976,-39.51219512195122,17.439024390243905,3.1103515625,0.1533203125,-1.333984375
245,0.496,IMU0,3.414634146341464,-38.71951219512196,18.902439024390244,3.0537109375,0.1513671875,-1.3623046875
246,0.496,IMU1,7.317073170731708,-40.0609756097561,18.658536585365855,3.0263671875,0.19921875,-1.361328125
247,0.496,IMU2,4.146341463414634,-38.71951219512196,18.414634146341466,3.03515625,0.15234375,-1.3349609375
248,0.506,IMU0,5.731707317073171,-37.37804878048781,24.26829268292683,3.138671875,0.158203125,-1.328125
249,0.506,IMU1,9.146341463414634,-39.268292682926834,24.512195121951223,3.111328125,0.1962890625,-1.3193359375
250,0.506,IMU2,6.646341463414635,-37.31707317073171,23.84146341463415,3.1220703125,0.166015625,-1.3193359375
251,0.516,IMU0,9.695121951219512,-38.10975609756098,28.414634146341466,3.1328125,0.1318359375,-1.333984375
252,0.516,IMU1,13.04878048780488,-38.78048780487805,28.353658536585368,3.1044921875,0.1845703125,-1.328125
253,0.516,IMU2,10.853658536585368,-38.04878048780488,27.926829268292686,3.1083984375,0.1259765625,-1.333984375
254,0.526,IMU0,12.195121951219512,-33.71951219512196,28.292682926829272,3.0166015625,0.11328125,-1.380859375
255,0.526,IMU1,15.30487804878049,-34.08536585365854,28.170731707317074,2.9912109375,0.1669921875,-1.4267578125
256,0.526,IMU2,13.29268292682927,-33.53658536585366,27.80487804878049,2.994140625,0.111328125,-1.3740234375
257,0.536,IMU0,12.073170731707318,-25.792682926829272,27.5609756097561,2.92578125,0.1298828125,-1.3837890625
258,0.536,IMU1,15.182926829268293,-26.89024390243903,27.865853658536587,2.9267578125,0.1923828125,-1.3984375
259,0.536,IMU2,13.353658536585368,-25.792682926829272,27.195121951219516,2.9091796875,0.1416015625,-1.37109375
260,0.546,IMU0,10.914634146341465,-23.902439024390247,23.719512195121954,2.919921875,0.1025390625,-1.392578125
261,0.546,IMU1,14.146341463414636,-24.573170731707318,23.10975609756098,2.86328125,0.1240234375,-1.3583984375
262,0.546,IMU2,11.951219512195124,-22.80487804878049,23.170731707317074,2.8779296875,0.0908203125,-1.3798828125
263,0.556,IMU0,8.658536585365855,-24.512195121951223,12.134146341463415,2.935546875,0.087890625,-1.345703125
264,0.556,IMU1,10.975609756097562,-25.243902439024392,11.341463414634147,2.857421875,0.099609375,-1.353515625
265,0.556,IMU2,10.121951219512196,-23.84146341463415,11.28048780487805,2.8935546875,0.0810546875,-1.3544921875
266,0.566,IMU0,9.695121951219512,-19.32926829268293,6.52439024390244,2.8271484375,0.1611328125,-1.341796875
267,0.566,IMU1,11.890243902439025,-19.085365853658537,6.402439024390245,2.818359375,0.177734375,-1.3818359375
268,0.566,IMU2,10.975609756097562,-18.475609756097562,5.914634146341464,2.8134765625,0.150390625,-1.349609375
269,0.576,IMU0,15.914634146341465,-6.707317073170732,7.8048780487804885,2.8369140625,0.1513671875,-1.310546875
270,0.576,IMU1,18.475609756097562,-7.195121951219513,8.170731707317074,2.8369140625,0.1904296875,-1.3203125
271,0.576,IMU2,16.76829268292683,-5.609756097560976,7.682926829268293,2.8154296875,0.15234375,-1.291015625
272,0.586,IMU0,15.670731707317074,-0.7317073170731708,2.1951219512195124,2.9033203125,0.1513671875,-1.3056640625
273,0.586,IMU1,18.414634146341466,-0.853658536585366,2.5,2.85546875,0.1982421875,-1.275390625
274,0.586,IMU2,16.463414634146343,0.0,1.9512195121951221,2.87890625,0.1640625,-1.279296875
275,0.596,IMU0,18.902439024390244,-0.7317073170731708,5.975609756097562,3.0546875,0.134765625,-1.29296875
276,0.596,IMU1,21.34146341463415,-1.8902439024390245,5.853658536585367,2.9990234375,0.1533203125,-1.3232421875
277,0.596,IMU2,19.146341463414636,-0.3658536585365854,5.670731707317073,3.02734375,0.1328125,-1.31640625
278,0.606,IMU0,20.975609756097562,-6.036585365853659,5.060975609756098,2.9609375,0.18359375,-1.31640625
279,0.606,IMU1,23.414634146341466,-7.01219512195122,5.3048780487804885,2.9501953125,0.25390625,-1.365234375
280,0.606,IMU2,21.402439024390247,-5.7926829268292686,5.0,2.9423828125,0.1845703125,-1.3232421875
281,0.616,IMU0,22.31707317073171,-5.426829268292684,6.951219512195123,2.83984375,0.15625,-1.361328125
282,0.616,IMU1,24.75609756097561,-6.2804878048780495,7.560975609756098,2.7919921875,0.236328125,-1.3125
283,0.616,IMU2,22.682926829268293,-4.51219512195122,7.073170731707318,2.80078125,0.1728515625,-1.333984375
284,0.626,IMU0,25.54878048780488,-4.085365853658537,7.926829268292684,2.6943359375,0.28125,-1.326171875
285,0.626,IMU1,27.5609756097561,-4.695121951219512,8.170731707317074,2.6083984375,0.314453125,-1.3134765625
286,0.626,IMU2,25.731707317073173,-3.231707317073171,7.621951219512196,2.646484375,0.2646484375,-1.3271484375
287,0.636,IMU0,28.04878048780488,-0.7317073170731708,7.621951219512196,2.50390625,0.283203125,-1.2861328125
288,0.636,IMU1,30.182926829268297,-1.3414634146341464,7.560975609756098,2.486328125,0.3427734375,-1.3154296875
289,0.636,IMU2,28.84146341463415,0.12195121951219513,7.317073170731708,2.4912109375,0.28125,-1.2744140625
290,0.646,IMU0,31.219512195121954,0.24390243902439027,8.475609756097562,2.4736328125,0.2216796875,-1.251953125
291,0.646,IMU1,33.53658536585366,-0.24390243902439027,8.902439024390244,2.431640625,0.255859375,-1.2236328125
292,0.646,IMU2,32.01219512195122,1.3414634146341464,8.597560975609756,2.427734375,0.2216796875,-1.2265625
293,0.656,IMU0,29.939024390243905,1.402439024390244,4.207317073170732,2.39453125,0.3828125,-1.2294921875
294,0.656,IMU1,32.07317073170732,0.7926829268292683,4.451219512195122,2.3466796875,0.3740234375,-1.2431640625
295,0.656,IMU2,30.0609756097561,2.0121951219512195,3.8414634146341466,2.37890625,0.3505859375,-1.248046875
296,0.666,IMU0,32.5609756097561,5.060975609756098,9.146341463414634,2.361328125,0.396484375,-1.2294921875
297,0.666,IMU1,34.93902439024391,4.329268292682928,9.573170731707318,2.3408203125,0.439453125,-1.22265625
298,0.666,IMU2,33.65853658536586,5.548780487804878,9.146341463414634,2.3486328125,0.3994140625,-1.1904296875
299,0.676,IMU0,35.1219512195122,9.634146341463415,12.195121951219512,2.298828125,0.34375,-1.169921875
300,0.676,IMU1,37.5,8.963414634146343,12.621951219512196,2.255859375,0.380859375,-1.1591796875
301,0.676,IMU2,36.40243902439025,10.548780487804878,12.134146341463415,2.2431640625,0.333984375,-1.1533203125
302,0.686,IMU0,30.54878048780488,13.658536585365855,3.5975609756097566,2.1591796875,0.3310546875,-1.15625
303,0.686,IMU1,32.6219512195122,12.439024390243903,4.024390243902439,2.126953125,0.3642578125,-1.1572265625
304,0.686,IMU2,31.89024390243903,13.597560975609758,3.7195121951219514,2.1416015625,0.330078125,-1.1474609375
305,0.696,IMU0,27.195121951219516,14.02439024390244,-2.5,2.134765625,0.416015625,-1.1015625
306,0.696,IMU1,29.146341463414636,12.926829268292684,-2.0121951219512195,2.1064453125,0.447265625,-1.1142578125
307,0.696,IMU2,27.743902439024392,14.329268292682928,-2.3170731707317076,2.1083984375,0.3916015625,-1.0859375
308,0.706,IMU0,30.54878048780488,13.78048780487805,5.121951219512195,2.04296875,0.5,-1.0546875
309,0.706,IMU1,32.80487804878049,13.04878048780488,5.365853658536586,2.025390625,0.5302734375,-1.0390625
310,0.706,IMU2,31.219512195121954,13.963414634146343,4.634146341463415,2.044921875,0.4970703125,-1.068359375
311,0.716,IMU0,34.57317073170732,13.963414634146343,18.170731707317074,2.0107421875,0.474609375,-1.0595703125
312,0.716,IMU1,36.82926829268293,13.475609756097562,18.414634146341466,1.9970703125,0.5107421875,-1.0556640625
313,0.716,IMU2,35.426829268292686,14.390243902439027,17.743902439024392,2.025390625,0.48828125,-1.04296875
314,0.726,IMU0,34.451219512195124,12.439024390243903,21.707317073170735,1.9287109375,0.4345703125,-0.974609375
315,0.726,IMU1,36.890243902439025,12.073170731707318,22.134146341463417,1.8896484375,0.4580078125,-0.9912109375
316,0.726,IMU2,35.609756097560975,12.865853658536587,21.76829268292683,1.8876953125,0.4150390625,-0.9912109375
317,0.736,IMU0,36.646341463414636,11.829268292682928,22.378048780487806,1.8505859375,0.3935546875,-0.9462890625
318,0.736,IMU1,39.69512195121951,11.036585365853659,22.682926829268293,1.83203125,0.4267578125,-0.94921875
319,0.736,IMU2,37.25609756097561,12.073170731707318,22.439024390243905,1.8505859375,0.404296875,-0.970703125
320,0.746,IMU0,38.47560975609756,6.707317073170732,20.0609756097561,1.845703125,0.431640625,-0.8828125
321,0.746,IMU1,40.97560975609756,6.402439024390245,20.54878048780488,1.8095703125,0.455078125,-0.865234375
322,0.746,IMU2,38.170731707317074,8.048780487804878,20.365853658536587,1.806640625,0.421875,-0.8701171875
323,0.756,IMU0,43.35365853658537,-1.402439024390244,20.975609756097562,1.845703125,0.474609375,-0.8828125
324,0.756,IMU1,45.91463414634147,-1.707317073170732,21.402439024390247,1.8232421875,0.51171875,-0.869140625
325,0.756,IMU2,44.207317073170735,-0.6707317073170732,21.158536585365855,1.8291015625,0.486328125,-0.880859375
326,0.766,IMU0,49.024390243902445,-5.914634146341464,22.926829268292686,1.75,0.462890625,-0.869140625
327,0.766,IMU1,51.15853658536586,-6.646341463414635,23.170731707317074,1.7333984375,0.4970703125,-0.9033203125
328,0.766,IMU2,50.00000000000001,-5.731707317073171,22.682926829268293,1.7578125,0.474609375,-0.9228515625
329,0.776,IMU0,54.024390243902445,-5.7926829268292686,27.5609756097561,1.7177734375,0.447265625,-0.8876953125
330,0.776,IMU1,55.97560975609757,-6.585365853658537,27.865853658536587,1.6923828125,0.4765625,-0.8935546875
331,0.776,IMU2,54.75609756097561,-5.426829268292684,27.378048780487806,1.7080078125,0.451171875,-0.8828125
332,0.786,IMU0,57.31707317073171,-5.2439024390243905,31.52439024390244,1.677734375,0.4853515625,-0.8681640625
333,0.786,IMU1,59.69512195121952,-5.731707317073171,31.82926829268293,1.65234375,0.5078125,-0.84765625
334,0.786,IMU2,58.17073170731708,-4.817073170731708,31.402439024390247,1.6640625,0.4794921875,-0.84375
335,0.796,IMU0,62.01219512195122,-1.707317073170732,36.34146341463415,1.66796875,0.4013671875,-0.8935546875
336,0.796,IMU1,64.63414634146342,-1.9512195121951221,36.768292682926834,1.63671875,0.4287109375,-0.90234375
337,0.796,IMU2,62.926829268292686,-0.9756097560975611,36.463414634146346,1.6416015625,0.40234375,-0.90234375
338,0.806,IMU0,62.25609756097562,0.6707317073170732,33.78048780487805,1.609375,0.3876953125,-0.9345703125
339,0.806,IMU1,64.69512195121952,0.3658536585365854,34.32926829268293,1.5927734375,0.41796875,-0.9404296875
340,0.806,IMU2,63.71951219512196,1.2195121951219514,33.90243902439025,1.603515625,0.3916015625,-0.9267578125
341,0.816,IMU0,64.45121951219512,0.24390243902439027,35.73170731707317,1.5966796875,0.37890625,-0.8857421875
342,0.816,IMU1,66.82926829268293,0.48780487804878053,36.28048780487805,1.5703125,0.40234375,-0.8623046875
343,0.816,IMU2,65.97560975609757,1.0975609756097562,35.91463414634147,1.57421875,0.376953125,-0.84765625
344,0.826,IMU0,64.08536585365854,0.06097560975609757,35.85365853658537,1.63671875,0.4267578125,-0.9072265625
345,0.826,IMU1,66.64634146341464,-0.1829268292682927,36.40243902439025,1.59765625,0.447265625,-0.9169921875
346,0.826,IMU2,65.85365853658537,0.6097560975609757,35.97560975609756,1.6025390625,0.423828125,-0.9169921875
347,0.836,IMU0,65.3048780487805,1.8902439024390245,36.646341463414636,1.6494140625,0.408203125,-0.9580078125
348,0.836,IMU1,67.8048780487805,1.7682926829268295,37.07317073170732,1.6396484375,0.443359375,-0.9384765625
349,0.836,IMU2,67.07317073170732,2.1951219512195124,36.768292682926834,1.65234375,0.4130859375,-0.9287109375
350,0.846,IMU0,65.91463414634147,-0.7926829268292683,40.79268292682927,1.6533203125,0.4013671875,-0.853515625
351,0.846,IMU1,68.29268292682927,-0.7317073170731708,41.21951219512196,1.623046875,0.4296875,-0.8623046875
352,0.846,IMU2,67.19512195121952,-0.24390243902439027,40.97560975609756,1.630859375,0.4013671875,-0.8466796875
353,0.856,IMU0,60.79268292682927,-2.073170731707317,40.426829268292686,1.6943359375,0.39453125,-0.8818359375
354,0.856,IMU1,63.47560975609757,-2.378048780487805,40.85365853658537,1.6669921875,0.41796875,-0.8701171875
355,0.856,IMU2,62.07317073170732,-1.6463414634146343,40.60975609756098,1.6806640625,0.3935546875,-0.8603515625
356,0.866,IMU0,56.15853658536586,0.6097560975609757,45.1829268292683,1.6279296875,0.4169921875,-0.921875
357,0.866,IMU1,58.71951219512196,0.0,45.426829268292686,1.6142578125,0.447265625,-0.9130859375
358,0.866,IMU2,57.804878048780495,0.9756097560975611,45.243902439024396,1.6298828125,0.4169921875,-0.900390625
359,0.876,IMU0,52.50000000000001,2.7439024390243905,50.60975609756098,1.6279296875,0.4013671875,-0.876953125
360,0.876,IMU1,55.243902439024396,2.5609756097560976,50.91463414634147,1.6064453125,0.4228515625,-0.859375
361,0.876,IMU2,53.59756097560976,3.658536585365854,50.73170731707317,1.6171875,0.4033203125,-0.8515625
362,0.886,IMU0,48.04878048780488,2.378048780487805,51.03658536585366,1.755859375,0.435546875,-0.94140625
363,0.886,IMU1,50.1219512195122,2.25609756097561,51.463414634146346,1.73046875,0.462890625,-0.9326171875
364,0.886,IMU2,49.085365853658544,3.1707317073170733,51.03658536585366,1.748046875,0.4365234375,-0.93359375
365,0.896,IMU0,43.963414634146346,4.024390243902439,49.87804878048781,1.80078125,0.42578125,-0.9462890625
366,0.896,IMU1,46.09756097560976,3.658536585365854,50.304878048780495,1.763671875,0.451171875,-0.9423828125
367,0.896,IMU2,45.36585365853659,4.451219512195122,49.75609756097561,1.76953125,0.4267578125,-0.916015625
368,0.906,IMU0,40.0609756097561,4.939024390243903,46.524390243902445,1.876953125,0.4521484375,-0.9775390625
369,0.906,IMU1,41.768292682926834,4.390243902439025,46.951219512195124,1.8525390625,0.4833984375,-0.95703125
370,0.906,IMU2,40.91463414634147,5.182926829268293,46.34146341463415,1.8505859375,0.4521484375,-0.9658203125
371,0.916,IMU0,34.63414634146342,3.658536585365854,42.50000000000001,1.8857421875,0.4775390625,-0.91015625
372,0.916,IMU1,37.01219512195122,3.1707317073170733,42.804878048780495,1.84375,0.5029296875,-0.9091796875
373,0.916,IMU2,35.79268292682927,4.024390243902439,42.25609756097561,1.8564453125,0.48046875,-0.8974609375
374,0.926,IMU0,31.76829268292683,3.963414634146342,39.57317073170732,1.9912109375,0.4609375,-1.021484375
375,0.926,IMU1,34.268292682926834,3.1707317073170733,39.87804878048781,1.9619140625,0.4912109375,-1.0146484375
376,0.926,IMU2,32.743902439024396,4.329268292682928,39.32926829268293,1.953125,0.4580078125,-1.0068359375
377,0.936,IMU0,28.414634146341466,3.2926829268292686,32.19512195121951,1.9404296875,0.4287109375,-1.05859375
378,0.936,IMU1,30.487804878048784,2.804878048780488,32.5,1.9052734375,0.4599609375,-1.03515625
379,0.936,IMU2,29.207317073170735,4.024390243902439,31.951219512195124,1.9052734375,0.43359375,-1.0390625
380,0.946,IMU0,26.82926829268293,8.963414634146343,24.634146341463417,2.0068359375,0.458984375,-1.0546875
381,0.946,IMU1,29.146341463414636,8.292682926829269,25.0609756097561,1.9658203125,0.48828125,-1.0283203125
382,0.946,IMU2,27.743902439024392,9.573170731707318,24.390243902439025,1.974609375,0.4599609375,-1.060546875
383,0.956,IMU0,25.0609756097561,17.31707317073171,16.219512195121954,2.0078125,0.4267578125,-1.0712890625
384,0.956,IMU1,27.5609756097561,16.34146341463415,16.585365853658537,1.970703125,0.453125,-1.0556640625
385,0.956,IMU2,26.09756097560976,17.682926829268293,16.03658536585366,1.966796875,0.44140625,-1.0302734375
386,0.966,IMU0,23.04878048780488,25.60975609756098,7.134146341463415,2.1279296875,0.5068359375,-1.1259765625
387,0.966,IMU1,25.30487804878049,24.75609756097561,7.682926829268293,2.087890625,0.54296875,-1.1162109375
388,0.966,IMU2,23.84146341463415,26.28048780487805,6.951219512195123,2.0908203125,0.4892578125,-1.1240234375
389,0.976,IMU0,22.500000000000004,34.268292682926834,-0.7926829268292683,2.130859375,0.4580078125,-1.1513671875
390,0.976,IMU1,24.26829268292683,33.109756097560975,-0.12195121951219513,2.078125,0.4833984375,-1.1416015625
391,0.976,IMU2,23.170731707317074,34.024390243902445,-1.0975609756097562,2.0908203125,0.46484375,-1.1455078125
392,0.986,IMU0,19.939024390243905,36.34146341463415,-9.939024390243903,2.2236328125,0.587890625,-1.1875
393,0.986,IMU1,21.463414634146343,35.487804878048784,-9.390243902439025,2.1904296875,0.6220703125,-1.19921875
394,0.986,IMU2,20.853658536585368,36.58536585365854,-9.878048780487806,2.19140625,0.5791015625,-1.1904296875
395,0.996,IMU0,21.707317073170735,31.82926829268293,-10.30487804878049,2.3134765625,0.6640625,-1.1884765625
396,0.996,IMU1,23.04878048780488,31.09756097560976,-9.695121951219512,2.2734375,0.6923828125,-1.189453125
397,0.996,IMU2,22.682926829268293,32.31707317073171,-10.30487804878049,2.296875,0.650390625,-1.2314453125
398,1.006,IMU0,24.390243902439025,29.26829268292683,-9.573170731707318,2.3330078125,0.6259765625,-1.2763671875
399,1.006,IMU1,26.52439024390244,28.53658536585366,-9.085365853658537,2.2861328125,0.6513671875,-1.271484375
400,1.006,IMU2,24.695121951219516,29.87804878048781,-9.390243902439025,2.3251953125,0.6357421875,-1.26171875
401,1.016,IMU0,26.09756097560976,27.926829268292686,-11.219512195121952,2.3671875,0.59375,-1.328125
402,1.016,IMU1,28.414634146341466,26.82926829268293,-10.792682926829269,2.33984375,0.6318359375,-1.337890625
403,1.016,IMU2,26.58536585365854,28.53658536585366,-10.792682926829269,2.349609375,0.5908203125,-1.2861328125
404,1.026,IMU0,27.378048780487806,28.53658536585366,-10.914634146341465,2.3828125,0.5615234375,-1.35546875
405,1.026,IMU1,29.81707317073171,27.621951219512198,-10.426829268292684,2.3505859375,0.6015625,-1.3525390625
406,1.026,IMU2,28.353658536585368,29.146341463414636,-10.914634146341465,2.3486328125,0.552734375,-1.35546875
407,1.036,IMU0,25.000000000000004,30.121951219512198,-16.890243902439025,2.392578125,0.4541015625,-1.310546875
408,1.036,IMU1,27.073170731707318,29.451219512195124,-16.219512195121954,2.3427734375,0.4873046875,-1.2958984375
409,1.036,IMU2,25.54878048780488,30.975609756097565,-17.439024390243905,2.337890625,0.42578125,-1.3427734375
410,1.046,IMU0,22.80487804878049,30.914634146341466,-23.53658536585366,2.3330078125,0.5927734375,-1.2685546875
411,1.046,IMU1,24.207317073170735,30.121951219512198,-23.04878048780488,2.298828125,0.625,-1.2685546875
412,1.046,IMU2,24.207317073170735,31.158536585365855,-23.353658536585368,2.3369140625,0.59375,-1.3046875
413,1.056,IMU0,26.402439024390247,27.439024390243905,-14.756097560975611,2.4052734375,0.59375,-1.236328125
414,1.056,IMU1,28.170731707317074,27.012195121951223,-14.329268292682928,2.369140625,0.630859375,-1.2392578125
415,1.056,IMU2,27.5609756097561,27.439024390243905,-14.451219512195124,2.419921875,0.580078125,-1.2314453125
416,1.066,IMU0,27.134146341463417,19.02439024390244,-13.719512195121952,2.3896484375,0.5087890625,-1.267578125
417,1.066,IMU1,29.207317073170735,18.170731707317074,-13.78048780487805,2.34375,0.544921875,-1.2705078125
418,1.066,IMU2,28.414634146341466,19.085365853658537,-14.02439024390244,2.3720703125,0.5029296875,-1.255859375
419,1.076,IMU0,23.353658536585368,15.853658536585368,-22.80487804878049,2.3193359375,0.4697265625,-1.326171875
420,1.076,IMU1,25.0609756097561,15.121951219512196,-22.25609756097561,2.2802734375,0.5048828125,-1.3203125
421,1.076,IMU2,24.451219512195124,16.219512195121954,-23.170731707317074,2.2724609375,0.4951171875,-1.2919921875
422,1.086,IMU0,22.134146341463417,17.926829268292686,-27.682926829268297,2.283203125,0.4921875,-1.3349609375
423,1.086,IMU1,23.59756097560976,17.5,-27.439024390243905,2.2578125,0.5361328125,-1.3076171875
424,1.086,IMU2,23.29268292682927,18.84146341463415,-27.80487804878049,2.2470703125,0.4970703125,-1.3154296875
425,1.096,IMU0,19.390243902439025,19.695121951219512,-32.80487804878049,2.3251953125,0.4306640625,-1.3388671875
426,1.096,IMU1,21.03658536585366,19.02439024390244,-32.926829268292686,2.291015625,0.4677734375,-1.3291015625
427,1.096,IMU2,20.182926829268293,20.426829268292686,-33.109756097560975,2.2744140625,0.404296875,-1.298828125
428,1.106,IMU0,11.585365853658537,19.75609756097561,-45.97560975609756,2.3486328125,0.37109375,-1.3095703125
429,1.106,IMU1,12.378048780487806,18.475609756097562,-46.40243902439025,2.287109375,0.4033203125,-1.2802734375
430,1.106,IMU2,11.829268292682928,19.878048780487806,-46.524390243902445,2.27734375,0.359375,-1.2861328125
431,1.116,IMU0,6.585365853658537,15.54878048780488,-55.73170731707317,2.3232421875,0.3671875,-1.267578125
432,1.116,IMU1,7.01219512195122,14.329268292682928,-55.85365853658537,2.2646484375,0.373046875,-1.2607421875
433,1.116,IMU2,7.439024390243903,16.158536585365855,-56.28048780487806,2.26953125,0.34375,-1.2646484375
434,1.126,IMU0,2.804878048780488,13.231707317073171,-59.51219512195122,2.263671875,0.498046875,-1.314453125
435,1.126,IMU1,4.2682926829268295,11.829268292682928,-57.865853658536594,2.220703125,0.4931640625,-1.3076171875
436,1.126,IMU2,4.573170731707317,13.353658536585368,-58.84146341463415,2.2509765625,0.466796875,-1.30859375
437,1.136,IMU0,3.1707317073170733,14.329268292682928,-56.646341463414636,2.2978515625,0.3330078125,-1.3271484375
438,1.136,IMU1,3.5975609756097566,13.04878048780488,-57.13414634146342,2.2177734375,0.3349609375,-1.32421875
439,1.136,IMU2,3.2926829268292686,14.390243902439027,-57.50000000000001,2.21875,0.30078125,-1.2978515625
440,1.146,IMU0,-5.121951219512195,18.475609756097562,-72.37804878048782,2.2998046875,0.3896484375,-1.34765625
441,1.146,IMU1,-4.573170731707317,17.682926829268293,-73.17073170731707,2.2294921875,0.4248046875,-1.33984375
442,1.146,IMU2,-4.878048780487806,19.02439024390244,-73.53658536585367,2.240234375,0.3876953125,-1.326171875
443,1.156,IMU0,-9.451219512195122,23.10975609756098,-79.69512195121952,2.2587890625,0.4345703125,-1.3115234375
444,1.156,IMU1,-8.353658536585366,21.82926829268293,-79.69512195121952,2.1962890625,0.4521484375,-1.32421875
445,1.156,IMU2,-9.451219512195122,23.719512195121954,-80.1219512195122,2.2119140625,0.423828125,-1.3125
446,1.166,IMU0,-10.914634146341465,24.878048780487806,-80.85365853658537,2.2001953125,0.443359375,-1.3203125
447,1.166,IMU1,-9.817073170731708,23.78048780487805,-80.42682926829269,2.15234375,0.466796875,-1.33203125
448,1.166,IMU2,-10.731707317073171,25.48780487804878,-80.97560975609757,2.1669921875,0.4375,-1.3291015625
449,1.176,IMU0,-14.146341463414636,25.121951219512198,-82.37804878048782,2.1728515625,0.439453125,-1.3271484375
450,1.176,IMU1,-13.78048780487805,24.146341463414636,-81.76829268292684,2.130859375,0.4560546875,-1.3349609375
451,1.176,IMU2,-14.634146341463415,25.853658536585368,-82.31707317073172,2.1494140625,0.427734375,-1.3291015625
452,1.186,IMU0,-20.54878048780488,24.32926829268293,-83.84146341463415,2.10546875,0.3203125,-1.306640625
453,1.186,IMU1,-19.390243902439025,23.29268292682927,-83.17073170731707,2.07421875,0.333984375,-1.3154296875
454,1.186,IMU2,-20.0609756097561,24.81707317073171,-83.71951219512196,2.0751953125,0.3076171875,-1.287109375
455,1.196,IMU0,-29.451219512195124,22.378048780487806,-90.85365853658537,1.984375,0.3486328125,-1.2861328125
456,1.196,IMU1,-29.26829268292683,21.28048780487805,-90.3658536585366,1.951171875,0.3876953125,-1.2763671875
457,1.196,IMU2,-29.634146341463417,23.29268292682927,-91.09756097560977,1.9580078125,0.3583984375,-1.2470703125
458,1.206,IMU0,-36.524390243902445,26.09756097560976,-92.5609756097561,1.806640625,0.3486328125,-1.271484375
459,1.206,IMU1,-35.1219512195122,24.451219512195124,-92.19512195121952,1.7861328125,0.36328125,-1.2763671875
460,1.206,IMU2,-35.79268292682927,26.34146341463415,-92.92682926829269,1.7978515625,0.337890625,-1.265625
461,1.216,IMU0,-40.54878048780488,31.52439024390244,-94.02439024390245,1.6611328125,0.23828125,-1.228515625
462,1.216,IMU1,-39.268292682926834,29.939024390243905,-93.53658536585367,1.625,0.265625,-1.224609375
463,1.216,IMU2,-40.426829268292686,32.25609756097561,-94.20731707317074,1.62890625,0.2412109375,-1.2177734375
464,1.226,IMU0,-40.487804878048784,36.28048780487805,-86.89024390243904,1.4658203125,0.240234375,-1.146484375
465,1.226,IMU1,-38.963414634146346,34.57317073170732,-86.64634146341464,1.451171875,0.265625,-1.158203125
466,1.226,IMU2,-39.93902439024391,36.40243902439025,-87.37804878048782,1.466796875,0.2421875,-1.16015625
467,1.236,IMU0,-38.10975609756098,39.207317073170735,-82.5609756097561,1.390625,0.1572265625,-1.1064453125
468,1.236,IMU1,-36.463414634146346,37.37804878048781,-82.13414634146342,1.3642578125,0.1787109375,-1.1025390625
469,1.236,IMU2,-37.5,39.451219512195124,-82.92682926829269,1.3662109375,0.15625,-1.1005859375
470,1.246,IMU0,-37.31707317073171,37.31707317073171,-80.79268292682927,1.330078125,0.107421875,-1.1630859375
471,1.246,IMU1,-35.243902439024396,35.243902439024396,-80.3658536585366,1.31640625,0.1328125,-1.13671875
472,1.246,IMU2,-36.28048780487805,37.6219512195122,-81.09756097560977,1.314453125,0.1103515625,-1.1259765625
473,1.256,IMU0,-39.32926829268293,33.04878048780488,-84.51219512195122,1.21875,0.0595703125,-1.0517578125
474,1.256,IMU1,-37.926829268292686,30.914634146341466,-83.96341463414635,1.193359375,0.080078125,-1.05078125
475,1.256,IMU2,-38.59756097560976,33.29268292682927,-84.75609756097562,1.193359375,0.0576171875,-1.0498046875
476,1.266,IMU0,-39.024390243902445,30.914634146341466,-86.64634146341464,1.056640625,0.0126953125,-1.021484375
477,1.266,IMU1,-37.86585365853659,29.08536585365854,-86.15853658536587,1.0419921875,0.03515625,-1.0146484375
478,1.266,IMU2,-38.78048780487805,31.158536585365855,-86.82926829268294,1.03125,0.013671875,-1.00390625
479,1.276,IMU0,-40.670731707317074,29.573170731707318,-88.96341463414635,0.88671875,0.03125,-0.9189453125
480,1.276,IMU1,-39.146341463414636,28.04878048780488,-88.41463414634147,0.8720703125,0.0498046875,-0.9052734375
481,1.276,IMU2,-40.1219512195122,30.121951219512198,-89.14634146341464,0.8671875,0.03125,-0.91015625
482,1.286,IMU0,-40.54878048780488,34.390243902439025,-88.17073170731707,0.7470703125,0.0224609375,-0.8876953125
483,1.286,IMU1,-39.32926829268293,32.5609756097561,-87.6829268292683,0.7412109375,0.0439453125,-0.888671875
484,1.286,IMU2,-39.75609756097561,34.81707317073171,-88.35365853658537,0.7392578125,0.0205078125,-0.890625
485,1.296,IMU0,-39.024390243902445,39.63414634146342,-86.03658536585367,0.6484375,-0.0185546875,-0.8173828125
486,1.296,IMU1,-37.6829268292683,37.6219512195122,-85.60975609756099,0.640625,-0.0048828125,-0.83203125
487,1.296,IMU2,-38.41463414634147,40.1219512195122,-86.15853658536587,0.6298828125,-0.017578125,-0.8251953125
488,1.306,IMU0,-38.29268292682927,42.6219512195122,-85.73170731707317,0.6640625,-0.021484375,-0.7900390625
489,1.306,IMU1,-37.31707317073171,40.85365853658537,-85.2439024390244,0.642578125,-0.0205078125,-0.787109375
490,1.306,IMU2,-38.29268292682927,43.170731707317074,-85.85365853658537,0.646484375,-0.015625,-0.8017578125
491,1.316,IMU0,-36.03658536585366,44.57317073170732,-81.70731707317074,0.6943359375,-0.0224609375,-0.8017578125
492,1.316,IMU1,-35.1219512195122,43.10975609756098,-81.28048780487805,0.689453125,-0.01171875,-0.7783203125
493,1.316,IMU2,-35.54878048780488,45.1829268292683,-81.89024390243902,0.703125,-0.017578125,-0.79296875
494,1.326,IMU0,-33.84146341463415,45.97560975609756,-75.97560975609757,0.6875,-0.0302734375,-0.806640625
495,1.326,IMU1,-32.6829268292683,44.69512195121952,-75.60975609756098,0.69140625,-0.0087890625,-0.8212890625
496,1.326,IMU2,-32.926829268292686,46.524390243902445,-75.97560975609757,0.69921875,-0.04296875,-0.798828125
497,1.336,IMU0,-29.512195121951223,45.1829268292683,-66.64634146341464,0.6630859375,-0.119140625,-0.77734375
498,1.336,IMU1,-28.10975609756098,43.963414634146346,-66.40243902439025,0.666015625,-0.1025390625,-0.78125
499,1.336,IMU2,-28.84146341463415,45.670731707317074,-66.64634146341464,0.654296875,-0.125,-0.73828125
500,1.346,IMU0,-27.682926829268297,44.451219512195124,-61.40243902439025,0.642578125,-0.15625,-0.7451171875
501,1.346,IMU1,-26.09756097560976,43.04878048780488,-61.15853658536586,0.626953125,-0.1494140625,-0.7294921875
502,1.346,IMU2,-27.25609756097561,44.87804878048781,-61.646341463414636,0.62109375,-0.15625,-0.7373046875
503,1.356,IMU0,-27.073170731707318,44.024390243902445,-57.926829268292686,0.65234375,-0.09375,-0.7578125
504,1.356,IMU1,-25.914634146341466,42.6219512195122,-57.560975609756106,0.642578125,-0.087890625,-0.767578125
505,1.356,IMU2,-26.463414634146343,44.451219512195124,-58.04878048780488,0.65625,-0.0947265625,-0.7724609375
506,1.366,IMU0,-26.34146341463415,44.51219512195122,-55.0609756097561,0.669921875,-0.173828125,-0.7978515625
507,1.366,IMU1,-25.121951219512198,43.04878048780488,-54.63414634146342,0.6669921875,-0.154296875,-0.779296875
508,1.366,IMU2,-25.54878048780488,44.87804878048781,-55.243902439024396,0.6552734375,-0.17578125,-0.7763671875
509,1.376,IMU0,-24.878048780487806,43.47560975609756,-53.47560975609757,0.7236328125,-0.158203125,-0.7646484375
510,1.376,IMU1,-24.207317073170735,42.01219512195122,-53.17073170731708,0.716796875,-0.1416015625,-0.7666015625
511,1.376,IMU2,-23.78048780487805,43.65853658536586,-53.59756097560976,0.71484375,-0.154296875,-0.73046875
512,1.386,IMU0,-23.353658536585368,41.34146341463415,-48.23170731707317,0.7998046875,-0.125,-0.7900390625
513,1.386,IMU1,-22.500000000000004,39.63414634146342,-47.804878048780495,0.78515625,-0.119140625,-0.7783203125
514,1.386,IMU2,-22.743902439024392,41.58536585365854,-48.47560975609756,0.8037109375,-0.115234375,-0.8369140625
515,1.396,IMU0,-22.195121951219512,41.890243902439025,-44.75609756097561,0.8916015625,-0.2255859375,-0.8896484375
516,1.396,IMU1,-21.402439024390247,40.36585365853659,-44.390243902439025,0.8896484375,-0.2060546875,-0.884765625
517,1.396,IMU2,-21.219512195121954,42.07317073170732,-44.93902439024391,0.8720703125,-0.2490234375,-0.8671875
518,1.406,IMU0,-23.231707317073173,39.69512195121951,-44.57317073170732,1.06640625,-0.2470703125,-0.8876953125
519,1.406,IMU1,-22.439024390243905,38.10975609756098,-44.08536585365854,1.0400390625,-0.234375,-0.888671875
520,1.406,IMU2,-23.04878048780488,39.57317073170732,-44.87804878048781,1.0634765625,-0.2265625,-0.8779296875
521,1.416,IMU0,-24.085365853658537,35.670731707317074,-42.31707317073171,1.1845703125,-0.216796875,-1.013671875
522,1.416,IMU1,-23.59756097560976,34.024390243902445,-42.07317073170732,1.185546875,-0.1875,-1.0
523,1.416,IMU2,-23.29268292682927,35.426829268292686,-42.25609756097561,1.1767578125,-0.224609375,-0.9755859375
524,1.426,IMU0,-23.84146341463415,30.243902439024392,-39.08536585365854,1.3291015625,-0.2646484375,-0.99609375
525,1.426,IMU1,-22.31707317073171,28.84146341463415,-38.84146341463415,1.310546875,-0.2451171875,-1.001953125
526,1.426,IMU2,-22.865853658536587,30.487804878048784,-39.57317073170732,1.3076171875,-0.2880859375,-1.0166015625
527,1.436,IMU0,-25.365853658536587,23.414634146341466,-39.268292682926834,1.3173828125,-0.255859375,-1.015625
528,1.436,IMU1,-23.719512195121954,21.82926829268293,-39.08536585365854,1.3056640625,-0.2392578125,-1.017578125
529,1.436,IMU2,-24.32926829268293,23.658536585365855,-39.51219512195122,1.3154296875,-0.2587890625,-1.0263671875
530,1.446,IMU0,-25.182926829268293,20.54878048780488,-38.04878048780488,1.2529296875,-0.26171875,-1.060546875
531,1.446,IMU1,-23.29268292682927,18.78048780487805,-37.743902439024396,1.2490234375,-0.2353515625,-1.05078125
532,1.446,IMU2,-24.085365853658537,20.48780487804878,-38.41463414634147,1.2197265625,-0.2607421875,-1.0166015625
533,1.456,IMU0,-22.439024390243905,20.60975609756098,-31.09756097560976,1.1904296875,-0.1708984375,-1.005859375
534,1.456,IMU1,-20.243902439024392,19.085365853658537,-30.975609756097565,1.17578125,-0.158203125,-0.9970703125
535,1.456,IMU2,-21.402439024390247,20.975609756097562,-31.219512195121954,1.216796875,-0.162109375,-0.990234375
536,1.466,IMU0,-19.939024390243905,22.25609756097561,-23.29268292682927,1.26953125,-0.1865234375,-1.1240234375
537,1.466,IMU1,-17.5609756097561,20.365853658536587,-23.170731707317074,1.2666015625,-0.1630859375,-1.1162109375
538,1.466,IMU2,-18.170731707317074,21.890243902439025,-23.29268292682927,1.2421875,-0.212890625,-1.1279296875
539,1.476,IMU0,-17.378048780487806,20.975609756097562,-19.390243902439025,1.4130859375,-0.169921875,-1.1611328125
540,1.476,IMU1,-15.487804878048783,19.390243902439025,-19.146341463414636,1.3955078125,-0.1484375,-1.1474609375
541,1.476,IMU2,-16.646341463414636,21.52439024390244,-19.695121951219512,1.4091796875,-0.2119140625,-1.2041015625
542,1.486,IMU0,-16.158536585365855,18.475609756097562,-18.29268292682927,1.4306640625,-0.177734375,-1.2587890625
543,1.486,IMU1,-14.26829268292683,17.25609756097561,-18.10975609756098,1.4130859375,-0.158203125,-1.2294921875
544,1.486,IMU2,-15.79268292682927,19.32926829268293,-18.53658536585366,1.42578125,-0.1484375,-1.2392578125
545,1.496,IMU0,-15.426829268292684,19.390243902439025,-15.30487804878049,1.484375,-0.208984375,-1.333984375
546,1.496,IMU1,-14.146341463414636,18.414634146341466,-15.121951219512196,1.4716796875,-0.189453125,-1.3212890625
547,1.496,IMU2,-14.634146341463415,20.182926829268293,-15.365853658536587,1.4814453125,-0.19921875,-1.26171875
548,1.506,IMU0,-15.426829268292684,15.975609756097562,-17.31707317073171,1.607421875,-0.33984375,-1.3681640625
549,1.506,IMU1,-14.146341463414636,15.000000000000002,-17.012195121951223,1.5810546875,-0.3154296875,-1.361328125
550,1.506,IMU2,-14.756097560975611,16.76829268292683,-18.29268292682927,1.546875,-0.333984375,-1.3515625
551,1.516,IMU0,-18.29268292682927,12.01219512195122,-22.012195121951223,1.6171875,-0.21875,-1.416015625
552,1.516,IMU1,-16.52439024390244,10.548780487804878,-21.890243902439025,1.6005859375,-0.1845703125,-1.4267578125
553,1.516,IMU2,-17.378048780487806,12.80487804878049,-22.500000000000004,1.578125,-0.263671875,-1.46875
554,1.526,IMU0,-20.0,12.987804878048781,-22.98780487804878,1.5830078125,-0.2294921875,-1.4384765625
555,1.526,IMU1,-18.10975609756098,11.646341463414634,-22.80487804878049,1.560546875,-0.2177734375,-1.4306640625
556,1.526,IMU2,-19.512195121951223,13.719512195121952,-23.719512195121954,1.548828125,-0.2353515625,-1.5029296875
557,1.536,IMU0,-18.902439024390244,11.158536585365855,-21.951219512195124,1.5244140625,-0.1982421875,-1.4814453125
558,1.536,IMU1,-17.134146341463417,9.756097560975611,-21.890243902439025,1.5107421875,-0.1875,-1.4560546875
559,1.536,IMU2,-18.10975609756098,11.829268292682928,-21.951219512195124,1.52734375,-0.189453125,-1.4365234375
560,1.546,IMU0,-14.26829268292683,10.670731707317074,-11.28048780487805,1.482421875,-0.1064453125,-1.505859375
561,1.546,IMU1,-12.500000000000002,9.634146341463415,-11.158536585365855,1.46875,-0.0859375,-1.5
562,1.546,IMU2,-12.682926829268293,11.036585365853659,-11.036585365853659,1.498046875,-0.123046875,-1.4931640625
563,1.556,IMU0,-11.158536585365855,11.707317073170733,-2.9268292682926833,1.5263671875,-0.0166015625,-1.5419921875
564,1.556,IMU1,-9.146341463414634,10.853658536585368,-2.804878048780488,1.505859375,0.0009765625,-1.5673828125
565,1.556,IMU2,-10.060975609756099,12.378048780487806,-2.8658536585365857,1.537109375,-0.033203125,-1.5703125
566,1.566,IMU0,-15.853658536585368,10.609756097560977,-3.9024390243902443,1.5810546875,-0.1181640625,-1.5654296875
567,1.566,IMU1,-14.451219512195124,9.756097560975611,-3.658536585365854,1.5458984375,-0.1083984375,-1.5712890625
568,1.566,IMU2,-15.060975609756099,10.548780487804878,-4.939024390243903,1.5712890625,-0.099609375,-1.529296875
569,1.576,IMU0,-20.0,4.695121951219512,-6.52439024390244,1.482421875,-0.056640625,-1.517578125
570,1.576,IMU1,-17.5,3.7195121951219514,-6.463414634146342,1.4609375,-0.0380859375,-1.5380859375
571,1.576,IMU2,-18.414634146341466,5.182926829268293,-6.7682926829268295,1.4697265625,-0.041015625,-1.46484375
572,1.586,IMU0,-22.621951219512198,1.2195121951219514,-4.878048780487806,1.390625,-0.103515625,-1.5
573,1.586,IMU1,-19.939024390243905,-0.3658536585365854,-4.878048780487806,1.3740234375,-0.078125,-1.4560546875
574,1.586,IMU2,-21.707317073170735,1.0365853658536586,-5.548780487804878,1.3662109375,-0.0712890625,-1.4130859375
575,1.596,IMU0,-24.939024390243905,2.804878048780488,-6.463414634146342,1.3447265625,-0.107421875,-1.48828125
576,1.596,IMU1,-22.439024390243905,0.853658536585366,-6.402439024390245,1.3291015625,-0.0791015625,-1.48828125
577,1.596,IMU2,-23.53658536585366,2.5,-7.195121951219513,1.2958984375,-0.1123046875,-1.4599609375
578,1.606,IMU0,-25.914634146341466,2.9268292682926833,-4.939024390243903,1.275390625,0.01953125,-1.3759765625
579,1.606,IMU1,-24.146341463414636,0.9146341463414634,-4.939024390243903,1.271484375,0.044921875,-1.3984375
580,1.606,IMU2,-24.81707317073171,2.7439024390243905,-4.451219512195122,1.2294921875,-0.0361328125,-1.408203125
581,1.616,IMU0,-27.80487804878049,6.036585365853659,-0.06097560975609757,1.1943359375,-0.1220703125,-1.328125
582,1.616,IMU1,-25.000000000000004,4.390243902439025,0.06097560975609757,1.1640625,-0.1005859375,-1.306640625
583,1.616,IMU2,-27.134146341463417,6.951219512195123,-1.5853658536585367,1.138671875,-0.158203125,-1.3515625
584,1.626,IMU0,-34.93902439024391,12.80487804878049,-9.817073170731708,1.1103515625,-0.1298828125,-1.3291015625
585,1.626,IMU1,-32.25609756097561,11.219512195121952,-9.695121951219512,1.0830078125,-0.1142578125,-1.2890625
586,1.626,IMU2,-34.146341463414636,13.29268292682927,-11.097560975609756,1.0830078125,-0.123046875,-1.3291015625
587,1.636,IMU0,-41.768292682926834,16.52439024390244,-15.914634146341465,1.150390625,-0.0068359375,-1.318359375
588,1.636,IMU1,-39.451219512195124,15.182926829268293,-15.914634146341465,1.12890625,0.0068359375,-1.310546875
589,1.636,IMU2,-41.34146341463415,17.25609756097561,-16.52439024390244,1.1552734375,0.0009765625,-1.32421875
590,1.646,IMU0,-41.463414634146346,18.170731707317074,-10.975609756097562,1.068359375,-0.0595703125,-1.3359375
591,1.646,IMU1,-39.268292682926834,16.890243902439025,-11.158536585365855,1.046875,-0.0537109375,-1.34375
592,1.646,IMU2,-40.36585365853659,18.963414634146343,-11.76829268292683,1.07421875,-0.0224609375,-1.2919921875
593,1.656,IMU0,-42.743902439024396,22.5609756097561,-12.926829268292684,0.947265625,-0.1103515625,-1.287109375
594,1.656,IMU1,-40.60975609756098,20.914634146341466,-13.353658536585368,0.9345703125,-0.0927734375,-1.279296875
595,1.656,IMU2,-41.82926829268293,22.926829268292686,-13.963414634146343,0.92578125,-0.1083984375,-1.267578125
596,1.666,IMU0,-43.47560975609756,27.134146341463417,-17.865853658536587,0.837890625,-0.037109375,-1.1396484375
597,1.666,IMU1,-42.31707317073171,25.975609756097562,-18.658536585365855,0.8193359375,-0.0439453125,-1.1982421875
598,1.666,IMU2,-42.86585365853659,27.5609756097561,-19.32926829268293,0.8125,-0.064453125,-1.189453125
599,1.676,IMU0,-44.69512195121952,31.707317073170735,-23.414634146341466,0.75390625,-0.05859375,-1.1591796875
600,1.676,IMU1,-42.19512195121951,29.451219512195124,-23.59756097560976,0.7294921875,-0.00390625,-1.0791015625
601,1.676,IMU2,-43.71951219512196,31.463414634146343,-24.207317073170735,0.7255859375,-0.060546875,-1.16796875
602,1.686,IMU0,-43.29268292682927,34.451219512195124,-25.000000000000004,0.66796875,-0.0244140625,-1.0830078125
603,1.686,IMU1,-41.09756097560976,32.80487804878049,-25.182926829268293,0.6396484375,-0.0517578125,-1.158203125
604,1.686,IMU2,-42.07317073170732,35.1829268292683,-25.853658536585368,0.6318359375,-0.068359375,-1.146484375
605,1.696,IMU0,-43.170731707317074,38.71951219512196,-28.292682926829272,0.611328125,-0.0966796875,-1.064453125
606,1.696,IMU1,-41.09756097560976,36.03658536585366,-28.475609756097562,0.5966796875,-0.037109375,-0.9794921875
607,1.696,IMU2,-42.37804878048781,38.59756097560976,-29.207317073170735,0.578125,-0.1025390625,-1.0478515625
608,1.706,IMU0,-42.804878048780495,39.268292682926834,-31.646341463414636,0.5302734375,-0.087890625,-0.9482421875
609,1.706,IMU1,-41.15853658536586,37.6219512195122,-31.89024390243903,0.5244140625,-0.09765625,-1.01953125
610,1.706,IMU2,-42.19512195121951,40.1829268292683,-32.43902439024391,0.5146484375,-0.0927734375,-0.9375
611,1.716,IMU0,-41.951219512195124,39.268292682926834,-31.03658536585366,0.4716796875,-0.1376953125,-0.98828125
612,1.716,IMU1,-40.0,36.768292682926834,-30.60975609756098,0.4375,-0.1259765625,-0.92578125
613,1.716,IMU2,-40.85365853658537,39.63414634146342,-31.52439024390244,0.458984375,-0.1416015625,-0.9775390625
614,1.726,IMU0,-41.58536585365854,38.78048780487805,-27.987804878048784,0.4072265625,-0.08203125,-0.9169921875
615,1.726,IMU1,-40.426829268292686,36.768292682926834,-27.80487804878049,0.427734375,-0.04296875,-0.91015625
616,1.726,IMU2,-41.09756097560976,39.024390243902445,-28.475609756097562,0.392578125,-0.078125,-0.8818359375
617,1.736,IMU0,-41.890243902439025,38.41463414634147,-26.402439024390247,0.427734375,-0.068359375,-0.962890625
618,1.736,IMU1,-40.243902439024396,36.524390243902445,-25.975609756097562,0.3876953125,-0.119140625,-0.998046875
619,1.736,IMU2,-40.60975609756098,38.53658536585366,-26.951219512195124,0.4228515625,-0.08203125,-0.9814453125
620,1.746,IMU0,-42.01219512195122,39.57317073170732,-25.975609756097562,0.4423828125,-0.125,-1.001953125
621,1.746,IMU1,-40.60975609756098,37.743902439024396,-25.60975609756098,0.4453125,-0.0703125,-0.9111328125
622,1.746,IMU2,-41.58536585365854,39.93902439024391,-26.402439024390247,0.4140625,-0.1298828125,-0.98046875
623,1.756,IMU0,-41.646341463414636,38.90243902439025,-25.975609756097562,0.4873046875,-0.048828125,-0.9208984375
624,1.756,IMU1,-40.670731707317074,37.31707317073171,-26.03658536585366,0.5126953125,-0.0234375,-0.986328125
625,1.756,IMU2,-41.21951219512196,39.146341463414636,-26.52439024390244,0.4833984375,-0.03515625,-0.921875
626,1.766,IMU0,-39.75609756097561,36.40243902439025,-21.82926829268293,0.4970703125,-0.0029296875,-0.9716796875
627,1.766,IMU1,-37.987804878048784,34.87804878048781,-21.82926829268293,0.462890625,-0.056640625,-0.9580078125
628,1.766,IMU2,-39.207317073170735,37.37804878048781,-23.170731707317074,0.5068359375,-0.0224609375,-0.9755859375
629,1.776,IMU0,-36.524390243902445,34.69512195121951,-13.902439024390246,0.451171875,-0.0693359375,-0.9658203125
630,1.776,IMU1,-35.0,33.170731707317074,-13.902439024390246,0.431640625,-0.0498046875,-0.8857421875
631,1.776,IMU2,-35.670731707317074,35.79268292682927,-15.30487804878049,0.4404296875,-0.087890625,-0.9150390625
632,1.786,IMU0,-35.0,28.475609756097562,-12.256097560975611,0.4814453125,0.0,-0.919921875
633,1.786,IMU1,-33.53658536585366,26.52439024390244,-12.073170731707318,0.4658203125,0.0009765625,-0.9345703125
634,1.786,IMU2,-34.451219512195124,28.780487804878053,-12.500000000000002,0.4384765625,-0.0693359375,-0.8828125
635,1.796,IMU0,-34.75609756097561,26.219512195121954,-11.951219512195124,0.41796875,-0.1025390625,-1.0498046875
636,1.796,IMU1,-33.04878048780488,24.573170731707318,-11.829268292682928,0.4140625,-0.091796875,-1.0341796875
637,1.796,IMU2,-33.65853658536586,26.402439024390247,-12.256097560975611,0.40625,-0.0625,-0.9755859375
638,1.806,IMU0,-34.69512195121951,26.158536585365855,-11.219512195121952,0.3857421875,-0.1474609375,-0.9716796875
639,1.806,IMU1,-33.23170731707317,24.939024390243905,-11.158536585365855,0.3828125,-0.1328125,-0.9736328125
640,1.806,IMU2,-34.268292682926834,26.89024390243903,-11.890243902439025,0.3974609375,-0.1171875,-1.01953125
641,1.816,IMU0,-32.743902439024396,21.646341463414636,-6.036585365853659,0.3701171875,-0.109375,-0.931640625
642,1.816,IMU1,-31.03658536585366,20.243902439024392,-6.097560975609756,0.3642578125,-0.1025390625,-0.9423828125
643,1.816,IMU2,-31.89024390243903,22.80487804878049,-7.073170731707318,0.3701171875,-0.1396484375,-0.9541015625
644,1.826,IMU0,-31.03658536585366,16.52439024390244,-2.378048780487805,0.3203125,-0.037109375,-0.98828125
645,1.826,IMU1,-29.08536585365854,14.878048780487806,-2.5,0.3173828125,-0.037109375,-0.9921875
646,1.826,IMU2,-30.365853658536587,17.31707317073171,-3.353658536585366,0.3125,-0.060546875,-0.9677734375
647,1.836,IMU0,-32.86585365853659,12.256097560975611,-3.414634146341464,0.267578125,-0.0654296875,-1.0283203125
648,1.836,IMU1,-30.54878048780488,10.426829268292684,-3.414634146341464,0.2587890625,-0.0517578125,-1.0048828125
649,1.836,IMU2,-32.19512195121951,12.865853658536587,-3.7195121951219514,0.25,-0.037109375,-1.0029296875
650,1.846,IMU0,-33.170731707317074,12.621951219512196,-6.341463414634147,0.2353515625,-0.13671875,-1.0048828125
651,1.846,IMU1,-30.914634146341466,10.853658536585368,-6.402439024390245,0.2275390625,-0.1240234375,-1.021484375
652,1.846,IMU2,-32.19512195121951,12.987804878048781,-6.951219512195123,0.2255859375,-0.1201171875,-1.0283203125
653,1.856,IMU0,-34.87804878048781,12.80487804878049,-8.231707317073171,0.2216796875,-0.10546875,-1.021484375
654,1.856,IMU1,-32.31707317073171,11.097560975609756,-8.353658536585366,0.212890625,-0.1005859375,-0.9892578125
655,1.856,IMU2,-34.08536585365854,13.04878048780488,-9.02439024390244,0.2275390625,-0.0771484375,-1.03125
656,1.866,IMU0,-37.13414634146342,14.207317073170733,-7.621951219512196,0.2294921875,-0.0537109375,-0.943359375
657,1.866,IMU1,-34.81707317073171,12.500000000000002,-7.743902439024391,0.2158203125,-0.05078125,-0.9521484375
658,1.866,IMU2,-36.09756097560976,14.634146341463415,-8.475609756097562,0.201171875,-0.1005859375,-0.9150390625
659,1.876,IMU0,-38.53658536585366,15.487804878048783,-3.963414634146342,0.244140625,-0.046875,-0.9580078125
660,1.876,IMU1,-36.646341463414636,13.536585365853659,-4.024390243902439,0.2353515625,-0.0419921875,-0.9189453125
661,1.876,IMU2,-37.31707317073171,15.609756097560977,-4.878048780487806,0.2197265625,-0.0595703125,-0.951171875
662,1.886,IMU0,-39.51219512195122,15.54878048780488,0.9146341463414634,0.326171875,-0.0703125,-1.0400390625
663,1.886,IMU1,-37.86585365853659,14.146341463414636,0.853658536585366,0.318359375,-0.0615234375,-1.048828125
664,1.886,IMU2,-38.29268292682927,15.914634146341465,0.12195121951219513,0.30859375,-0.068359375,-1.013671875
665,1.896,IMU0,-43.47560975609756,13.353658536585368,2.25609756097561,0.3525390625,-0.091796875,-0.9482421875
666,1.896,IMU1,-41.34146341463415,11.890243902439025,2.1341463414634148,0.3408203125,-0.0830078125,-0.9619140625
667,1.896,IMU2,-42.13414634146342,14.085365853658537,1.402439024390244,0.3271484375,-0.10546875,-0.986328125
668,1.906,IMU0,-46.951219512195124,12.560975609756099,5.365853658536586,0.28515625,-0.0771484375,-0.9306640625
669,1.906,IMU1,-44.75609756097561,10.792682926829269,5.121951219512195,0.28125,-0.060546875,-0.927734375
670,1.906,IMU2,-45.73170731707317,12.865853658536587,4.451219512195122,0.27734375,-0.064453125,-0.9462890625
671,1.916,IMU0,-50.54878048780488,12.01219512195122,10.548780487804878,0.212890625,-0.072265625,-0.9443359375
672,1.916,IMU1,-48.35365853658537,10.182926829268293,10.30487804878049,0.216796875,-0.0537109375,-0.97265625
673,1.916,IMU2,-49.39024390243903,11.951219512195124,9.634146341463415,0.220703125,-0.0673828125,-0.947265625
674,1.926,IMU0,-56.28048780487806,7.378048780487806,9.329268292682928,0.1240234375,-0.146484375,-0.947265625
675,1.926,IMU1,-53.59756097560976,5.487804878048781,8.963414634146343,0.119140625,-0.140625,-0.921875
676,1.926,IMU2,-54.63414634146342,7.621951219512196,8.414634146341465,0.1181640625,-0.1376953125,-0.892578125
677,1.936,IMU0,-62.13414634146342,2.073170731707317,7.560975609756098,0.0029296875,-0.1044921875,-0.8388671875
678,1.936,IMU1,-60.00000000000001,-0.06097560975609757,7.195121951219513,-0.0009765625,-0.09765625,-0.8642578125
679,1.936,IMU2,-61.09756097560976,2.25609756097561,6.52439024390244,0.00390625,-0.1103515625,-0.8701171875
680,1.946,IMU0,-64.87804878048782,4.573170731707317,7.134146341463415,-0.185546875,-0.1455078125,-0.8056640625
681,1.946,IMU1,-62.926829268292686,2.439024390243903,6.7682926829268295,-0.1884765625,-0.1328125,-0.7998046875
682,1.946,IMU2,-63.90243902439025,4.75609756097561,6.036585365853659,-0.181640625,-0.1171875,-0.8349609375
683,1.956,IMU0,-65.3658536585366,9.085365853658537,10.121951219512196,-0.330078125,-0.0947265625,-0.6982421875
684,1.956,IMU1,-63.23170731707317,6.890243902439025,9.634146341463415,-0.322265625,-0.0859375,-0.685546875
685,1.956,IMU2,-64.45121951219512,9.146341463414634,8.841463414634147,-0.3125,-0.072265625,-0.7158203125
686,1.966,IMU0,-64.39024390243902,11.158536585365855,16.158536585365855,-0.384765625,-0.0869140625,-0.681640625
687,1.966,IMU1,-62.13414634146342,8.902439024390244,15.670731707317074,-0.3837890625,-0.0849609375,-0.6591796875
688,1.966,IMU2,-63.23170731707317,11.219512195121952,14.939024390243905,-0.3828125,-0.080078125,-0.6650390625
689,1.976,IMU0,-64.57317073170732,13.109756097560977,17.865853658536587,-0.3984375,-0.068359375,-0.6376953125
690,1.976,IMU1,-62.31707317073171,10.975609756097562,17.439024390243905,-0.39453125,-0.06640625,-0.6201171875
691,1.976,IMU2,-63.35365853658537,13.109756097560977,16.70731707317073,-0.392578125,-0.0595703125,-0.62109375
692,1.986,IMU0,-63.47560975609757,13.29268292682927,22.743902439024392,-0.3955078125,-0.0361328125,-0.607421875
693,1.986,IMU1,-61.03658536585366,11.219512195121952,22.195121951219512,-0.384765625,-0.02734375,-0.58984375
694,1.986,IMU2,-62.01219512195122,13.353658536585368,21.463414634146343,-0.3779296875,-0.0166015625,-0.5947265625
695,1.996,IMU0,-63.47560975609757,13.29268292682927,22.743902439024392,-0.3955078125,-0.0361328125,-0.607421875
696,1.996,IMU1,-60.67073170731708,12.256097560975611,26.03658536585366,-0.4208984375,0.0341796875,-0.630859375
697,1.996,IMU2,-61.463414634146346,14.573170731707318,25.426829268292686,-0.4189453125,0.0419921875,-0.6513671875
698,2.006,IMU0,-63.29268292682927,13.902439024390246,27.134146341463417,-0.53515625,0.0009765625,-0.5498046875
699,2.006,IMU1,-60.91463414634147,12.134146341463415,26.76829268292683,-0.5380859375,-0.005859375,-0.55859375
700,2.006,IMU2,-61.82926829268293,13.78048780487805,26.158536585365855,-0.552734375,-0.01171875,-0.5732421875
701,2.016,IMU0,-65.48780487804879,12.378048780487806,26.52439024390244,-0.591796875,-0.1181640625,-0.5341796875
702,2.016,IMU1,-62.865853658536594,10.548780487804878,26.03658536585366,-0.603515625,-0.1240234375,-0.5244140625
703,2.016,IMU2,-64.08536585365854,12.500000000000002,25.426829268292686,-0.6220703125,-0.126953125,-0.529296875
704,2.026,IMU0,-70.85365853658537,11.463414634146343,20.731707317073173,-0.595703125,-0.044921875,-0.427734375
705,2.026,IMU1,-68.17073170731707,9.451219512195122,20.30487804878049,-0.6064453125,-0.0498046875,-0.3994140625
706,2.026,IMU2,-69.32926829268293,11.646341463414634,19.634146341463417,-0.625,-0.0517578125,-0.3876953125
707,2.036,IMU0,-77.19512195121952,9.878048780487806,14.02439024390244,-0.626953125,0.0380859375,-0.4423828125
708,2.036,IMU1,-74.45121951219512,7.987804878048781,13.536585365853659,-0.634765625,0.0458984375,-0.4443359375
709,2.036,IMU2,-75.67073170731707,10.30487804878049,12.865853658536587,-0.6435546875,0.0439453125,-0.453125
710,2.046,IMU0,-85.1829268292683,8.414634146341465,9.146341463414634,-0.728515625,-0.1669921875,-0.3828125
711,2.046,IMU1,-82.37804878048782,6.219512195121951,8.658536585365855,-0.728515625,-0.1669921875,-0.3564453125
712,2.046,IMU2,-83.90243902439025,8.719512195121952,7.926829268292684,-0.74609375,-0.1669921875,-0.345703125
713,2.056,IMU0,-111.28048780487806,10.30487804878049,5.670731707317073,-0.857421875,-0.306640625,-0.3232421875
714,2.056,IMU1,-108.35365853658537,7.743902439024391,4.939024390243903,-0.8583984375,-0.310546875,-0.2783203125
715,2.056,IMU2,-109.87804878048782,10.548780487804878,4.207317073170732,-0.8798828125,-0.30859375,-0.2412109375
716,2.066,IMU0,-141.70731707317074,10.853658536585368,-4.329268292682928,-0.8896484375,-0.251953125,-0.220703125
717,2.066,IMU1,-138.96341463414635,7.8048780487804885,-5.121951219512195,-0.9052734375,-0.2626953125,-0.201171875
718,2.066,IMU2,-140.4878048780488,11.036585365853659,-6.036585365853659,-0.9365234375,-0.2548828125,-0.171875
719,2.076,IMU0,-161.95121951219514,13.109756097560977,-19.573170731707318,-0.91796875,-0.09375,-0.181640625
720,2.076,IMU1,-159.32926829268294,9.817073170731708,-20.48780487804878,-0.9267578125,-0.0859375,-0.1630859375
721,2.076,IMU2,-160.609756097561,13.231707317073171,-21.463414634146343,-0.94921875,-0.0859375,-0.1513671875
722,2.086,IMU0,-166.64634146341464,12.682926829268293,-33.47560975609756,-0.9755859375,-0.001953125,-0.05078125
723,2.086,IMU1,-164.26829268292684,9.146341463414634,-34.390243902439025,-0.9892578125,-0.0068359375,-0.056640625
724,2.086,IMU2,-165.5487804878049,12.865853658536587,-35.426829268292686,-1.0166015625,0.001953125,-0.0556640625
725,2.096,IMU0,-161.09756097560978,11.52439024390244,-42.743902439024396,-1.0048828125,0.0078125,-0.0615234375
726,2.096,IMU1,-158.96341463414635,8.048780487804878,-43.53658536585366,-1.0146484375,0.00390625,-0.0654296875
727,2.096,IMU2,-160.2439024390244,11.76829268292683,-44.57317073170732,-1.0419921875,0.01171875,-0.0751953125
728,2.106,IMU0,-155.3658536585366,14.817073170731708,-52.13414634146342,-1.0478515625,0.0791015625,-0.0712890625
729,2.106,IMU1,-153.35365853658539,11.28048780487805,-52.86585365853659,-1.0556640625,0.0703125,-0.080078125
730,2.106,IMU2,-154.20731707317074,14.939024390243905,-53.90243902439025,-1.0693359375,0.083984375,-0.1015625
731,2.116,IMU0,-147.25609756097563,17.926829268292686,-52.987804878048784,-1.068359375,-0.041015625,-0.158203125
732,2.116,IMU1,-145.3048780487805,14.451219512195124,-53.71951219512196,-1.068359375,-0.046875,-0.154296875
733,2.116,IMU2,-146.21951219512195,18.29268292682927,-54.69512195121952,-1.0859375,-0.0361328125,-0.1435546875
734,2.126,IMU0,-146.28048780487805,26.89024390243903,-56.646341463414636,-1.0498046875,-0.03125,-0.119140625
735,2.126,IMU1,-144.45121951219514,23.59756097560976,-57.31707317073171,-1.0517578125,-0.0419921875,-0.115234375
736,2.126,IMU2,-145.4878048780488,27.25609756097561,-58.23170731707317,-1.0703125,-0.0234375,-0.09765625
737,2.136,IMU0,-147.37804878048783,34.146341463414636,-60.304878048780495,-1.009765625,-0.05078125,-0.138671875
738,2.136,IMU1,-145.7317073170732,30.975609756097565,-60.85365853658537,-1.0166015625,-0.0556640625,-0.130859375
739,2.136,IMU2,-146.76829268292684,34.390243902439025,-61.95121951219513,-1.0302734375,-0.044921875,-0.12109375
740,2.146,IMU0,-150.1829268292683,42.804878048780495,-67.25609756097562,-1.0029296875,-0.0732421875,-0.0908203125
741,2.146,IMU1,-148.59756097560978,39.451219512195124,-67.8048780487805,-1.0078125,-0.0810546875,-0.087890625
742,2.146,IMU2,-149.51219512195124,43.170731707317074,-68.90243902439025,-1.0341796875,-0.0654296875,-0.083984375
743,2.156,IMU0,-147.5,50.85365853658537,-73.96341463414635,-1.0224609375,0.00390625,-0.072265625
744,2.156,IMU1,-146.21951219512195,47.6829268292683,-74.39024390243902,-1.029296875,-0.005859375,-0.078125
745,2.156,IMU2,-146.82926829268294,51.03658536585366,-75.60975609756098,-1.0390625,0.015625,-0.0830078125
746,2.166,IMU0,-141.70731707317074,54.75609756097561,-79.14634146341464,-0.9580078125,0.0361328125,-0.0927734375
747,2.166,IMU1,-140.609756097561,51.646341463414636,-79.57317073170732,-0.9560546875,0.0302734375,-0.095703125
748,2.166,IMU2,-140.97560975609758,55.0609756097561,-80.54878048780489,-0.958984375,0.0439453125,-0.12109375
749,2.176,IMU0,-135.85365853658539,58.65853658536586,-80.67073170731707,-0.92578125,-0.0107421875,-0.0791015625
750,2.176,IMU1,-134.75609756097563,55.487804878048784,-81.03658536585367,-0.927734375,-0.021484375,-0.0849609375
751,2.176,IMU2,-135.3048780487805,59.207317073170735,-82.07317073170732,-0.9443359375,0.0087890625,-0.0771484375
752,2.186,IMU0,-129.08536585365854,60.67073170731708,-82.5609756097561,-0.95703125,-0.015625,-0.12109375
753,2.186,IMU1,-127.98780487804879,57.6829268292683,-82.8048780487805,-0.9580078125,-0.0244140625,-0.1318359375
754,2.186,IMU2,-128.2317073170732,61.21951219512196,-83.96341463414635,-0.9765625,0.0068359375,-0.1142578125
755,2.196,IMU0,-121.64634146341464,57.01219512195122,-84.20731707317074,-0.861328125,-0.0498046875,-0.044921875
756,2.196,IMU1,-120.67073170731709,54.146341463414636,-84.45121951219512,-0.865234375,-0.0537109375,-0.052734375
757,2.196,IMU2,-121.15853658536587,57.25609756097561,-85.48780487804879,-0.8935546875,-0.037109375,-0.0400390625
758,2.206,IMU0,-115.79268292682927,53.78048780487806,-87.25609756097562,-0.8564453125,-0.0126953125,-0.0771484375
759,2.206,IMU1,-114.45121951219514,50.1219512195122,-87.31707317073172,-0.8544921875,-0.0126953125,-0.080078125
760,2.206,IMU2,-115.42682926829269,53.71951219512196,-88.35365853658537,-0.8701171875,-0.0146484375,-0.083984375
761,2.216,IMU0,-109.39024390243904,50.54878048780488,-89.75609756097562,-0.8349609375,0.0029296875,0.0009765625
762,2.216,IMU1,-108.41463414634147,48.04878048780488,-89.87804878048782,-0.8388671875,0.0009765625,0.001953125
763,2.216,IMU2,-108.90243902439025,50.487804878048784,-91.03658536585367,-0.8330078125,0.00390625,-0.001953125
764,2.226,IMU0,-104.45121951219514,42.6829268292683,-89.69512195121952,-0.8525390625,0.0107421875,-0.08203125
765,2.226,IMU1,-102.98780487804879,39.93902439024391,-90.60975609756099,-0.8251953125,0.0302734375,-0.08984375
766,2.226,IMU2,-103.65853658536587,42.86585365853659,-90.97560975609757,-0.8642578125,0.0234375,-0.0947265625
767,2.236,IMU0,-101.28048780487806,39.451219512195124,-91.95121951219512,-0.82421875,-0.0009765625,-0.005859375
768,2.236,IMU1,-99.93902439024392,36.28048780487805,-92.07317073170732,-0.822265625,-0.005859375,-0.00390625
769,2.236,IMU2,-100.79268292682927,39.63414634146342,-92.92682926829269,-0.84765625,0.0107421875,-0.021484375
770,2.246,IMU0,-97.8658536585366,35.97560975609756,-93.10975609756099,-0.822265625,-0.00390625,-0.0283203125
771,2.246,IMU1,-96.58536585365854,33.04878048780488,-92.8658536585366,-0.8408203125,0.0078125,-0.021484375
772,2.246,IMU2,-97.6219512195122,36.21951219512196,-93.84146341463415,-0.837890625,0.0029296875,-0.0283203125
773,2.256,IMU0,-90.48780487804879,33.109756097560975,-94.93902439024392,-0.8203125,0.025390625,-0.109375
774,2.256,IMU1,-88.84146341463415,31.09756097560976,-94.81707317073172,-0.81640625,-0.00390625,-0.087890625
775,2.256,IMU2,-89.75609756097562,33.53658536585366,-95.73170731707317,-0.8251953125,0.0107421875,-0.1083984375
776,2.266,IMU0,-84.69512195121952,32.6829268292683,-95.85365853658537,-0.8193359375,0.056640625,-0.13671875
777,2.266,IMU1,-82.5609756097561,30.0609756097561,-95.67073170731709,-0.8037109375,0.015625,-0.1298828125
778,2.266,IMU2,-83.65853658536587,32.743902439024396,-96.58536585365854,-0.8193359375,0.037109375,-0.1455078125
779,2.276,IMU0,-80.85365853658537,38.59756097560976,-95.2439024390244,-0.83203125,0.037109375,-0.119140625
780,2.276,IMU1,-79.26829268292684,35.73170731707317,-95.42682926829269,-0.8095703125,0.0517578125,-0.1279296875
781,2.276,IMU2,-80.1219512195122,38.78048780487805,-96.09756097560977,-0.8349609375,0.0537109375,-0.13671875
782,2.286,IMU0,-78.17073170731707,45.00000000000001,-95.00000000000001,-0.8017578125,-0.0576171875,-0.1396484375
783,2.286,IMU1,-77.19512195121952,43.41463414634147,-95.1829268292683,-0.8134765625,0.0185546875,-0.111328125
784,2.286,IMU2,-77.8048780487805,45.91463414634147,-95.73170731707317,-0.8310546875,-0.013671875,-0.1240234375
785,2.296,IMU0,-75.91463414634147,50.426829268292686,-96.28048780487806,-0.75390625,-0.1083984375,-0.20703125
786,2.296,IMU1,-75.1219512195122,50.79268292682927,-96.15853658536587,-0.7763671875,-0.0576171875,-0.1416015625
787,2.296,IMU2,-75.73170731707317,52.37804878048781,-96.89024390243904,-0.783203125,-0.0849609375,-0.1630859375
788,2.306,IMU0,-76.09756097560977,54.268292682926834,-98.10975609756099,-0.7021484375,-0.056640625,-0.177734375
789,2.306,IMU1,-75.42682926829269,53.04878048780488,-97.7439024390244,-0.7119140625,-0.0966796875,-0.1904296875
790,2.306,IMU2,-75.85365853658537,55.243902439024396,-98.65853658536587,-0.716796875,-0.083984375,-0.18359375
791,2.316,IMU0,-75.79268292682927,59.57317073170732,-101.15853658536587,-0.693359375,-0.0283203125,-0.1630859375
792,2.316,IMU1,-74.87804878048782,57.25609756097561,-101.09756097560977,-0.67578125,-0.0595703125,-0.1640625
793,2.316,IMU2,-75.3048780487805,59.87804878048781,-101.82926829268294,-0.6923828125,-0.046875,-0.1640625
794,2.326,IMU0,-74.63414634146342,63.29268292682927,-104.45121951219514,-0.7041015625,-0.056640625,-0.16015625
795,2.326,IMU1,-74.02439024390245,61.21951219512196,-104.08536585365854,-0.6982421875,-0.0625,-0.1796875
796,2.326,IMU2,-74.26829268292684,63.71951219512196,-104.63414634146342,-0.7236328125,-0.0576171875,-0.1796875
797,2.336,IMU0,-73.47560975609757,65.2439024390244,-105.3658536585366,-0.6572265625,-0.0439453125,-0.0888671875
798,2.336,IMU1,-73.04878048780489,63.35365853658537,-105.06097560975611,-0.662109375,-0.021484375,-0.068359375
799,2.336,IMU2,-73.29268292682927,66.34146341463415,-105.97560975609757,-0.671875,-0.0263671875,-0.0703125
800,2.346,IMU0,-72.19512195121952,64.14634146341464,-105.54878048780489,-0.625,-0.0869140625,-0.1357421875
801,2.346,IMU1,-71.76829268292684,62.01219512195122,-105.2439024390244,-0.6220703125,-0.0849609375,-0.134765625
802,2.346,IMU2,-72.01219512195122,64.14634146341464,-106.03658536585367,-0.6328125,-0.0888671875,-0.1435546875
803,2.356,IMU0,-69.63414634146342,61.463414634146346,-104.08536585365854,-0.6279296875,-0.0478515625,-0.1005859375
804,2.356,IMU1,-69.02439024390245,59.51219512195122,-103.78048780487806,-0.623046875,-0.046875,-0.0927734375
805,2.356,IMU2,-69.32926829268293,62.13414634146342,-104.63414634146342,-0.6298828125,-0.052734375,-0.0908203125
806,2.366,IMU0,-67.43902439024392,59.32926829268293,-98.35365853658537,-0.578125,-0.0341796875,-0.109375
807,2.366,IMU1,-66.89024390243902,57.31707317073171,-98.10975609756099,-0.5673828125,-0.029296875,-0.1005859375
808,2.366,IMU2,-67.19512195121952,59.75609756097562,-99.08536585365854,-0.5712890625,-0.0263671875,-0.1015625
809,2.376,IMU0,-62.6219512195122,58.90243902439025,-90.73170731707317,-0.58984375,-0.0009765625,-0.1630859375
810,2.376,IMU1,-62.01219512195122,56.951219512195124,-90.48780487804879,-0.5791015625,0.0029296875,-0.1611328125
811,2.376,IMU2,-62.37804878048781,59.268292682926834,-91.46341463414635,-0.58203125,0.00390625,-0.1708984375
812,2.386,IMU0,-56.40243902439025,58.963414634146346,-80.3048780487805,-0.552734375,-0.037109375,-0.1328125
813,2.386,IMU1,-55.67073170731708,57.19512195121952,-80.0609756097561,-0.5458984375,-0.0380859375,-0.1337890625
814,2.386,IMU2,-56.15853658536586,59.63414634146342,-80.91463414634147,-0.548828125,-0.04296875,-0.140625
815,2.396,IMU0,-51.34146341463415,55.243902439024396,-70.91463414634147,-0.5263671875,-0.017578125,-0.1435546875
816,2.396,IMU1,-50.487804878048784,53.53658536585366,-70.67073170731707,-0.515625,-0.017578125,-0.142578125
817,2.396,IMU2,-50.97560975609756,55.85365853658537,-71.58536585365854,-0.517578125,-0.0234375,-0.1484375
818,2.406,IMU0,-46.34146341463415,52.926829268292686,-61.09756097560976,-0.5078125,-0.0556640625,-0.15234375
819,2.406,IMU1,-45.243902439024396,51.15853658536586,-60.91463414634147,-0.490234375,-0.0537109375,-0.1474609375
820,2.406,IMU2,-45.79268292682927,53.29268292682927,-61.82926829268293,-0.4853515625,-0.056640625,-0.154296875
821,2.416,IMU0,-43.90243902439025,49.451219512195124,-52.50000000000001,-0.5029296875,-0.072265625,-0.1689453125
822,2.416,IMU1,-42.6829268292683,47.743902439024396,-52.31707317073171,-0.4912109375,-0.072265625,-0.1611328125
823,2.416,IMU2,-43.29268292682927,49.87804878048781,-53.10975609756098,-0.4912109375,-0.0751953125,-0.1640625
824,2.426,IMU0,-43.90243902439025,46.707317073170735,-45.304878048780495,-0.4892578125,-0.1015625,-0.169921875
825,2.426,IMU1,-42.5609756097561,45.0609756097561,-45.1219512195122,-0.48046875,-0.099609375,-0.1611328125
826,2.426,IMU2,-43.170731707317074,47.25609756097561,-45.91463414634147,-0.4853515625,-0.1005859375,-0.1650390625
827,2.436,IMU0,-44.451219512195124,43.170731707317074,-39.390243902439025,-0.486328125,-0.16015625,-0.1640625
828,2.436,IMU1,-42.987804878048784,41.58536585365854,-39.207317073170735,-0.4873046875,-0.1611328125,-0.1591796875
829,2.436,IMU2,-43.65853658536586,43.78048780487805,-39.87804878048781,-0.5009765625,-0.1630859375,-0.1630859375
830,2.446,IMU0,-43.84146341463415,39.51219512195122,-36.768292682926834,-0.46484375,-0.162109375,-0.1796875
831,2.446,IMU1,-42.31707317073171,37.926829268292686,-36.58536585365854,-0.46484375,-0.1650390625,-0.1708984375
832,2.446,IMU2,-43.04878048780488,40.0609756097561,-37.25609756097561,-0.4755859375,-0.1689453125,-0.1689453125
833,2.456,IMU0,-44.146341463414636,35.0,-34.32926829268293,-0.4521484375,-0.10546875,-0.22265625
834,2.456,IMU1,-42.5609756097561,33.29268292682927,-34.268292682926834,-0.443359375,-0.099609375,-0.2138671875
835,2.456,IMU2,-43.29268292682927,35.487804878048784,-35.0,-0.4453125,-0.103515625,-0.21484375
836,2.466,IMU0,-44.57317073170732,33.170731707317074,-30.54878048780488,-0.4521484375,-0.1298828125,-0.2509765625
837,2.466,IMU1,-42.86585365853659,31.219512195121954,-30.487804878048784,-0.4482421875,-0.1240234375,-0.24609375
838,2.466,IMU2,-43.65853658536586,33.47560975609756,-31.219512195121954,-0.455078125,-0.1279296875,-0.248046875
839,2.476,IMU0,-44.57317073170732,34.268292682926834,-28.780487804878053,-0.447265625,-0.162109375,-0.2431640625
840,2.476,IMU1,-42.987804878048784,32.43902439024391,-28.719512195121954,-0.4453125,-0.1611328125,-0.2412109375
841,2.476,IMU2,-43.84146341463415,34.57317073170732,-29.39024390243903,-0.453125,-0.1640625,-0.2431640625
842,2.486,IMU0,-44.32926829268293,32.987804878048784,-26.463414634146343,-0.423828125,-0.1396484375,-0.234375
843,2.486,IMU1,-42.743902439024396,31.34146341463415,-26.463414634146343,-0.41796875,-0.1376953125,-0.2294921875
844,2.486,IMU2,-43.65853658536586,33.41463414634146,-27.073170731707318,-0.421875,-0.142578125,-0.2265625
845,2.496,IMU0,-45.1829268292683,31.707317073170735,-23.29268292682927,-0.4072265625,-0.166015625,-0.287109375
846,2.496,IMU1,-43.47560975609756,29.939024390243905,-23.353658536585368,-0.4013671875,-0.158203125,-0.2802734375
847,2.496,IMU2,-44.32926829268293,32.07317073170732,-23.963414634146343,-0.4111328125,-0.169921875,-0.2822265625
848,2.506,IMU0,-45.91463414634147,32.926829268292686,-20.853658536585368,-0.40234375,-0.17578125,-0.26171875
849,2.506,IMU1,-44.207317073170735,31.09756097560976,-20.914634146341466,-0.404296875,-0.1767578125,-0.2607421875
850,2.506,IMU2,-45.1219512195122,33.170731707317074,-21.646341463414636,-0.416015625,-0.1787109375,-0.259765625
851,2.516,IMU0,-46.21951219512196,31.646341463414636,-17.98780487804878,-0.3837890625,-0.11328125,-0.265625
852,2.516,IMU1,-44.451219512195124,29.939024390243905,-18.10975609756098,-0.3798828125,-0.11328125,-0.25
853,2.516,IMU2,-45.426829268292686,31.82926829268293,-18.658536585365855,-0.384765625,-0.115234375,-0.25390625
854,2.526,IMU0,-48.47560975609756,31.34146341463415,-13.902439024390246,-0.349609375,-0.10546875,-0.2841796875
855,2.526,IMU1,-46.646341463414636,29.451219512195124,-13.963414634146343,-0.3515625,-0.1064453125,-0.2841796875
856,2.526,IMU2,-47.50000000000001,31.58536585365854,-14.634146341463415,-0.3583984375,-0.1083984375,-0.2890625
857,2.536,IMU0,-48.71951219512196,33.170731707317074,-10.853658536585368,-0.3095703125,-0.0986328125,-0.3046875
858,2.536,IMU1,-46.89024390243903,31.34146341463415,-10.914634146341465,-0.3095703125,-0.0966796875,-0.306640625
859,2.536,IMU2,-47.6829268292683,33.41463414634146,-11.52439024390244,-0.3095703125,-0.1025390625,-0.3076171875
860,2.546,IMU0,-48.65853658536586,32.13414634146342,-6.951219512195123,-0.2919921875,-0.0966796875,-0.3046875
861,2.546,IMU1,-46.768292682926834,30.182926829268297,-7.134146341463415,-0.287109375,-0.0927734375,-0.2978515625
862,2.546,IMU2,-47.6829268292683,32.5,-7.560975609756098,-0.2900390625,-0.1064453125,-0.306640625
863,2.556,IMU0,-49.63414634146342,32.5,-4.51219512195122,-0.322265625,-0.1533203125,-0.2919921875
864,2.556,IMU1,-47.6829268292683,30.60975609756098,-4.573170731707317,-0.3251953125,-0.150390625,-0.2861328125
865,2.556,IMU2,-48.65853658536586,32.987804878048784,-5.2439024390243905,-0.3427734375,-0.1591796875,-0.28515625
866,2.566,IMU0,-50.1829268292683,33.29268292682927,-4.451219512195122,-0.3154296875,-0.1611328125,-0.2666015625
867,2.566,IMU1,-48.23170731707317,31.402439024390247,-4.573170731707317,-0.3193359375,-0.1572265625,-0.2626953125
868,2.566,IMU2,-49.207317073170735,33.47560975609756,-5.2439024390243905,-0.3310546875,-0.162109375,-0.25
869,2.576,IMU0,-50.54878048780488,29.146341463414636,-3.8414634146341466,-0.2646484375,-0.0712890625,-0.2275390625
870,2.576,IMU1,-48.65853658536586,27.439024390243905,-4.024390243902439,-0.2666015625,-0.0703125,-0.2197265625
871,2.576,IMU2,-49.69512195121952,29.08536585365854,-4.573170731707317,-0.2646484375,-0.0732421875,-0.2265625
872,2.586,IMU0,-50.91463414634147,25.365853658536587,-3.353658536585366,-0.2548828125,-0.0888671875,-0.2646484375
873,2.586,IMU1,-48.90243902439025,23.59756097560976,-3.536585365853659,-0.2548828125,-0.083984375,-0.2607421875
874,2.586,IMU2,-50.00000000000001,25.670731707317074,-4.146341463414634,-0.2646484375,-0.095703125,-0.2607421875
875,2.596,IMU0,-50.91463414634147,25.54878048780488,-3.1707317073170733,-0.2509765625,-0.1181640625,-0.275390625
876,2.596,IMU1,-48.963414634146346,23.658536585365855,-3.2926829268292686,-0.2548828125,-0.11328125,-0.2734375
877,2.596,IMU2,-49.93902439024391,25.914634146341466,-4.085365853658537,-0.2666015625,-0.1240234375,-0.2724609375
878,2.606,IMU0,-51.09756097560976,23.719512195121954,-4.085365853658537,-0.2587890625,-0.115234375,-0.2724609375
879,2.606,IMU1,-49.146341463414636,21.890243902439025,-4.2682926829268295,-0.26171875,-0.111328125,-0.2705078125
880,2.606,IMU2,-50.0609756097561,23.963414634146343,-5.0,-0.27734375,-0.1181640625,-0.263671875
881,2.616,IMU0,-51.524390243902445,21.463414634146343,-5.426829268292684,-0.2451171875,-0.0751953125,-0.2412109375
882,2.616,IMU1,-49.51219512195122,19.695121951219512,-5.609756097560976,-0.2490234375,-0.0751953125,-0.2314453125
883,2.616,IMU2,-50.670731707317074,21.707317073170735,-6.2804878048780495,-0.25390625,-0.0703125,-0.2314453125
884,2.626,IMU0,-52.743902439024396,18.414634146341466,-6.402439024390245,-0.2392578125,-0.0751953125,-0.232421875
885,2.626,IMU1,-50.60975609756098,16.585365853658537,-6.585365853658537,-0.2431640625,-0.0703125,-0.2216796875
886,2.626,IMU2,-51.89024390243903,18.53658536585366,-7.317073170731708,-0.25390625,-0.080078125,-0.2275390625
887,2.636,IMU0,-53.90243902439025,15.487804878048783,-7.682926829268293,-0.232421875,-0.0830078125,-0.2451171875
888,2.636,IMU1,-51.768292682926834,13.475609756097562,-7.865853658536586,-0.2373046875,-0.0791015625,-0.240234375
889,2.636,IMU2,-53.10975609756098,15.670731707317074,-8.597560975609756,-0.248046875,-0.087890625,-0.232421875
890,2.646,IMU0,-55.243902439024396,12.073170731707318,-9.390243902439025,-0.224609375,-0.0673828125,-0.240234375
891,2.646,IMU1,-53.10975609756098,10.060975609756099,-9.573170731707318,-0.2314453125,-0.0634765625,-0.2392578125
892,2.646,IMU2,-54.207317073170735,12.317073170731708,-10.426829268292684,-0.2353515625,-0.0732421875,-0.248046875
893,2.656,IMU0,-55.91463414634147,9.085365853658537,-10.0,-0.205078125,-0.056640625,-0.2294921875
894,2.656,IMU1,-53.71951219512196,7.134146341463415,-10.182926829268293,-0.208984375,-0.052734375,-0.2294921875
895,2.656,IMU2,-54.75609756097561,9.085365853658537,-10.975609756097562,-0.216796875,-0.0654296875,-0.2470703125
896,2.666,IMU0,-55.67073170731708,5.487804878048781,-10.121951219512196,-0.203125,-0.0654296875,-0.24609375
897,2.666,IMU1,-53.41463414634147,3.536585365853659,-10.30487804878049,-0.20703125,-0.05859375,-0.24609375
898,2.666,IMU2,-54.451219512195124,5.670731707317073,-11.097560975609756,-0.21875,-0.072265625,-0.244140625
899,2.676,IMU0,-55.487804878048784,2.7439024390243905,-10.731707317073171,-0.20703125,-0.0654296875,-0.2392578125
900,2.676,IMU1,-53.29268292682927,0.7926829268292683,-10.914634146341465,-0.208984375,-0.0595703125,-0.2373046875
901,2.676,IMU2,-54.268292682926834,2.804878048780488,-11.585365853658537,-0.220703125,-0.068359375,-0.2431640625
902,2.686,IMU0,-56.28048780487806,0.1829268292682927,-11.341463414634147,-0.203125,-0.060546875,-0.2392578125
903,2.686,IMU1,-54.024390243902445,-1.707317073170732,-11.52439024390244,-0.2041015625,-0.0556640625,-0.232421875
904,2.686,IMU2,-55.1219512195122,0.30487804878048785,-12.195121951219512,-0.2177734375,-0.0595703125,-0.2333984375
905,2.696,IMU0,-57.25609756097561,-1.4634146341463417,-12.073170731707318,-0.208984375,-0.0546875,-0.2265625
906,2.696,IMU1,-55.00000000000001,-3.414634146341464,-12.317073170731708,-0.2109375,-0.05078125,-0.2158203125
907,2.696,IMU2,-56.585365853658544,-1.3414634146341464,-12.987804878048781,-0.2255859375,-0.05859375,-0.2080078125
908,2.706,IMU0,-57.560975609756106,-2.439024390243903,-11.951219512195124,-0.220703125,-0.0703125,-0.2470703125
909,2.706,IMU1,-55.1829268292683,-4.451219512195122,-12.256097560975611,-0.22265625,-0.0634765625,-0.2353515625
910,2.706,IMU2,-56.951219512195124,-2.1951219512195124,-12.74390243902439,-0.2412109375,-0.07421875,-0.220703125
911,2.716,IMU0,-59.51219512195122,-3.7195121951219514,-12.74390243902439,-0.2158203125,-0.0556640625,-0.23828125
912,2.716,IMU1,-55.1829268292683,-4.451219512195122,-12.256097560975611,-0.22265625,-0.0634765625,-0.2353515625
913,2.716,IMU2,-58.59756097560976,-3.353658536585366,-13.902439024390246,-0.232421875,-0.05859375,-0.2373046875
914,2.726,IMU0,-60.304878048780495,-4.207317073170732,-12.256097560975611,-0.2275390625,-0.056640625,-0.2265625
915,2.726,IMU1,-57.926829268292686,-6.341463414634147,-12.500000000000002,-0.234375,-0.0537109375,-0.22265625
916,2.726,IMU2,-59.268292682926834,-3.9024390243902443,-13.475609756097562,-0.2353515625,-0.05078125,-0.2314453125
917,2.736,IMU0,-60.304878048780495,-4.451219512195122,-12.74390243902439,-0.2236328125,-0.0556640625,-0.2314453125
918,2.736,IMU1,-57.865853658536594,-6.585365853658537,-13.04878048780488,-0.2294921875,-0.0517578125,-0.228515625
919,2.736,IMU2,-59.268292682926834,-4.51219512195122,-13.78048780487805,-0.23046875,-0.0498046875,-0.2255859375
920,2.746,IMU0,-60.487804878048784,-5.121951219512195,-13.597560975609758,-0.2060546875,-0.013671875,-0.205078125
921,2.746,IMU1,-58.04878048780488,-7.073170731707318,-13.963414634146343,-0.2119140625,-0.01171875,-0.19921875
922,2.746,IMU2,-59.51219512195122,-5.121951219512195,-14.573170731707318,-0.2060546875,-0.0009765625,-0.197265625
923,2.756,IMU0,-60.365853658536594,-6.158536585365854,-13.536585365853659,-0.2021484375,-0.0126953125,-0.2119140625
924,2.756,IMU1,-57.987804878048784,-8.231707317073171,-13.902439024390246,-0.205078125,-0.0078125,-0.203125
925,2.756,IMU2,-59.451219512195124,-5.7926829268292686,-14.451219512195124,-0.212890625,-0.0185546875,-0.2138671875
926,2.766,IMU0,-61.09756097560976,-5.731707317073171,-14.817073170731708,-0.1953125,-0.0302734375,-0.228515625
927,2.766,IMU1,-58.71951219512196,-7.8048780487804885,-15.060975609756099,-0.19921875,-0.0205078125,-0.2236328125
928,2.766,IMU2,-59.93902439024391,-5.0,-15.731707317073171,-0.2177734375,-0.0615234375,-0.2353515625
929,2.776,IMU0,-60.97560975609757,-4.2682926829268295,-15.30487804878049,-0.1962890625,-0.0380859375,-0.21484375
930,2.776,IMU1,-58.65853658536586,-6.402439024390245,-15.54878048780488,-0.19921875,-0.0341796875,-0.2119140625
931,2.776,IMU2,-59.51219512195122,-3.963414634146342,-16.158536585365855,-0.201171875,-0.0380859375,-0.2216796875
932,2.786,IMU0,-60.00000000000001,-3.4756097560975614,-12.865853658536587,-0.1904296875,-0.0068359375,-0.2255859375
933,2.786,IMU1,-57.6829268292683,-6.158536585365854,-12.80487804878049,-0.1904296875,-0.00390625,-0.2197265625
934,2.786,IMU2,-58.963414634146346,-3.7195121951219514,-13.536585365853659,-0.201171875,0.0048828125,-0.201171875
935,2.796,IMU0,-58.963414634146346,-3.5975609756097566,-7.987804878048781,-0.1953125,0.03515625,-0.2392578125
936,2.796,IMU1,-56.89024390243903,-5.609756097560976,-7.926829268292684,-0.1953125,0.041015625,-0.2333984375
937,2.796,IMU2,-58.10975609756098,-3.2926829268292686,-8.719512195121952,-0.19140625,0.0458984375,-0.2119140625
938,2.806,IMU0,-57.07317073170732,-3.780487804878049,-2.9268292682926833,-0.169921875,0.044921875,-0.2509765625
939,2.806,IMU1,-54.085365853658544,-5.548780487804878,-2.9268292682926833,-0.1650390625,0.0400390625,-0.2470703125
940,2.806,IMU2,-55.487804878048784,-3.353658536585366,-3.658536585365854,-0.16796875,0.03125,-0.259765625
941,2.816,IMU0,-53.71951219512196,-2.8658536585365857,2.9268292682926833,-0.1591796875,0.0498046875,-0.244140625
942,2.816,IMU1,-50.60975609756098,-4.878048780487806,3.231707317073171,-0.173828125,0.0576171875,-0.23046875
943,2.816,IMU2,-52.07317073170732,-2.6219512195121952,2.5,-0.1708984375,0.046875,-0.2392578125
944,2.826,IMU0,-49.75609756097561,-3.1097560975609757,9.817073170731708,-0.1904296875,0.1162109375,-0.2138671875
945,2.826,IMU1,-46.951219512195124,-5.2439024390243905,10.121951219512196,-0.1865234375,0.1259765625,-0.2333984375
946,2.826,IMU2,-48.41463414634147,-3.048780487804878,9.390243902439025,-0.18359375,0.1171875,-0.2373046875
947,2.836,IMU0,-46.09756097560976,-2.25609756097561,15.79268292682927,-0.189453125,0.099609375,-0.2080078125
948,2.836,IMU1,-43.59756097560976,-4.024390243902439,15.914634146341465,-0.181640625,0.09375,-0.2255859375
949,2.836,IMU2,-44.93902439024391,-1.9512195121951221,15.30487804878049,-0.185546875,0.0849609375,-0.2314453125
950,2.846,IMU0,-43.90243902439025,-1.3414634146341464,19.573170731707318,-0.1767578125,0.08203125,-0.232421875
951,2.846,IMU1,-40.91463414634147,-2.5609756097560976,19.451219512195124,-0.1787109375,0.0615234375,-0.2470703125
952,2.846,IMU2,-42.19512195121951,-0.5487804878048781,18.902439024390244,-0.181640625,0.0556640625,-0.2568359375
953,2.856,IMU0,-39.69512195121951,-0.3658536585365854,22.073170731707318,-0.1845703125,0.064453125,-0.2001953125
954,2.856,IMU1,-36.21951219512196,-2.1341463414634148,21.890243902439025,-0.1865234375,0.0673828125,-0.201171875
955,2.856,IMU2,-37.6219512195122,-0.24390243902439027,21.34146341463415,-0.19140625,0.0625,-0.2138671875
956,2.866,IMU0,-35.91463414634147,-0.48780487804878053,22.80487804878049,-0.1826171875,0.0771484375,-0.189453125
957,2.866,IMU1,-32.6219512195122,-2.25609756097561,22.621951219512198,-0.197265625,0.08203125,-0.18359375
958,2.866,IMU2,-33.963414634146346,-0.426829268292683,22.012195121951223,-0.2041015625,0.07421875,-0.19140625
959,2.876,IMU0,-33.109756097560975,-0.853658536585366,22.865853658536587,-0.2001953125,0.0634765625,-0.1787109375
960,2.876,IMU1,-30.182926829268297,-2.439024390243903,22.682926829268293,-0.2138671875,0.0732421875,-0.1728515625
961,2.876,IMU2,-31.463414634146343,-0.48780487804878053,22.073170731707318,-0.220703125,0.064453125,-0.1767578125
962,2.886,IMU0,-30.487804878048784,-0.853658536585366,22.073170731707318,-0.2080078125,0.07421875,-0.1572265625
963,2.886,IMU1,-27.987804878048784,-2.378048780487805,21.82926829268293,-0.208984375,0.087890625,-0.1611328125
964,2.886,IMU2,-29.207317073170735,-0.5487804878048781,21.219512195121954,-0.2158203125,0.0791015625,-0.166015625
965,2.896,IMU0,-28.53658536585366,-0.7926829268292683,20.54878048780488,-0.21875,0.056640625,-0.1513671875
966,2.896,IMU1,-26.219512195121954,-2.378048780487805,20.182926829268293,-0.2216796875,0.0771484375,-0.140625
967,2.896,IMU2,-27.621951219512198,-0.5487804878048781,19.634146341463417,-0.2294921875,0.0712890625,-0.1435546875
968,2.906,IMU0,-27.25609756097561,-0.6097560975609757,18.719512195121954,-0.205078125,0.064453125,-0.1552734375
969,2.906,IMU1,-24.695121951219516,-2.1951219512195124,18.53658536585366,-0.212890625,0.0673828125,-0.1435546875
970,2.906,IMU2,-26.03658536585366,-0.3658536585365854,17.926829268292686,-0.22265625,0.060546875,-0.1455078125
971,2.916,IMU0,-24.32926829268293,-0.7926829268292683,17.439024390243905,-0.2197265625,0.06640625,-0.134765625
972,2.916,IMU1,-21.707317073170735,-2.3170731707317076,17.25609756097561,-0.216796875,0.0732421875,-0.123046875
973,2.916,IMU2,-23.170731707317074,-0.48780487804878053,16.76829268292683,-0.22265625,0.0634765625,-0.1220703125
974,2.926,IMU0,-21.52439024390244,-0.426829268292683,16.34146341463415,-0.2236328125,0.0634765625,-0.1298828125
975,2.926,IMU1,-19.02439024390244,-1.9512195121951221,16.219512195121954,-0.2265625,0.0693359375,-0.119140625
976,2.926,IMU2,-20.48780487804878,-0.24390243902439027,15.670731707317074,-0.2333984375,0.0595703125,-0.119140625
977,2.936,IMU0,-19.81707317073171,-0.48780487804878053,15.609756097560977,-0.2265625,0.076171875,-0.123046875
978,2.936,IMU1,-17.378048780487806,-2.0121951219512195,15.54878048780488,-0.2314453125,0.0791015625,-0.11328125
979,2.936,IMU2,-18.78048780487805,-0.24390243902439027,15.000000000000002,-0.240234375,0.0732421875,-0.1142578125
980,2.946,IMU0,-17.865853658536587,-0.9756097560975611,14.51219512195122,-0.232421875,0.052734375,-0.1201171875
981,2.946,IMU1,-15.365853658536587,-2.439024390243903,14.451219512195124,-0.2353515625,0.0546875,-0.111328125
982,2.946,IMU2,-16.76829268292683,-0.7317073170731708,13.841463414634148,-0.24609375,0.0517578125,-0.10546875
983,2.956,IMU0,-15.609756097560977,-1.3414634146341464,13.963414634146343,-0.2353515625,0.052734375,-0.12109375
984,2.956,IMU1,-13.109756097560977,-2.804878048780488,13.902439024390246,-0.2373046875,0.0556640625,-0.1142578125
985,2.956,IMU2,-14.51219512195122,-1.0975609756097562,13.353658536585368,-0.2490234375,0.05078125,-0.107421875
986,2.966,IMU0,-13.841463414634148,-2.7439024390243905,12.256097560975611,-0.2333984375,0.0703125,-0.1318359375
987,2.966,IMU1,-11.341463414634147,-4.207317073170732,12.256097560975611,-0.236328125,0.0751953125,-0.126953125
988,2.966,IMU2,-12.621951219512196,-2.439024390243903,11.646341463414634,-0.244140625,0.06640625,-0.126953125
989,2.976,IMU0,-11.646341463414634,-2.6219512195121952,11.341463414634147,-0.240234375,0.0537109375,-0.115234375
990,2.976,IMU1,-9.26829268292683,-3.9024390243902443,11.341463414634147,-0.2451171875,0.0595703125,-0.1123046875
991,2.976,IMU2,-10.426829268292684,-2.378048780487805,10.731707317073171,-0.255859375,0.048828125,-0.11328125
992,2.986,IMU0,-10.365853658536587,-2.3170731707317076,10.182926829268293,-0.2373046875,0.0419921875,-0.111328125
993,2.986,IMU1,-7.987804878048781,-3.7195121951219514,10.30487804878049,-0.2431640625,0.046875,-0.107421875
994,2.986,IMU2,-9.207317073170733,-2.0121951219512195,9.634146341463415,-0.2548828125,0.0390625,-0.109375
995,2.996,IMU0,-9.329268292682928,-2.6219512195121952,8.902439024390244,-0.2392578125,0.060546875,-0.0986328125
996,2.996,IMU1,-6.951219512195123,-3.963414634146342,9.02439024390244,-0.2451171875,0.064453125,-0.0947265625
997,2.996,IMU2,-8.170731707317074,-2.439024390243903,8.475609756097562,-0.25390625,0.05859375,-0.09765625
998,3.006,IMU0,-9.146341463414634,-3.1707317073170733,8.170731707317074,-0.236328125,0.0546875,-0.1083984375
999,3.006,IMU1,-6.7682926829268295,-4.51219512195122,8.292682926829269,-0.2431640625,0.0576171875,-0.1083984375
1000,3.006,IMU2,-7.926829268292684,-2.9268292682926833,7.621951219512196,-0.25390625,0.05078125,-0.107421875
1001,3.016,IMU0,-8.536585365853659,-2.987804878048781,7.743902439024391,-0.2314453125,0.0546875,-0.1201171875
1002,3.016,IMU1,-6.158536585365854,-4.390243902439025,7.8048780487804885,-0.2373046875,0.0576171875,-0.1201171875
1003,3.016,IMU2,-7.25609756097561,-2.6219512195121952,7.195121951219513,-0.2470703125,0.0498046875,-0.1201171875
1004,3.026,IMU0,-8.231707317073171,-2.1951219512195124,7.8048780487804885,-0.2314453125,0.04296875,-0.1162109375
1005,3.026,IMU1,-5.853658536585367,-3.658536585365854,7.865853658536586,-0.2373046875,0.046875,-0.1162109375
1006,3.026,IMU2,-6.890243902439025,-1.8902439024390245,7.25609756097561,-0.2470703125,0.041015625,-0.119140625
1007,3.036,IMU0,-8.109756097560977,-1.402439024390244,8.231707317073171,-0.2255859375,0.037109375,-0.12109375
1008,3.036,IMU1,-5.853658536585367,-2.804878048780488,8.231707317073171,-0.2294921875,0.0419921875,-0.12109375
1009,3.036,IMU2,-6.890243902439025,-1.0975609756097562,7.621951219512196,-0.2431640625,0.0322265625,-0.1279296875
1010,3.046,IMU0,-8.170731707317074,-0.3658536585365854,8.414634146341465,-0.2197265625,0.03515625,-0.1103515625
1011,3.046,IMU1,-5.853658536585367,-1.707317073170732,8.475609756097562,-0.224609375,0.0400390625,-0.1083984375
1012,3.046,IMU2,-6.951219512195123,-0.12195121951219513,7.8048780487804885,-0.2333984375,0.0302734375,-0.1181640625
1013,3.056,IMU0,-8.597560975609756,0.48780487804878053,8.231707317073171,-0.2119140625,0.04296875,-0.115234375
1014,3.056,IMU1,-6.402439024390245,-0.9146341463414634,8.292682926829269,-0.21875,0.0478515625,-0.11328125
1015,3.056,IMU2,-7.500000000000001,0.7926829268292683,7.682926829268293,-0.22265625,0.0380859375,-0.1162109375
1016,3.066,IMU0,-9.390243902439025,1.524390243902439,7.743902439024391,-0.2060546875,0.0380859375,-0.1181640625
1017,3.066,IMU1,-7.073170731707318,0.12195121951219513,7.8048780487804885,-0.2119140625,0.0419921875,-0.1162109375
1018,3.066,IMU2,-8.292682926829269,1.829268292682927,7.195121951219513,-0.2197265625,0.037109375,-0.1142578125
1019,3.076,IMU0,-10.24390243902439,2.378048780487805,7.01219512195122,-0.203125,0.0361328125,-0.111328125
1020,3.076,IMU1,-7.865853658536586,1.0365853658536586,7.073170731707318,-0.20703125,0.0390625,-0.1083984375
1021,3.076,IMU2,-9.02439024390244,2.682926829268293,6.463414634146342,-0.2197265625,0.03515625,-0.109375
1022,3.086,IMU0,-10.609756097560977,3.1707317073170733,5.7926829268292686,-0.1943359375,0.0419921875,-0.123046875
1023,3.086,IMU1,-8.292682926829269,1.8902439024390245,5.914634146341464,-0.2001953125,0.046875,-0.1181640625
1024,3.086,IMU2,-9.573170731707318,3.4756097560975614,5.2439024390243905,-0.2080078125,0.03515625,-0.125
1025,3.096,IMU0,-10.487804878048781,4.085365853658537,4.51219512195122,-0.189453125,0.0439453125,-0.1123046875
1026,3.096,IMU1,-8.170731707317074,2.682926829268293,4.634146341463415,-0.193359375,0.048828125,-0.10546875
1027,3.096,IMU2,-9.573170731707318,4.390243902439025,4.024390243902439,-0.197265625,0.0390625,-0.1123046875
1028,3.106,IMU0,-10.670731707317074,4.634146341463415,3.414634146341464,-0.1953125,0.033203125,-0.09765625
1029,3.106,IMU1,-8.414634146341465,3.1707317073170733,3.414634146341464,-0.197265625,0.0390625,-0.0908203125
1030,3.106,IMU2,-9.756097560975611,4.939024390243903,2.8658536585365857,-0.2080078125,0.033203125,-0.0927734375
1031,3.116,IMU0,-10.731707317073171,4.878048780487806,2.5609756097560976,-0.1923828125,0.0283203125,-0.087890625
1032,3.116,IMU1,-8.414634146341465,3.414634146341464,2.6219512195121952,-0.1953125,0.0341796875,-0.0849609375
1033,3.116,IMU2,-9.634146341463415,5.182926829268293,2.0121951219512195,-0.203125,0.0283203125,-0.08984375
1034,3.126,IMU0,-11.28048780487805,4.878048780487806,2.378048780487805,-0.1728515625,0.044921875,-0.083984375
1035,3.126,IMU1,-9.02439024390244,3.536585365853659,2.439024390243903,-0.17578125,0.048828125,-0.083984375
1036,3.126,IMU2,-10.121951219512196,5.182926829268293,1.829268292682927,-0.189453125,0.0380859375,-0.087890625
1037,3.136,IMU0,-11.341463414634147,5.609756097560976,2.439024390243903,-0.173828125,0.048828125,-0.0849609375
1038,3.136,IMU1,-9.146341463414634,4.2682926829268295,2.5,-0.177734375,0.052734375,-0.0830078125
1039,3.136,IMU2,-10.365853658536587,5.7926829268292686,1.8902439024390245,-0.185546875,0.0439453125,-0.0849609375
1040,3.146,IMU0,-11.036585365853659,5.670731707317073,1.7682926829268295,-0.1669921875,0.046875,-0.09765625
1041,3.146,IMU1,-8.78048780487805,4.329268292682928,1.829268292682927,-0.1708984375,0.0517578125,-0.08984375
1042,3.146,IMU2,-10.182926829268293,5.853658536585367,1.2804878048780488,-0.1748046875,0.044921875,-0.0947265625
1043,3.156,IMU0,-8.658536585365855,5.365853658536586,-0.1829268292682927,-0.1611328125,0.037109375,-0.1123046875
1044,3.156,IMU1,-6.52439024390244,4.085365853658537,-0.1829268292682927,-0.1650390625,0.0419921875,-0.1103515625
1045,3.156,IMU2,-7.743902439024391,5.914634146341464,-0.7317073170731708,-0.173828125,0.033203125,-0.109375
1046,3.166,IMU0,-8.719512195121952,5.853658536585367,-2.1341463414634148,-0.15625,0.0244140625,-0.1171875
1047,3.166,IMU1,-6.52439024390244,4.51219512195122,-2.0121951219512195,-0.1591796875,0.03125,-0.1181640625
1048,3.166,IMU2,-7.500000000000001,6.341463414634147,-2.6219512195121952,-0.166015625,0.0263671875,-0.1240234375
1049,3.176,IMU0,-9.817073170731708,5.670731707317073,-3.2926829268292686,-0.1416015625,0.048828125,-0.126953125
1050,3.176,IMU1,-7.682926829268293,4.390243902439025,-3.1707317073170733,-0.1494140625,0.0556640625,-0.1259765625
1051,3.176,IMU2,-8.902439024390244,6.036585365853659,-3.5975609756097566,-0.1650390625,0.046875,-0.12890625
1052,3.186,IMU0,-11.890243902439025,7.8048780487804885,-4.329268292682928,-0.1416015625,0.04296875,-0.1005859375
1053,3.186,IMU1,-9.817073170731708,6.52439024390244,-4.146341463414634,-0.1513671875,0.0498046875,-0.0966796875
1054,3.186,IMU2,-10.975609756097562,7.8048780487804885,-5.0,-0.1630859375,0.0390625,-0.09765625
1055,3.196,IMU0,-12.682926829268293,9.451219512195122,-7.682926829268293,-0.138671875,0.015625,-0.11328125
1056,3.196,IMU1,-10.670731707317074,8.048780487804878,-7.560975609756098,-0.146484375,0.021484375,-0.1064453125
1057,3.196,IMU2,-11.646341463414634,9.634146341463415,-8.048780487804878,-0.1591796875,0.009765625,-0.109375
1058,3.206,IMU0,-14.634146341463415,9.817073170731708,-12.621951219512196,-0.140625,0.017578125,-0.1396484375
1059,3.206,IMU1,-12.560975609756099,8.292682926829269,-12.439024390243903,-0.150390625,0.025390625,-0.1298828125
1060,3.206,IMU2,-13.841463414634148,10.670731707317074,-13.414634146341465,-0.1640625,0.017578125,-0.1298828125
1061,3.216,IMU0,-16.646341463414636,12.987804878048781,-17.073170731707318,-0.1259765625,0.0419921875,-0.14453125
1062,3.216,IMU1,-14.756097560975611,11.646341463414634,-16.890243902439025,-0.138671875,0.05078125,-0.134765625
1063,3.216,IMU2,-15.79268292682927,13.414634146341465,-17.378048780487806,-0.15234375,0.0439453125,-0.13671875
1064,3.226,IMU0,-18.902439024390244,16.52439024390244,-21.890243902439025,-0.1123046875,0.0380859375,-0.1162109375
1065,3.226,IMU1,-17.134146341463417,15.121951219512196,-21.707317073170735,-0.1240234375,0.0458984375,-0.1123046875
1066,3.226,IMU2,-17.98780487804878,16.70731707317073,-22.743902439024392,-0.1357421875,0.0341796875,-0.1162109375
1067,3.236,IMU0,-20.0609756097561,17.195121951219512,-26.52439024390244,-0.1064453125,0.0390625,-0.1376953125
1068,3.236,IMU1,-18.231707317073173,15.731707317073171,-26.28048780487805,-0.1181640625,0.044921875,-0.1337890625
1069,3.236,IMU2,-19.146341463414636,17.5609756097561,-26.89024390243903,-0.1298828125,0.03515625,-0.1357421875
1070,3.246,IMU0,-20.731707317073173,16.82926829268293,-31.03658536585366,-0.10546875,0.0615234375,-0.1298828125
1071,3.246,IMU1,-19.02439024390244,15.365853658536587,-30.731707317073173,-0.1123046875,0.0693359375,-0.1240234375
1072,3.246,IMU2,-19.878048780487806,17.25609756097561,-31.402439024390247,-0.1220703125,0.060546875,-0.1220703125
1073,3.256,IMU0,-20.426829268292686,17.134146341463417,-33.47560975609756,-0.111328125,0.046875,-0.111328125
1074,3.256,IMU1,-18.658536585365855,15.54878048780488,-33.23170731707317,-0.1181640625,0.052734375,-0.10546875
1075,3.256,IMU2,-19.573170731707318,17.439024390243905,-33.84146341463415,-0.1259765625,0.0419921875,-0.103515625
1076,3.266,IMU0,-20.79268292682927,16.70731707317073,-36.768292682926834,-0.1044921875,0.0576171875,-0.1103515625
1077,3.266,IMU1,-19.085365853658537,15.121951219512196,-36.524390243902445,-0.11328125,0.0625,-0.1015625
1078,3.266,IMU2,-20.0,17.012195121951223,-37.07317073170732,-0.123046875,0.0517578125,-0.1005859375
1079,3.276,IMU0,-20.243902439024392,16.158536585365855,-38.84146341463415,-0.0986328125,0.0556640625,-0.109375
1080,3.276,IMU1,-18.53658536585366,14.695121951219514,-38.65853658536586,-0.1044921875,0.0615234375,-0.1015625
1081,3.276,IMU2,-19.573170731707318,16.585365853658537,-39.207317073170735,-0.1123046875,0.0517578125,-0.1025390625
1082,3.286,IMU0,-20.731707317073173,15.670731707317074,-40.79268292682927,-0.0869140625,0.033203125,-0.1240234375
1083,3.286,IMU1,-19.085365853658537,14.085365853658537,-40.487804878048784,-0.0927734375,0.041015625,-0.12109375
1084,3.286,IMU2,-20.0609756097561,15.975609756097562,-41.15853658536586,-0.1005859375,0.03125,-0.1259765625
1085,3.296,IMU0,-21.646341463414636,15.487804878048783,-41.951219512195124,-0.09765625,0.0546875,-0.111328125
1086,3.296,IMU1,-20.0,13.963414634146343,-41.768292682926834,-0.10546875,0.05859375,-0.109375
1087,3.296,IMU2,-20.975609756097562,15.853658536585368,-42.37804878048781,-0.111328125,0.05078125,-0.1142578125
1088,3.306,IMU0,-21.890243902439025,15.426829268292684,-42.743902439024396,-0.08984375,0.0693359375,-0.1259765625
1089,3.306,IMU1,-20.243902439024392,13.841463414634148,-42.43902439024391,-0.0966796875,0.0732421875,-0.1201171875
1090,3.306,IMU2,-21.219512195121954,15.731707317073171,-43.170731707317074,-0.1015625,0.0654296875,-0.1201171875
1091,3.316,IMU0,-21.76829268292683,15.365853658536587,-43.59756097560976,-0.0927734375,0.041015625,-0.125
1092,3.316,IMU1,-20.121951219512198,13.841463414634148,-43.35365853658537,-0.0947265625,0.048828125,-0.1181640625
1093,3.316,IMU2,-21.03658536585366,15.79268292682927,-43.963414634146346,-0.1005859375,0.0390625,-0.1181640625
1094,3.326,IMU0,-21.76829268292683,15.182926829268293,-43.963414634146346,-0.09765625,0.0419921875,-0.107421875
1095,3.326,IMU1,-20.121951219512198,13.719512195121952,-43.65853658536586,-0.1044921875,0.0478515625,-0.1044921875
1096,3.326,IMU2,-21.03658536585366,15.54878048780488,-44.32926829268293,-0.1123046875,0.0380859375,-0.1103515625
