,ts,id,Gx,Gy,Gz,Ax,Ay,Az
0,-0.314,IMU0,-0.7926829268292683,0.1829268292682927,-0.6097560975609757,-0.9501953125,0.08984375,0.2783203125
1,-0.314,IMU1,1.7682926829268295,-1.0975609756097562,-0.48780487804878053,-0.94921875,0.0859375,0.2900390625
2,-0.314,IMU2,0.6097560975609757,0.24390243902439027,-1.0365853658536586,-0.9658203125,0.083984375,0.2734375
3,-0.304,IMU0,-0.6707317073170732,0.853658536585366,-1.0975609756097562,-0.9462890625,0.09375,0.27734375
4,-0.304,IMU1,1.524390243902439,-0.48780487804878053,-1.0365853658536586,-0.951171875,0.0908203125,0.2880859375
5,-0.304,IMU2,0.5487804878048781,0.9756097560975611,-1.524390243902439,-0.96484375,0.0888671875,0.279296875
6,-0.294,IMU0,-0.30487804878048785,-0.3658536585365854,-1.7682926829268295,-0.931640625,0.08984375,0.26953125
7,-0.294,IMU1,2.1951219512195124,-1.2195121951219514,-1.5853658536585367,-0.92578125,0.095703125,0.279296875
8,-0.294,IMU2,1.0365853658536586,-0.06097560975609757,-2.1341463414634148,-0.9423828125,0.0888671875,0.2646484375
9,-0.284,IMU0,-1.9512195121951221,-0.5487804878048781,-3.5975609756097566,-0.9677734375,0.103515625,0.2822265625
10,-0.284,IMU1,0.6707317073170732,-2.1951219512195124,-3.4756097560975614,-0.9560546875,0.0947265625,0.287109375
11,-0.284,IMU2,-0.6097560975609757,-0.5487804878048781,-4.024390243902439,-0.9775390625,0.0966796875,0.2724609375
12,-0.274,IMU0,-3.1707317073170733,0.6707317073170732,-7.560975609756098,-0.96484375,0.15234375,0.2490234375
13,-0.274,IMU1,-1.2195121951219514,-0.30487804878048785,-7.743902439024391,-0.9736328125,0.1376953125,0.2861328125
14,-0.274,IMU2,-2.073170731707317,1.0975609756097562,-8.109756097560977,-0.9921875,0.1416015625,0.263671875
15,-0.264,IMU0,-3.963414634146342,-1.0975609756097562,-11.402439024390246,-0.9189453125,0.1552734375,0.234375
16,-0.264,IMU1,-2.25609756097561,-1.5853658536585367,-11.707317073170733,-0.931640625,0.134765625,0.265625
17,-0.264,IMU2,-3.048780487804878,-0.48780487804878053,-11.951219512195124,-0.951171875,0.13671875,0.2578125
18,-0.254,IMU0,-5.7926829268292686,-1.1585365853658538,-17.073170731707318,-0.931640625,0.1416015625,0.2705078125
19,-0.254,IMU1,-4.207317073170732,-2.5609756097560976,-17.31707317073171,-0.9453125,0.1015625,0.2890625
20,-0.254,IMU2,-5.0,-0.9756097560975611,-17.621951219512198,-0.966796875,0.115234375,0.283203125
21,-0.244,IMU0,-8.841463414634147,-1.2195121951219514,-22.926829268292686,-0.9560546875,0.0849609375,0.2802734375
22,-0.244,IMU1,-7.317073170731708,-2.9268292682926833,-23.10975609756098,-0.9599609375,0.0927734375,0.298828125
23,-0.244,IMU2,-8.292682926829269,-1.3414634146341464,-23.53658536585366,-0.9794921875,0.0869140625,0.2861328125
24,-0.234,IMU0,-10.0,-1.2804878048780488,-24.146341463414636,-0.94921875,0.109375,0.2880859375
25,-0.234,IMU1,-7.317073170731708,-1.9512195121951221,-23.84146341463415,-0.9462890625,0.095703125,0.2919921875
26,-0.234,IMU2,-8.536585365853659,-0.7317073170731708,-24.451219512195124,-0.9638671875,0.1015625,0.2685546875
27,-0.224,IMU0,-7.926829268292684,-0.6097560975609757,-23.84146341463415,-0.9462890625,0.0673828125,0.2939453125
28,-0.224,IMU1,-5.3048780487804885,-2.378048780487805,-23.53658536585366,-0.9404296875,0.0341796875,0.2880859375
29,-0.224,IMU2,-6.402439024390245,-0.7926829268292683,-24.085365853658537,-0.9580078125,0.04296875,0.279296875
30,-0.214,IMU0,-8.597560975609756,-0.3658536585365854,-23.353658536585368,-0.9619140625,0.037109375,0.2587890625
31,-0.214,IMU1,-6.52439024390244,-1.4634146341463417,-23.10975609756098,-0.953125,0.0556640625,0.279296875
32,-0.214,IMU2,-7.560975609756098,0.0,-23.719512195121954,-0.970703125,0.0498046875,0.2607421875
33,-0.204,IMU0,-7.25609756097561,-0.6707317073170732,-21.463414634146343,-0.95703125,0.0419921875,0.2646484375
34,-0.204,IMU1,-4.75609756097561,-1.1585365853658538,-20.914634146341466,-0.9560546875,0.0146484375,0.265625
35,-0.204,IMU2,-5.7926829268292686,0.0,-21.585365853658537,-0.9677734375,0.0224609375,0.2529296875
36,-0.194,IMU0,-7.25609756097561,1.0975609756097562,-17.012195121951223,-1.0068359375,0.0439453125,0.33203125
37,-0.194,IMU1,-4.817073170731708,-0.6707317073170732,-16.34146341463415,-0.984375,0.05078125,0.359375
38,-0.194,IMU2,-6.036585365853659,0.9146341463414634,-17.073170731707318,-1.0,0.0498046875,0.3388671875
39,-0.184,IMU0,-4.75609756097561,-5.121951219512195,-12.80487804878049,-1.05859375,-0.00390625,0.2763671875
40,-0.184,IMU1,-2.7439024390243905,-5.548780487804878,-12.256097560975611,-1.060546875,-0.001953125,0.279296875
41,-0.184,IMU2,-3.658536585365854,-4.451219512195122,-12.926829268292684,-1.0673828125,-0.0029296875,0.265625
42,-0.174,IMU0,-3.7195121951219514,-2.5609756097560976,-5.670731707317073,-1.0244140625,0.0126953125,0.3603515625
43,-0.174,IMU1,-1.6463414634146343,-5.3048780487804885,-5.365853658536586,-1.015625,0.001953125,0.3701171875
44,-0.174,IMU2,-2.682926829268293,-3.658536585365854,-5.975609756097562,-1.0283203125,0.0029296875,0.3662109375
45,-0.164,IMU0,-3.2926829268292686,-2.987804878048781,-1.6463414634146343,-1.111328125,0.0400390625,0.337890625
46,-0.164,IMU1,-1.0975609756097562,-4.390243902439025,-1.6463414634146343,-1.1005859375,0.0107421875,0.36328125
47,-0.164,IMU2,-2.378048780487805,-3.231707317073171,-2.25609756097561,-1.1181640625,0.015625,0.3447265625
48,-0.154,IMU0,-3.8414634146341466,-6.402439024390245,-0.853658536585366,-1.21875,0.0634765625,0.42578125
49,-0.154,IMU1,-1.402439024390244,-7.682926829268293,-0.7317073170731708,-1.2529296875,0.0556640625,0.41015625
50,-0.154,IMU2,-2.5,-6.402439024390245,-1.2804878048780488,-1.26953125,0.0595703125,0.3916015625
51,-0.144,IMU0,-2.073170731707317,-1.1585365853658538,-0.6097560975609757,-1.3447265625,0.046875,0.5341796875
52,-0.144,IMU1,0.426829268292683,-2.25609756097561,-0.48780487804878053,-1.3359375,0.0498046875,0.541015625
53,-0.144,IMU2,-0.7317073170731708,-0.7317073170731708,-1.0975609756097562,-1.357421875,0.0556640625,0.515625
54,-0.134,IMU0,-2.25609756097561,-0.5487804878048781,-1.7682926829268295,-1.48828125,0.1015625,0.4599609375
55,-0.134,IMU1,0.24390243902439027,-1.9512195121951221,-1.524390243902439,-1.4990234375,0.05078125,0.4931640625
56,-0.134,IMU2,-0.6707317073170732,-0.6097560975609757,-2.1341463414634148,-1.5234375,0.0576171875,0.4716796875
57,-0.124,IMU0,-2.804878048780488,-2.6219512195121952,-2.987804878048781,-1.671875,0.0380859375,0.5732421875
58,-0.124,IMU1,-0.30487804878048785,-3.536585365853659,-2.7439024390243905,-1.6630859375,0.0283203125,0.58203125
59,-0.124,IMU2,-1.0975609756097562,-2.25609756097561,-3.353658536585366,-1.6904296875,0.0361328125,0.564453125
60,-0.114,IMU0,-0.9756097560975611,-2.682926829268293,-5.609756097560976,-1.7255859375,0.1103515625,0.5888671875
61,-0.114,IMU1,1.2804878048780488,-3.5975609756097566,-5.365853658536586,-1.71484375,0.0830078125,0.5791015625
62,-0.114,IMU2,0.426829268292683,-2.378048780487805,-6.036585365853659,-1.73828125,0.0947265625,0.556640625
63,-0.104,IMU0,-0.426829268292683,-2.9268292682926833,-4.451219512195122,-1.810546875,0.091796875,0.626953125
64,-0.104,IMU1,1.4634146341463417,-4.207317073170732,-4.207317073170732,-1.796875,0.0986328125,0.6259765625
65,-0.104,IMU2,0.5487804878048781,-2.7439024390243905,-4.817073170731708,-1.8212890625,0.1025390625,0.615234375
66,-0.094,IMU0,1.5853658536585367,0.3658536585365854,-4.329268292682928,-1.900390625,0.1298828125,0.6884765625
67,-0.094,IMU1,3.5975609756097566,-1.0365853658536586,-4.085365853658537,-1.8876953125,0.1005859375,0.693359375
68,-0.094,IMU2,2.5,0.1829268292682927,-4.695121951219512,-1.9140625,0.1162109375,0.67578125
69,-0.084,IMU0,1.3414634146341464,4.939024390243903,-6.829268292682928,-2.1318359375,0.1552734375,0.708984375
70,-0.084,IMU1,3.5975609756097566,3.536585365853659,-6.829268292682928,-2.1103515625,0.1416015625,0.7216796875
71,-0.084,IMU2,2.6219512195121952,5.121951219512195,-7.25609756097561,-2.12890625,0.1533203125,0.6943359375
72,-0.074,IMU0,0.853658536585366,4.329268292682928,-4.329268292682928,-2.30078125,0.0947265625,0.7578125
73,-0.074,IMU1,3.048780487804878,2.987804878048781,-4.085365853658537,-2.2822265625,0.083984375,0.7705078125
74,-0.074,IMU2,2.0121951219512195,4.2682926829268295,-4.634146341463415,-2.306640625,0.0927734375,0.7421875
75,-0.064,IMU0,1.707317073170732,7.195121951219513,-1.6463414634146343,-2.4140625,0.306640625,0.82421875
76,-0.064,IMU1,3.780487804878049,5.731707317073171,-1.402439024390244,-2.3994140625,0.2978515625,0.826171875
77,-0.064,IMU2,3.048780487804878,7.01219512195122,-2.0121951219512195,-2.4306640625,0.3056640625,0.794921875
78,-0.054,IMU0,2.1341463414634148,7.621951219512196,-2.8658536585365857,-2.4951171875,0.248046875,0.806640625
79,-0.054,IMU1,3.780487804878049,6.219512195121951,-2.682926829268293,-2.4765625,0.185546875,0.8076171875
80,-0.054,IMU2,3.1707317073170733,7.195121951219513,-3.231707317073171,-2.49609375,0.236328125,0.7978515625
81,-0.044,IMU0,1.5853658536585367,2.682926829268293,-1.707317073170732,-2.595703125,0.00390625,0.8388671875
82,-0.044,IMU1,3.414634146341464,1.8902439024390245,-1.5853658536585367,-2.568359375,-0.02734375,0.8564453125
83,-0.044,IMU2,2.6219512195121952,2.6219512195121952,-2.0121951219512195,-2.5859375,-0.001953125,0.8544921875
84,-0.034,IMU0,1.3414634146341464,-0.5487804878048781,4.878048780487806,-2.642578125,0.05078125,0.85546875
85,-0.034,IMU1,3.1707317073170733,-1.5853658536585367,5.121951219512195,-2.6201171875,0.07421875,0.8828125
86,-0.034,IMU2,2.682926829268293,-0.426829268292683,4.451219512195122,-2.658203125,0.04296875,0.8603515625
87,-0.024,IMU0,1.8902439024390245,-2.682926829268293,6.097560975609756,-2.73828125,0.1220703125,0.9208984375
88,-0.024,IMU1,3.9024390243902443,-3.5975609756097566,6.2804878048780495,-2.7158203125,0.146484375,0.9462890625
89,-0.024,IMU2,2.987804878048781,-2.5609756097560976,5.731707317073171,-2.7509765625,0.1083984375,0.916015625
90,-0.014,IMU0,1.2195121951219514,-5.609756097560976,7.073170731707318,-2.7509765625,0.1484375,0.9375
91,-0.014,IMU1,3.048780487804878,-6.707317073170732,7.317073170731708,-2.732421875,0.1591796875,0.9453125
92,-0.014,IMU2,2.25609756097561,-5.2439024390243905,6.707317073170732,-2.771484375,0.12890625,0.916015625
93,-0.004,IMU0,2.073170731707317,-2.439024390243903,6.52439024390244,-2.7578125,0.09765625,0.9443359375
94,-0.004,IMU1,4.451219512195122,-3.231707317073171,6.707317073170732,-2.7412109375,0.0986328125,0.97265625
95,-0.004,IMU2,3.231707317073171,-1.6463414634146343,6.097560975609756,-2.775390625,0.08203125,0.9501953125
96,0.006,IMU0,1.707317073170732,1.8902439024390245,3.780487804878049,-2.84765625,0.0126953125,0.953125
97,0.006,IMU1,3.780487804878049,0.9756097560975611,4.024390243902439,-2.8271484375,0.0,0.9697265625
98,0.006,IMU2,2.987804878048781,2.3170731707317076,3.353658536585366,-2.8603515625,0.0048828125,0.9482421875
99,0.016,IMU0,1.2804878048780488,3.658536585365854,2.5609756097560976,-2.9853515625,0.0263671875,0.978515625
100,0.016,IMU1,3.2926829268292686,2.8658536585365857,2.804878048780488,-2.97265625,-0.0185546875,1.015625
101,0.016,IMU2,2.5,3.414634146341464,2.1341463414634148,-2.990234375,0.0380859375,0.9951171875
102,0.026,IMU0,0.426829268292683,2.804878048780488,-1.524390243902439,-3.0615234375,0.140625,1.0419921875
103,0.026,IMU1,2.5609756097560976,2.1341463414634148,-1.2195121951219514,-3.0537109375,0.068359375,1.044921875
104,0.026,IMU2,1.2804878048780488,3.048780487804878,-2.0121951219512195,-3.080078125,0.1611328125,1.025390625
105,0.036,IMU0,-0.48780487804878053,0.853658536585366,-3.9024390243902443,-3.1396484375,0.208984375,1.0908203125
106,0.036,IMU1,1.524390243902439,0.12195121951219513,-3.7195121951219514,-3.123046875,0.181640625,1.0908203125
107,0.036,IMU2,0.6097560975609757,1.3414634146341464,-4.207317073170732,-3.15234375,0.1904296875,1.0546875
108,0.046,IMU0,0.48780487804878053,-0.24390243902439027,-1.707317073170732,-3.1845703125,0.1201171875,1.1083984375
109,0.046,IMU1,2.1951219512195124,-1.0365853658536586,-1.524390243902439,-3.1552734375,0.1142578125,1.111328125
110,0.046,IMU2,1.5853658536585367,0.1829268292682927,-1.9512195121951221,-3.1865234375,0.09765625,1.0986328125
111,0.056,IMU0,1.524390243902439,-0.48780487804878053,0.6707317073170732,-3.1767578125,0.1337890625,1.0927734375
112,0.056,IMU1,3.780487804878049,-1.524390243902439,0.9146341463414634,-3.1611328125,0.0986328125,1.1201171875
113,0.056,IMU2,2.8658536585365857,-0.30487804878048785,0.24390243902439027,-3.1953125,0.1328125,1.080078125
114,0.066,IMU0,1.524390243902439,0.12195121951219513,-1.4634146341463417,-3.2392578125,0.130859375,1.1240234375
115,0.066,IMU1,3.414634146341464,-1.0975609756097562,-1.1585365853658538,-3.21875,0.1162109375,1.13671875
116,0.066,IMU2,2.7439024390243905,0.1829268292682927,-1.8902439024390245,-3.2587890625,0.1123046875,1.109375
117,0.076,IMU0,0.9756097560975611,0.6097560975609757,-4.024390243902439,-3.287109375,0.1005859375,1.130859375
118,0.076,IMU1,3.231707317073171,-0.3658536585365854,-3.8414634146341466,-3.2626953125,0.056640625,1.1435546875
119,0.076,IMU2,2.0121951219512195,0.5487804878048781,-4.451219512195122,-3.291015625,0.1259765625,1.134765625
120,0.086,IMU0,1.3414634146341464,-0.9146341463414634,-1.402439024390244,-3.314453125,0.17578125,1.15234375
121,0.086,IMU1,3.9024390243902443,-2.073170731707317,-1.402439024390244,-3.291015625,0.13671875,1.1572265625
122,0.086,IMU2,2.25609756097561,-1.1585365853658538,-1.7682926829268295,-3.3310546875,0.162109375,1.1318359375
123,0.096,IMU0,1.707317073170732,-2.5609756097560976,1.707317073170732,-3.3349609375,0.1240234375,1.1708984375
124,0.096,IMU1,3.963414634146342,-3.414634146341464,1.7682926829268295,-3.3115234375,0.1171875,1.19140625
125,0.096,IMU2,2.8658536585365857,-2.5,1.3414634146341464,-3.3408203125,0.103515625,1.15625
126,0.106,IMU0,1.6463414634146343,-2.5,-0.7317073170731708,-3.330078125,0.1533203125,1.1650390625
127,0.106,IMU1,3.9024390243902443,-3.231707317073171,-0.48780487804878053,-3.3173828125,0.10546875,1.181640625
128,0.106,IMU2,2.5,-2.5609756097560976,-1.1585365853658538,-3.341796875,0.1767578125,1.146484375
129,0.116,IMU0,-0.5487804878048781,-3.353658536585366,-3.353658536585366,-3.349609375,0.185546875,1.1826171875
130,0.116,IMU1,2.3170731707317076,-4.2682926829268295,-3.1707317073170733,-3.3359375,0.16015625,1.1875
131,0.116,IMU2,0.48780487804878053,-3.1097560975609757,-3.963414634146342,-3.373046875,0.169921875,1.1552734375
132,0.126,IMU0,0.12195121951219513,-1.829268292682927,-3.414634146341464,-3.373046875,0.1474609375,1.1845703125
133,0.126,IMU1,2.804878048780488,-2.804878048780488,-3.353658536585366,-3.34765625,0.1181640625,1.2001953125
134,0.126,IMU2,1.1585365853658538,-1.524390243902439,-3.536585365853659,-3.3720703125,0.150390625,1.1796875
135,0.136,IMU0,0.7317073170731708,-0.48780487804878053,-1.9512195121951221,-3.4072265625,0.1572265625,1.1591796875
136,0.136,IMU1,2.987804878048781,-1.6463414634146343,-1.6463414634146343,-3.38671875,0.1201171875,1.17578125
137,0.136,IMU2,1.4634146341463417,-0.24390243902439027,-2.25609756097561,-3.423828125,0.1533203125,1.1328125
138,0.146,IMU0,-0.48780487804878053,-4.817073170731708,-1.8902439024390245,-3.4609375,0.2080078125,1.12109375
139,0.146,IMU1,2.073170731707317,-5.7926829268292686,-1.6463414634146343,-3.443359375,0.1640625,1.140625
140,0.146,IMU2,0.12195121951219513,-4.634146341463415,-2.3170731707317076,-3.474609375,0.2177734375,1.134765625
141,0.156,IMU0,-2.5,-4.146341463414634,-5.121951219512195,-3.4130859375,0.2265625,1.1806640625
142,0.156,IMU1,-0.06097560975609757,-5.487804878048781,-4.939024390243903,-3.392578125,0.1982421875,1.173828125
143,0.156,IMU2,-1.524390243902439,-3.9024390243902443,-5.487804878048781,-3.427734375,0.189453125,1.154296875
144,0.166,IMU0,-2.439024390243903,-4.2682926829268295,-3.8414634146341466,-3.4052734375,0.1552734375,1.126953125
145,0.166,IMU1,0.12195121951219513,-5.2439024390243905,-3.780487804878049,-3.384765625,0.1220703125,1.134765625
146,0.166,IMU2,-1.1585365853658538,-3.7195121951219514,-4.146341463414634,-3.4033203125,0.1728515625,1.1328125
147,0.176,IMU0,-2.5609756097560976,0.06097560975609757,-0.9756097560975611,-3.3984375,0.2587890625,1.224609375
148,0.176,IMU1,0.853658536585366,-1.7682926829268295,-0.9756097560975611,-3.376953125,0.224609375,1.212890625
149,0.176,IMU2,-1.0975609756097562,-0.12195121951219513,-1.402439024390244,-3.4150390625,0.2265625,1.1728515625
150,0.186,IMU0,-2.5609756097560976,5.670731707317073,-2.1951219512195124,-3.43359375,0.15234375,1.197265625
151,0.186,IMU1,0.1829268292682927,4.085365853658537,-1.9512195121951221,-3.41015625,0.1240234375,1.2333984375
152,0.186,IMU2,-1.3414634146341464,5.3048780487804885,-2.439024390243903,-3.4326171875,0.18359375,1.240234375
153,0.196,IMU0,-2.7439024390243905,8.048780487804878,2.073170731707317,-3.4794921875,0.224609375,1.2998046875
154,0.196,IMU1,-0.6707317073170732,6.829268292682928,2.3170731707317076,-3.4599609375,0.19921875,1.3017578125
155,0.196,IMU2,-1.524390243902439,8.414634146341465,1.829268292682927,-3.5029296875,0.1669921875,1.2568359375
156,0.206,IMU0,-1.7682926829268295,12.378048780487806,1.0975609756097562,-3.5263671875,0.1962890625,1.3037109375
157,0.206,IMU1,-0.1829268292682927,10.853658536585368,1.524390243902439,-3.5078125,0.134765625,1.326171875
158,0.206,IMU2,-0.6097560975609757,12.195121951219512,0.7926829268292683,-3.5390625,0.2421875,1.3212890625
159,0.216,IMU0,-1.6463414634146343,12.317073170731708,-0.7317073170731708,-3.583984375,0.173828125,1.2724609375
160,0.216,IMU1,0.30487804878048785,10.182926829268293,-0.6097560975609757,-3.5634765625,0.154296875,1.3134765625
161,0.216,IMU2,-0.30487804878048785,11.585365853658537,-1.1585365853658538,-3.6005859375,0.181640625,1.2900390625
162,0.226,IMU0,-1.4634146341463417,5.365853658536586,-0.48780487804878053,-3.6630859375,0.1962890625,1.3486328125
163,0.226,IMU1,1.2804878048780488,3.1097560975609757,-0.24390243902439027,-3.6376953125,0.1650390625,1.3330078125
164,0.226,IMU2,0.1829268292682927,4.939024390243903,-0.853658536585366,-3.6669921875,0.1708984375,1.287109375
165,0.236,IMU0,-1.402439024390244,-0.48780487804878053,-0.06097560975609757,-3.6328125,0.2001953125,1.373046875
166,0.236,IMU1,0.7317073170731708,-2.3170731707317076,0.12195121951219513,-3.607421875,0.1416015625,1.353515625
167,0.236,IMU2,0.1829268292682927,-0.24390243902439027,-0.48780487804878053,-3.640625,0.169921875,1.3232421875
168,0.246,IMU0,-0.9146341463414634,-1.4634146341463417,-0.7926829268292683,-3.603515625,0.2080078125,1.3642578125
169,0.246,IMU1,0.853658536585366,-1.524390243902439,-0.6707317073170732,-3.5869140625,0.18359375,1.40234375
170,0.246,IMU2,0.12195121951219513,-0.426829268292683,-1.2804878048780488,-3.625,0.2177734375,1.380859375
171,0.256,IMU0,-0.06097560975609757,0.9756097560975611,-1.524390243902439,-3.64453125,0.173828125,1.38671875
172,0.256,IMU1,2.7439024390243905,-0.3658536585365854,-1.402439024390244,-3.6181640625,0.197265625,1.4267578125
173,0.256,IMU2,1.8902439024390245,1.1585365853658538,-2.0121951219512195,-3.650390625,0.22265625,1.40625
174,0.266,IMU0,-0.9756097560975611,2.7439024390243905,-1.4634146341463417,-3.673828125,0.2216796875,1.478515625
175,0.266,IMU1,2.682926829268293,1.829268292682927,-1.2804878048780488,-3.650390625,0.169921875,1.4833984375
176,0.266,IMU2,1.4634146341463417,3.414634146341464,-1.8902439024390245,-3.681640625,0.1982421875,1.4501953125
177,0.276,IMU0,-0.6707317073170732,6.890243902439025,-1.0975609756097562,-3.6748046875,0.271484375,1.50390625
178,0.276,IMU1,1.5853658536585367,6.341463414634147,-1.0365853658536586,-3.6552734375,0.2001953125,1.505859375
179,0.276,IMU2,1.5853658536585367,7.317073170731708,-1.7682926829268295,-3.689453125,0.2314453125,1.4697265625
180,0.286,IMU0,-0.30487804878048785,9.26829268292683,-2.7439024390243905,-3.6982421875,0.2509765625,1.517578125
181,0.286,IMU1,1.5853658536585367,8.475609756097562,-2.6219512195121952,-3.685546875,0.2001953125,1.5322265625
182,0.286,IMU2,0.9756097560975611,9.695121951219512,-3.231707317073171,-3.71875,0.2294921875,1.4990234375
183,0.296,IMU0,0.3658536585365854,5.548780487804878,-2.987804878048781,-3.7568359375,0.2578125,1.451171875
184,0.296,IMU1,3.1707317073170733,4.51219512195122,-2.9268292682926833,-3.744140625,0.201171875,1.458984375
185,0.296,IMU2,1.4634146341463417,5.182926829268293,-3.536585365853659,-3.7822265625,0.23046875,1.4326171875
186,0.306,IMU0,-3.9024390243902443,-1.2195121951219514,-10.365853658536587,-3.6533203125,0.3017578125,1.4111328125
187,0.306,IMU1,-2.25609756097561,-1.4634146341463417,-10.731707317073171,-3.6376953125,0.26171875,1.439453125
188,0.306,IMU2,-3.1097560975609757,-1.4634146341463417,-11.463414634146343,-3.677734375,0.2890625,1.408203125
189,0.316,IMU0,-0.12195121951219513,-0.12195121951219513,-13.597560975609758,-3.560546875,0.2763671875,1.44921875
190,0.316,IMU1,0.6707317073170732,-0.7926829268292683,-13.109756097560977,-3.537109375,0.2861328125,1.4501953125
191,0.316,IMU2,0.426829268292683,-1.1585365853658538,-13.78048780487805,-3.568359375,0.318359375,1.427734375
192,0.326,IMU0,1.5853658536585367,0.7926829268292683,-6.341463414634147,-3.484375,0.2255859375,1.3955078125
193,0.326,IMU1,4.573170731707317,-0.6097560975609757,-5.0,-3.43359375,0.228515625,1.43359375
194,0.326,IMU2,2.804878048780488,0.12195121951219513,-5.365853658536586,-3.447265625,0.2646484375,1.4033203125
195,0.336,IMU0,2.5,0.5487804878048781,-0.6097560975609757,-3.4423828125,0.3251953125,1.37109375
196,0.336,IMU1,5.182926829268293,-1.707317073170732,-0.7926829268292683,-3.4208984375,0.294921875,1.3544921875
197,0.336,IMU2,3.353658536585366,-0.426829268292683,-1.402439024390244,-3.451171875,0.33203125,1.3525390625
198,0.346,IMU0,1.9512195121951221,0.9756097560975611,-9.573170731707318,-3.388671875,0.4521484375,1.3271484375
199,0.346,IMU1,4.634146341463415,-0.7317073170731708,-10.426829268292684,-3.3984375,0.3642578125,1.3271484375
200,0.346,IMU2,1.829268292682927,0.7317073170731708,-11.097560975609756,-3.443359375,0.3896484375,1.30078125
201,0.356,IMU0,-0.7926829268292683,-2.682926829268293,-15.243902439024392,-3.4423828125,0.533203125,1.291015625
202,0.356,IMU1,2.5,-4.451219512195122,-15.243902439024392,-3.4296875,0.4599609375,1.2841796875
203,0.356,IMU2,-0.7926829268292683,-3.2926829268292686,-15.609756097560977,-3.453125,0.470703125,1.2666015625
204,0.366,IMU0,-0.6097560975609757,-1.829268292682927,-13.04878048780488,-3.3486328125,0.5205078125,1.3564453125
205,0.366,IMU1,3.353658536585366,-2.682926829268293,-12.621951219512196,-3.3330078125,0.51171875,1.3642578125
206,0.366,IMU2,-0.06097560975609757,-1.2195121951219514,-12.926829268292684,-3.3505859375,0.5322265625,1.337890625
207,0.376,IMU0,1.2195121951219514,1.2195121951219514,-6.7682926829268295,-3.384765625,0.55859375,1.3359375
208,0.376,IMU1,5.487804878048781,0.24390243902439027,-6.7682926829268295,-3.3623046875,0.5498046875,1.3505859375
209,0.376,IMU2,2.1951219512195124,1.9512195121951221,-7.073170731707318,-3.3916015625,0.5791015625,1.310546875
210,0.386,IMU0,3.7195121951219514,5.182926829268293,-1.9512195121951221,-3.3251953125,0.6123046875,1.3955078125
211,0.386,IMU1,5.975609756097562,4.939024390243903,-1.1585365853658538,-3.30078125,0.5712890625,1.4130859375
212,0.386,IMU2,4.2682926829268295,6.036585365853659,-1.524390243902439,-3.3203125,0.59765625,1.392578125
213,0.396,IMU0,5.182926829268293,7.01219512195122,-2.804878048780488,-3.380859375,0.6552734375,1.3330078125
214,0.396,IMU1,8.231707317073171,5.975609756097562,-2.378048780487805,-3.375,0.6259765625,1.3427734375
215,0.396,IMU2,5.670731707317073,7.01219512195122,-3.048780487804878,-3.4091796875,0.650390625,1.3193359375
216,0.406,IMU0,5.487804878048781,0.3658536585365854,-4.573170731707317,-3.349609375,0.7333984375,1.259765625
217,0.406,IMU1,7.560975609756098,-0.3658536585365854,-4.2682926829268295,-3.333984375,0.68359375,1.2685546875
218,0.406,IMU2,6.097560975609756,0.0,-4.817073170731708,-3.349609375,0.6982421875,1.248046875
219,0.416,IMU0,0.24390243902439027,-7.25609756097561,-9.26829268292683,-3.203125,0.744140625,1.189453125
220,0.416,IMU1,2.6219512195121952,-7.865853658536586,-8.902439024390244,-3.1923828125,0.7265625,1.20703125
221,0.416,IMU2,1.0975609756097562,-6.890243902439025,-9.695121951219512,-3.2255859375,0.7353515625,1.1689453125
222,0.426,IMU0,0.5487804878048781,-9.26829268292683,-9.695121951219512,-3.18359375,0.7783203125,1.1806640625
223,0.426,IMU1,2.804878048780488,-10.30487804878049,-9.451219512195122,-3.1630859375,0.7431640625,1.19921875
224,0.426,IMU2,1.2804878048780488,-9.451219512195122,-10.060975609756099,-3.1904296875,0.7763671875,1.18359375
225,0.436,IMU0,1.8902439024390245,-11.829268292682928,-3.1097560975609757,-3.1279296875,0.7509765625,1.1435546875
226,0.436,IMU1,4.146341463414634,-12.865853658536587,-3.048780487804878,-3.1142578125,0.7109375,1.150390625
227,0.436,IMU2,2.5609756097560976,-11.28048780487805,-3.414634146341464,-3.1328125,0.751953125,1.138671875
228,0.446,IMU0,2.1341463414634148,-10.121951219512196,-2.25609756097561,-3.103515625,0.8046875,1.1318359375
229,0.446,IMU1,4.695121951219512,-11.52439024390244,-1.9512195121951221,-3.1015625,0.7783203125,1.123046875
230,0.446,IMU2,3.4756097560975614,-10.0,-2.682926829268293,-3.12109375,0.79296875,1.1123046875
231,0.456,IMU0,2.5,-8.292682926829269,-5.2439024390243905,-3.083984375,0.8203125,1.064453125
232,0.456,IMU1,4.451219512195122,-9.634146341463415,-5.0,-3.0771484375,0.7861328125,1.07421875
233,0.456,IMU2,3.414634146341464,-8.292682926829269,-5.670731707317073,-3.095703125,0.82421875,1.05859375
234,0.466,IMU0,3.1707317073170733,-8.902439024390244,-2.5,-3.09375,0.7607421875,1.04296875
235,0.466,IMU1,4.695121951219512,-9.939024390243903,-2.378048780487805,-3.0791015625,0.720703125,1.048828125
236,0.466,IMU2,4.75609756097561,-8.963414634146343,-2.7439024390243905,-3.0859375,0.7783203125,1.0380859375
237,0.476,IMU0,2.9268292682926833,-7.317073170731708,-1.9512195121951221,-3.07421875,0.744140625,1.033203125
238,0.476,IMU1,5.0,-8.414634146341465,-1.6463414634146343,-3.0703125,0.728515625,1.0341796875
239,0.476,IMU2,4.695121951219512,-7.195121951219513,-2.439024390243903,-3.087890625,0.736328125,1.0107421875
240,0.486,IMU0,2.0121951219512195,-7.317073170731708,-4.51219512195122,-3.0859375,0.779296875,1.0400390625
241,0.486,IMU1,4.75609756097561,-8.536585365853659,-4.2682926829268295,-3.083984375,0.75390625,1.03515625
242,0.486,IMU2,3.7195121951219514,-6.829268292682928,-5.060975609756098,-3.107421875,0.759765625,1.0107421875
243,0.496,IMU0,2.073170731707317,-5.548780487804878,-7.500000000000001,-3.048828125,0.71875,1.0361328125
244,0.496,IMU1,5.0,-6.707317073170732,-7.317073170731708,-3.041015625,0.6884765625,1.0576171875
245,0.496,IMU2,4.024390243902439,-5.121951219512195,-7.987804878048781,-3.05859375,0.728515625,1.0302734375
246,0.506,IMU0,2.1341463414634148,-4.695121951219512,-6.2804878048780495,-3.0341796875,0.6611328125,1.0322265625
247,0.506,IMU1,5.548780487804878,-5.853658536585367,-6.341463414634147,-3.017578125,0.65625,1.0419921875
248,0.506,IMU2,4.51219512195122,-4.51219512195122,-6.585365853658537,-3.03125,0.6357421875,1.00390625
249,0.516,IMU0,0.7926829268292683,-4.085365853658537,-3.8414634146341466,-3.056640625,0.7109375,1.0458984375
250,0.516,IMU1,3.5975609756097566,-4.817073170731708,-3.658536585365854,-3.0517578125,0.69140625,1.052734375
251,0.516,IMU2,2.439024390243903,-4.085365853658537,-4.390243902439025,-3.0859375,0.673828125,0.990234375
252,0.526,IMU0,-0.6097560975609757,-4.329268292682928,-2.9268292682926833,-3.07421875,0.689453125,1.041015625
253,0.526,IMU1,2.5,-4.51219512195122,-2.9268292682926833,-3.06640625,0.65234375,1.046875
254,0.526,IMU2,0.48780487804878053,-4.146341463414634,-3.231707317073171,-3.0830078125,0.6953125,1.00390625
255,0.536,IMU0,-2.1951219512195124,-6.585365853658537,-1.402439024390244,-3.03515625,0.6435546875,0.9873046875
256,0.536,IMU1,1.2195121951219514,-7.01219512195122,-1.2804878048780488,-3.03515625,0.623046875,0.99609375
257,0.536,IMU2,-0.1829268292682927,-6.402439024390245,-2.0121951219512195,-3.0478515625,0.6337890625,0.9697265625
258,0.546,IMU0,-6.402439024390245,-4.573170731707317,-5.914634146341464,-2.9833984375,0.67578125,1.0
259,0.546,IMU1,-2.7439024390243905,-5.060975609756098,-5.7926829268292686,-2.9814453125,0.6455078125,1.015625
260,0.546,IMU2,-4.51219512195122,-3.7195121951219514,-6.646341463414635,-3.0166015625,0.6494140625,0.9853515625
261,0.556,IMU0,-7.987804878048781,-2.804878048780488,-9.573170731707318,-2.970703125,0.6103515625,0.9521484375
262,0.556,IMU1,-5.3048780487804885,-3.5975609756097566,-9.390243902439025,-2.966796875,0.5615234375,0.9736328125
263,0.556,IMU2,-6.646341463414635,-2.5,-10.060975609756099,-2.9912109375,0.634765625,0.9404296875
264,0.566,IMU0,-7.865853658536586,-3.414634146341464,-4.024390243902439,-2.9443359375,0.5908203125,0.955078125
265,0.566,IMU1,-5.7926829268292686,-4.207317073170732,-3.963414634146342,-2.9365234375,0.564453125,0.9658203125
266,0.566,IMU2,-6.829268292682928,-3.4756097560975614,-4.2682926829268295,-2.95703125,0.59765625,0.95703125
267,0.576,IMU0,-7.560975609756098,1.3414634146341464,-6.7682926829268295,-2.8779296875,0.6201171875,0.9365234375
268,0.576,IMU1,-5.121951219512195,-0.426829268292683,-6.585365853658537,-2.869140625,0.6044921875,0.9453125
269,0.576,IMU2,-6.890243902439025,1.0365853658536586,-7.378048780487806,-2.8935546875,0.6142578125,0.9501953125
270,0.586,IMU0,-8.414634146341465,5.060975609756098,-10.914634146341465,-2.8994140625,0.6357421875,0.9443359375
271,0.586,IMU1,-6.585365853658537,3.4756097560975614,-10.670731707317074,-2.8876953125,0.6064453125,0.9296875
272,0.586,IMU2,-7.195121951219513,4.817073170731708,-11.28048780487805,-2.9052734375,0.6220703125,0.9111328125
273,0.596,IMU0,-7.439024390243903,7.073170731707318,-9.146341463414634,-2.8974609375,0.6416015625,0.9521484375
274,0.596,IMU1,-5.365853658536586,5.548780487804878,-8.902439024390244,-2.892578125,0.6142578125,0.9599609375
275,0.596,IMU2,-6.463414634146342,6.402439024390245,-9.51219512195122,-2.9091796875,0.6376953125,0.939453125
276,0.606,IMU0,-7.073170731707318,10.0,-11.097560975609756,-2.8505859375,0.5888671875,0.943359375
277,0.606,IMU1,-4.75609756097561,7.560975609756098,-10.914634146341465,-2.8408203125,0.57421875,0.9658203125
278,0.606,IMU2,-5.975609756097562,9.451219512195122,-11.463414634146343,-2.8671875,0.60546875,0.9423828125
279,0.616,IMU0,-5.2439024390243905,10.487804878048781,-10.548780487804878,-2.8544921875,0.6064453125,0.9345703125
280,0.616,IMU1,-3.780487804878049,8.536585365853659,-10.182926829268293,-2.8525390625,0.587890625,0.9208984375
281,0.616,IMU2,-3.658536585365854,10.121951219512196,-11.28048780487805,-2.873046875,0.61328125,0.912109375
282,0.626,IMU0,-4.75609756097561,10.24390243902439,-12.926829268292684,-2.8486328125,0.6220703125,0.92578125
283,0.626,IMU1,-2.9268292682926833,8.597560975609756,-12.621951219512196,-2.8369140625,0.5927734375,0.94921875
284,0.626,IMU2,-3.658536585365854,9.634146341463415,-13.353658536585368,-2.8544921875,0.611328125,0.9208984375
285,0.636,IMU0,-4.2682926829268295,9.756097560975611,-11.76829268292683,-2.8173828125,0.5537109375,0.896484375
286,0.636,IMU1,-1.402439024390244,8.048780487804878,-11.646341463414634,-2.810546875,0.509765625,0.908203125
287,0.636,IMU2,-3.536585365853659,9.451219512195122,-11.951219512195124,-2.8349609375,0.51953125,0.8896484375
288,0.646,IMU0,-1.2804878048780488,11.52439024390244,-2.5,-2.806640625,0.4873046875,0.9052734375
289,0.646,IMU1,0.1829268292682927,10.060975609756099,-2.378048780487805,-2.7822265625,0.4521484375,0.919921875
290,0.646,IMU2,-0.426829268292683,11.52439024390244,-3.2926829268292686,-2.7939453125,0.4736328125,0.9072265625
291,0.656,IMU0,-0.7317073170731708,15.243902439024392,-1.524390243902439,-2.8349609375,0.5302734375,0.919921875
292,0.656,IMU1,0.853658536585366,13.536585365853659,-1.2195121951219514,-2.8271484375,0.517578125,0.923828125
293,0.656,IMU2,-0.1829268292682927,14.939024390243905,-1.829268292682927,-2.8505859375,0.544921875,0.888671875
294,0.666,IMU0,-0.12195121951219513,17.682926829268293,-1.402439024390244,-2.8427734375,0.5283203125,0.9365234375
295,0.666,IMU1,1.707317073170732,16.219512195121954,-1.1585365853658538,-2.8291015625,0.5087890625,0.9521484375
296,0.666,IMU2,0.48780487804878053,17.31707317073171,-1.707317073170732,-2.8515625,0.53125,0.9345703125
297,0.676,IMU0,-0.1829268292682927,19.512195121951223,-2.7439024390243905,-2.7958984375,0.5341796875,0.8876953125
298,0.676,IMU1,0.5487804878048781,17.926829268292686,-2.3170731707317076,-2.7841796875,0.505859375,0.8984375
299,0.676,IMU2,0.12195121951219513,18.414634146341466,-2.9268292682926833,-2.8095703125,0.5263671875,0.8681640625
300,0.686,IMU0,0.5487804878048781,21.158536585365855,-2.8658536585365857,-2.875,0.4775390625,0.94921875
301,0.686,IMU1,1.829268292682927,20.121951219512198,-2.5,-2.8603515625,0.4482421875,0.9599609375
302,0.686,IMU2,1.707317073170732,20.975609756097562,-3.1707317073170733,-2.8818359375,0.470703125,0.9384765625
303,0.696,IMU0,-0.24390243902439027,15.853658536585368,0.7317073170731708,-2.8154296875,0.4794921875,0.8857421875
304,0.696,IMU1,2.0121951219512195,14.634146341463415,0.9146341463414634,-2.8017578125,0.4501953125,0.88671875
305,0.696,IMU2,1.2804878048780488,15.79268292682927,0.30487804878048785,-2.822265625,0.47265625,0.87890625
306,0.706,IMU0,-0.06097560975609757,12.987804878048781,-0.6097560975609757,-2.703125,0.4423828125,0.9248046875
307,0.706,IMU1,2.987804878048781,12.378048780487806,-0.48780487804878053,-2.6904296875,0.423828125,0.947265625
308,0.706,IMU2,1.402439024390244,13.29268292682927,-0.9756097560975611,-2.7158203125,0.4423828125,0.9228515625
309,0.716,IMU0,0.853658536585366,11.036585365853659,-0.6707317073170732,-2.671875,0.5078125,0.9521484375
310,0.716,IMU1,2.682926829268293,9.878048780487806,-0.426829268292683,-2.66796875,0.4931640625,0.951171875
311,0.716,IMU2,2.1951219512195124,11.219512195121952,-1.0365853658536586,-2.689453125,0.5087890625,0.927734375
312,0.726,IMU0,1.5853658536585367,12.74390243902439,-2.0121951219512195,-2.5771484375,0.50390625,1.005859375
313,0.726,IMU1,4.024390243902439,11.28048780487805,-1.8902439024390245,-2.5654296875,0.48828125,0.998046875
314,0.726,IMU2,3.231707317073171,12.865853658536587,-2.439024390243903,-2.5830078125,0.501953125,0.9716796875
315,0.736,IMU0,2.7439024390243905,10.731707317073171,-0.9756097560975611,-2.4873046875,0.5087890625,0.9267578125
316,0.736,IMU1,5.426829268292684,9.573170731707318,-0.6707317073170732,-2.48828125,0.4853515625,0.9345703125
317,0.736,IMU2,4.024390243902439,10.914634146341465,-1.2804878048780488,-2.509765625,0.5029296875,0.91796875
318,0.746,IMU0,2.6219512195121952,8.048780487804878,-1.6463414634146343,-2.451171875,0.5322265625,0.966796875
319,0.746,IMU1,4.085365853658537,7.987804878048781,-1.3414634146341464,-2.4482421875,0.5068359375,0.9658203125
320,0.746,IMU2,3.9024390243902443,8.841463414634147,-2.0121951219512195,-2.470703125,0.52734375,0.955078125
321,0.756,IMU0,2.3170731707317076,7.195121951219513,-3.5975609756097566,-2.3974609375,0.5361328125,0.9140625
322,0.756,IMU1,2.6219512195121952,6.7682926829268295,-3.231707317073171,-2.388671875,0.5078125,0.9345703125
323,0.756,IMU2,3.9024390243902443,8.292682926829269,-3.9024390243902443,-2.412109375,0.5302734375,0.916015625
324,0.766,IMU0,2.439024390243903,6.402439024390245,-2.8658536585365857,-2.322265625,0.5244140625,0.9345703125
325,0.766,IMU1,3.963414634146342,5.914634146341464,-2.5609756097560976,-2.3154296875,0.49609375,0.962890625
326,0.766,IMU2,3.5975609756097566,7.195121951219513,-3.231707317073171,-2.326171875,0.51953125,0.955078125
327,0.776,IMU0,2.8658536585365857,6.219512195121951,1.0975609756097562,-2.255859375,0.498046875,0.9140625
328,0.776,IMU1,5.2439024390243905,5.487804878048781,1.5853658536585367,-2.23828125,0.52734375,0.931640625
329,0.776,IMU2,3.7195121951219514,6.402439024390245,0.7926829268292683,-2.2607421875,0.494140625,0.9208984375
330,0.786,IMU0,2.0121951219512195,6.7682926829268295,0.48780487804878053,-2.23046875,0.4931640625,0.8955078125
331,0.786,IMU1,3.4756097560975614,5.7926829268292686,0.5487804878048781,-2.22265625,0.4697265625,0.9248046875
332,0.786,IMU2,2.5609756097560976,7.8048780487804885,0.1829268292682927,-2.24609375,0.4912109375,0.896484375
333,0.796,IMU0,1.3414634146341464,6.341463414634147,-1.1585365853658538,-2.21484375,0.49609375,0.9130859375
334,0.796,IMU1,3.536585365853659,5.487804878048781,-1.0365853658536586,-2.2080078125,0.5,0.939453125
335,0.796,IMU2,1.524390243902439,7.987804878048781,-1.4634146341463417,-2.2265625,0.4931640625,0.9189453125
336,0.806,IMU0,0.48780487804878053,4.390243902439025,-1.402439024390244,-2.201171875,0.498046875,0.908203125
337,0.806,IMU1,3.4756097560975614,2.8658536585365857,-1.0365853658536586,-2.1875,0.4873046875,0.919921875
338,0.806,IMU2,0.5487804878048781,4.329268292682928,-1.5853658536585367,-2.20703125,0.4921875,0.8984375
339,0.816,IMU0,0.9756097560975611,2.682926829268293,0.6707317073170732,-2.1298828125,0.515625,0.908203125
340,0.816,IMU1,3.4756097560975614,2.8658536585365857,-1.0365853658536586,-2.1875,0.4873046875,0.919921875
341,0.816,IMU2,1.0975609756097562,3.536585365853659,0.3658536585365854,-2.1318359375,0.5107421875,0.884765625
342,0.826,IMU0,-0.5487804878048781,3.658536585365854,1.3414634146341464,-2.0009765625,0.5029296875,0.8837890625
343,0.826,IMU1,-0.06097560975609757,4.024390243902439,1.2804878048780488,-1.9931640625,0.46875,0.896484375
344,0.826,IMU2,-0.30487804878048785,4.75609756097561,0.9756097560975611,-2.0224609375,0.5,0.859375
345,0.836,IMU0,-1.5853658536585367,11.52439024390244,-1.829268292682927,-2.0166015625,0.513671875,0.8935546875
346,0.836,IMU1,-0.6097560975609757,11.52439024390244,-1.402439024390244,-2.0146484375,0.4892578125,0.89453125
347,0.836,IMU2,-0.5487804878048781,12.439024390243903,-2.1341463414634148,-2.0263671875,0.5107421875,0.8798828125
348,0.846,IMU0,-1.7682926829268295,13.414634146341465,-1.0975609756097562,-2.029296875,0.546875,0.8974609375
349,0.846,IMU1,-1.2804878048780488,12.500000000000002,-0.853658536585366,-2.0283203125,0.525390625,0.8935546875
350,0.846,IMU2,-0.7317073170731708,14.26829268292683,-1.4634146341463417,-2.0458984375,0.5478515625,0.8798828125
351,0.856,IMU0,-0.7926829268292683,13.658536585365855,-3.7195121951219514,-2.0625,0.5908203125,0.8857421875
352,0.856,IMU1,-0.853658536585366,12.74390243902439,-3.536585365853659,-2.0703125,0.5595703125,0.89453125
353,0.856,IMU2,-0.6707317073170732,13.841463414634148,-3.963414634146342,-2.0869140625,0.5908203125,0.892578125
354,0.866,IMU0,-1.829268292682927,11.402439024390246,-4.939024390243903,-2.064453125,0.595703125,0.900390625
355,0.866,IMU1,-0.3658536585365854,10.426829268292684,-4.634146341463415,-2.072265625,0.5791015625,0.912109375
356,0.866,IMU2,-1.2195121951219514,10.792682926829269,-5.2439024390243905,-2.080078125,0.599609375,0.90234375
357,0.876,IMU0,-1.0975609756097562,12.378048780487806,-5.609756097560976,-2.0732421875,0.6201171875,0.9267578125
358,0.876,IMU1,0.0,11.52439024390244,-5.182926829268293,-2.0673828125,0.607421875,0.9384765625
359,0.876,IMU2,-0.24390243902439027,12.621951219512196,-5.7926829268292686,-2.078125,0.6201171875,0.916015625
360,0.886,IMU0,-0.6707317073170732,15.426829268292684,-4.695121951219512,-2.080078125,0.591796875,0.9638671875
361,0.886,IMU1,0.5487804878048781,14.451219512195124,-4.085365853658537,-2.07421875,0.5869140625,0.958984375
362,0.886,IMU2,0.5487804878048781,15.731707317073171,-4.878048780487806,-2.0849609375,0.5869140625,0.9443359375
363,0.896,IMU0,1.7682926829268295,17.134146341463417,-1.4634146341463417,-2.0673828125,0.6572265625,0.9189453125
364,0.896,IMU1,2.987804878048781,15.853658536585368,-1.402439024390244,-2.064453125,0.6474609375,0.93359375
365,0.896,IMU2,3.353658536585366,16.82926829268293,-1.7682926829268295,-2.0888671875,0.6513671875,0.9130859375
366,0.906,IMU0,1.4634146341463417,16.34146341463415,-3.231707317073171,-2.0546875,0.6494140625,0.919921875
367,0.906,IMU1,3.7195121951219514,13.597560975609758,-2.804878048780488,-2.0419921875,0.6357421875,0.947265625
368,0.906,IMU2,2.5609756097560976,15.54878048780488,-3.353658536585366,-2.060546875,0.642578125,0.9140625
369,0.916,IMU0,-0.48780487804878053,13.475609756097562,-4.634146341463415,-1.99609375,0.6357421875,0.9130859375
370,0.916,IMU1,2.378048780487805,12.256097560975611,-4.878048780487806,-1.9951171875,0.6015625,0.9150390625
371,0.916,IMU2,0.48780487804878053,13.902439024390246,-5.060975609756098,-2.013671875,0.6142578125,0.8935546875
372,0.926,IMU0,-0.12195121951219513,14.02439024390244,-5.670731707317073,-1.9912109375,0.6796875,0.9248046875
373,0.926,IMU1,2.378048780487805,11.890243902439025,-5.548780487804878,-1.9833984375,0.6474609375,0.919921875
374,0.926,IMU2,0.6097560975609757,14.146341463414636,-5.914634146341464,-2.00390625,0.658203125,0.9130859375
375,0.936,IMU0,-0.7317073170731708,15.243902439024392,-7.500000000000001,-1.978515625,0.6552734375,0.92578125
376,0.936,IMU1,1.0975609756097562,14.02439024390244,-7.378048780487806,-1.97265625,0.623046875,0.92578125
377,0.936,IMU2,-0.426829268292683,15.609756097560977,-7.987804878048781,-1.9873046875,0.64453125,0.9169921875
378,0.946,IMU0,-0.5487804878048781,15.914634146341465,-1.402439024390244,-1.984375,0.66796875,0.9072265625
379,0.946,IMU1,1.3414634146341464,15.243902439024392,-1.3414634146341464,-1.9775390625,0.625,0.9169921875
380,0.946,IMU2,0.3658536585365854,15.853658536585368,-2.1341463414634148,-1.9833984375,0.6611328125,0.890625
381,0.956,IMU0,2.1341463414634148,18.475609756097562,5.609756097560976,-1.90625,0.638671875,0.9501953125
382,0.956,IMU1,4.573170731707317,16.82926829268293,5.853658536585367,-1.8994140625,0.6416015625,0.939453125
383,0.956,IMU2,3.4756097560975614,17.743902439024392,5.0,-1.9091796875,0.669921875,0.9150390625
384,0.966,IMU0,3.4756097560975614,18.04878048780488,5.121951219512195,-1.9111328125,0.642578125,0.9072265625
385,0.966,IMU1,5.182926829268293,17.865853658536587,5.487804878048781,-1.9091796875,0.6494140625,0.923828125
386,0.966,IMU2,5.182926829268293,18.78048780487805,5.0,-1.927734375,0.6806640625,0.88671875
387,0.976,IMU0,1.7682926829268295,15.670731707317074,-2.073170731707317,-1.8994140625,0.6103515625,0.904296875
388,0.976,IMU1,4.024390243902439,14.756097560975611,-1.7682926829268295,-1.896484375,0.61328125,0.9130859375
389,0.976,IMU2,3.780487804878049,16.585365853658537,-2.25609756097561,-1.91015625,0.6396484375,0.9033203125
390,0.986,IMU0,2.804878048780488,16.28048780487805,-3.1097560975609757,-1.8955078125,0.630859375,0.92578125
391,0.986,IMU1,5.365853658536586,15.182926829268293,-2.7439024390243905,-1.892578125,0.6298828125,0.919921875
392,0.986,IMU2,5.914634146341464,16.097560975609756,-3.353658536585366,-1.912109375,0.6513671875,0.9306640625
393,0.996,IMU0,4.207317073170732,17.134146341463417,-2.378048780487805,-1.8955078125,0.6435546875,0.986328125
394,0.996,IMU1,6.2804878048780495,15.853658536585368,-2.1951219512195124,-1.884765625,0.63671875,1.01171875
395,0.996,IMU2,6.585365853658537,16.890243902439025,-3.048780487804878,-1.9033203125,0.6455078125,0.97265625
396,1.006,IMU0,4.878048780487806,19.02439024390244,-0.30487804878048785,-1.8935546875,0.6005859375,0.9296875
397,1.006,IMU1,5.487804878048781,17.743902439024392,0.06097560975609757,-1.888671875,0.583984375,0.94140625
398,1.006,IMU2,6.890243902439025,18.78048780487805,-0.9146341463414634,-1.8994140625,0.583984375,0.921875
399,1.016,IMU0,5.2439024390243905,17.98780487804878,4.390243902439025,-1.908203125,0.58984375,0.9716796875
400,1.016,IMU1,6.2804878048780495,17.073170731707318,4.634146341463415,-1.90625,0.5693359375,0.9697265625
401,1.016,IMU2,7.317073170731708,17.743902439024392,3.780487804878049,-1.9248046875,0.5625,0.9404296875
402,1.026,IMU0,5.121951219512195,17.073170731707318,6.951219512195123,-1.95703125,0.6416015625,0.9619140625
403,1.026,IMU1,6.585365853658537,16.463414634146343,7.195121951219513,-1.955078125,0.6201171875,0.9921875
404,1.026,IMU2,7.01219512195122,17.378048780487806,6.585365853658537,-1.9755859375,0.62109375,0.9658203125
405,1.036,IMU0,1.0365853658536586,14.207317073170733,-1.6463414634146343,-1.931640625,0.62109375,0.9697265625
406,1.036,IMU1,4.634146341463415,12.439024390243903,-1.2804878048780488,-1.9404296875,0.60546875,0.9697265625
407,1.036,IMU2,2.5,13.231707317073171,-1.5853658536585367,-1.966796875,0.6103515625,0.962890625
408,1.046,IMU0,-0.1829268292682927,10.365853658536587,-2.1341463414634148,-1.8408203125,0.5498046875,0.9736328125
409,1.046,IMU1,4.024390243902439,7.743902439024391,-2.073170731707317,-1.826171875,0.53515625,0.986328125
410,1.046,IMU2,1.6463414634146343,9.26829268292683,-2.682926829268293,-1.83984375,0.5419921875,0.96484375
411,1.056,IMU0,0.9146341463414634,9.329268292682928,-1.2804878048780488,-1.7802734375,0.5146484375,0.9306640625
412,1.056,IMU1,4.573170731707317,7.500000000000001,-1.1585365853658538,-1.7734375,0.49609375,0.9345703125
413,1.056,IMU2,1.6463414634146343,8.902439024390244,-1.6463414634146343,-1.7861328125,0.501953125,0.93359375
414,1.066,IMU0,0.7317073170731708,9.573170731707318,-1.707317073170732,-1.7333984375,0.4794921875,0.9501953125
415,1.066,IMU1,3.658536585365854,7.743902439024391,-1.402439024390244,-1.732421875,0.4599609375,0.9638671875
416,1.066,IMU2,1.4634146341463417,9.329268292682928,-1.9512195121951221,-1.7529296875,0.4677734375,0.9384765625
417,1.076,IMU0,1.829268292682927,9.878048780487806,-0.6097560975609757,-1.7421875,0.482421875,0.931640625
418,1.076,IMU1,4.390243902439025,8.658536585365855,-0.3658536585365854,-1.740234375,0.462890625,0.9453125
419,1.076,IMU2,3.1097560975609757,10.182926829268293,-0.853658536585366,-1.7548828125,0.4697265625,0.935546875
420,1.086,IMU0,-0.12195121951219513,9.329268292682928,-1.524390243902439,-1.767578125,0.4970703125,0.9658203125
421,1.086,IMU1,3.1707317073170733,8.231707317073171,-1.4634146341463417,-1.7646484375,0.4755859375,0.9482421875
422,1.086,IMU2,0.9756097560975611,9.085365853658537,-1.829268292682927,-1.779296875,0.4833984375,0.927734375
423,1.096,IMU0,-1.1585365853658538,11.585365853658537,-1.8902439024390245,-1.802734375,0.4638671875,0.9130859375
424,1.096,IMU1,2.5,10.182926829268293,-1.707317073170732,-1.7919921875,0.4521484375,0.93359375
425,1.096,IMU2,1.3414634146341464,11.158536585365855,-2.25609756097561,-1.806640625,0.4609375,0.91796875
426,1.106,IMU0,-1.9512195121951221,12.317073170731708,-1.402439024390244,-1.8759765625,0.4130859375,0.927734375
427,1.106,IMU1,2.439024390243903,9.878048780487806,-1.402439024390244,-1.8662109375,0.4033203125,0.9208984375
428,1.106,IMU2,0.5487804878048781,10.731707317073171,-1.829268292682927,-1.8837890625,0.4130859375,0.900390625
429,1.116,IMU0,-2.987804878048781,9.756097560975611,2.378048780487805,-1.85546875,0.3974609375,0.9296875
430,1.116,IMU1,-0.426829268292683,8.658536585365855,2.5,-1.8408203125,0.396484375,0.95703125
431,1.116,IMU2,-1.5853658536585367,9.634146341463415,2.0121951219512195,-1.861328125,0.4033203125,0.9345703125
432,1.126,IMU0,-1.0975609756097562,12.01219512195122,3.5975609756097566,-1.7314453125,0.4033203125,0.931640625
433,1.126,IMU1,1.829268292682927,10.975609756097562,3.7195121951219514,-1.7236328125,0.400390625,0.9453125
434,1.126,IMU2,0.3658536585365854,12.01219512195122,3.1707317073170733,-1.7431640625,0.4052734375,0.923828125
435,1.136,IMU0,-2.9268292682926833,10.975609756097562,1.402439024390244,-1.7275390625,0.3837890625,0.91796875
436,1.136,IMU1,-0.06097560975609757,9.756097560975611,1.524390243902439,-1.7236328125,0.3818359375,0.9169921875
437,1.136,IMU2,-0.6707317073170732,10.670731707317074,0.9756097560975611,-1.7412109375,0.3837890625,0.89453125
438,1.146,IMU0,-3.2926829268292686,13.109756097560977,-3.780487804878049,-1.78125,0.396484375,0.9326171875
439,1.146,IMU1,1.0975609756097562,11.463414634146343,-3.536585365853659,-1.775390625,0.3876953125,0.9736328125
440,1.146,IMU2,-2.1341463414634148,12.439024390243903,-4.024390243902439,-1.8017578125,0.39453125,0.943359375
441,1.156,IMU0,-0.9146341463414634,13.29268292682927,-2.25609756097561,-1.8330078125,0.3701171875,0.966796875
442,1.156,IMU1,1.5853658536585367,12.987804878048781,-2.073170731707317,-1.8203125,0.3544921875,0.96484375
443,1.156,IMU2,-1.0975609756097562,13.719512195121952,-2.5,-1.83203125,0.3671875,0.9423828125
444,1.166,IMU0,3.2926829268292686,11.951219512195124,2.1341463414634148,-1.7578125,0.41796875,1.005859375
445,1.166,IMU1,6.890243902439025,11.646341463414634,2.25609756097561,-1.74609375,0.4033203125,1.0224609375
446,1.166,IMU2,5.060975609756098,13.353658536585368,1.829268292682927,-1.765625,0.4140625,0.984375
447,1.176,IMU0,4.51219512195122,15.30487804878049,5.670731707317073,-1.8740234375,0.57421875,1.0498046875
448,1.176,IMU1,8.536585365853659,15.000000000000002,5.670731707317073,-1.8681640625,0.55078125,1.091796875
449,1.176,IMU2,6.158536585365854,16.158536585365855,5.365853658536586,-1.892578125,0.572265625,1.072265625
450,1.186,IMU0,-3.963414634146342,18.04878048780488,-9.390243902439025,-1.771484375,0.537109375,1.0966796875
451,1.186,IMU1,-0.853658536585366,17.5609756097561,-8.963414634146343,-1.7861328125,0.5234375,1.107421875
452,1.186,IMU2,-2.1951219512195124,18.414634146341466,-9.878048780487806,-1.8212890625,0.5361328125,1.103515625
453,1.196,IMU0,-13.475609756097562,22.073170731707318,-19.573170731707318,-1.7587890625,0.4052734375,1.0654296875
454,1.196,IMU1,-11.036585365853659,21.402439024390247,-19.573170731707318,-1.748046875,0.40625,1.0888671875
455,1.196,IMU2,-11.28048780487805,21.890243902439025,-20.0609756097561,-1.759765625,0.400390625,1.0556640625
456,1.206,IMU0,-8.78048780487805,31.03658536585366,-6.707317073170732,-1.892578125,0.3935546875,1.177734375
457,1.206,IMU1,-7.560975609756098,30.0609756097561,-6.7682926829268295,-1.8671875,0.3896484375,1.1982421875
458,1.206,IMU2,-7.195121951219513,30.914634146341466,-6.951219512195123,-1.869140625,0.390625,1.1591796875
459,1.216,IMU0,-4.390243902439025,28.84146341463415,0.6097560975609757,-1.9736328125,0.3818359375,1.138671875
460,1.216,IMU1,-2.5609756097560976,27.80487804878049,0.6707317073170732,-1.9658203125,0.37109375,1.140625
461,1.216,IMU2,-3.658536585365854,28.719512195121954,0.30487804878048785,-1.9794921875,0.37890625,1.107421875
462,1.226,IMU0,-4.75609756097561,22.621951219512198,0.426829268292683,-1.890625,0.3564453125,1.162109375
463,1.226,IMU1,-3.963414634146342,21.76829268292683,0.7317073170731708,-1.88671875,0.349609375,1.16015625
464,1.226,IMU2,-3.2926829268292686,22.80487804878049,0.0,-1.908203125,0.353515625,1.126953125
465,1.236,IMU0,-0.6707317073170732,28.719512195121954,-1.829268292682927,-1.8837890625,0.3388671875,1.1025390625
466,1.236,IMU1,-0.7926829268292683,28.04878048780488,-1.524390243902439,-1.87109375,0.3310546875,1.11328125
467,1.236,IMU2,0.1829268292682927,28.53658536585366,-2.073170731707317,-1.888671875,0.3359375,1.0810546875
468,1.246,IMU0,4.573170731707317,27.25609756097561,4.878048780487806,-1.796875,0.3203125,1.048828125
469,1.246,IMU1,5.609756097560976,26.03658536585366,5.2439024390243905,-1.7890625,0.30859375,1.046875
470,1.246,IMU2,5.670731707317073,27.500000000000004,4.573170731707317,-1.8193359375,0.322265625,1.0380859375
471,1.256,IMU0,3.414634146341464,27.073170731707318,0.853658536585366,-1.734375,0.34765625,1.0009765625
472,1.256,IMU1,4.390243902439025,26.03658536585366,1.2195121951219514,-1.7275390625,0.3349609375,0.9912109375
473,1.256,IMU2,4.573170731707317,27.25609756097561,0.5487804878048781,-1.7431640625,0.3515625,0.9921875
474,1.266,IMU0,3.536585365853659,33.35365853658537,-5.365853658536586,-1.8408203125,0.341796875,1.0654296875
475,1.266,IMU1,4.390243902439025,32.13414634146342,-4.695121951219512,-1.8349609375,0.3271484375,1.07421875
476,1.266,IMU2,4.2682926829268295,32.80487804878049,-5.7926829268292686,-1.8662109375,0.3486328125,1.056640625
477,1.276,IMU0,3.048780487804878,33.41463414634146,-4.573170731707317,-1.8359375,0.3544921875,1.06640625
478,1.276,IMU1,5.2439024390243905,31.402439024390247,-4.2682926829268295,-1.822265625,0.33203125,1.0771484375
479,1.276,IMU2,4.207317073170732,32.31707317073171,-4.75609756097561,-1.833984375,0.3642578125,1.0634765625
480,1.286,IMU0,5.3048780487804885,37.07317073170732,-0.30487804878048785,-1.7978515625,0.294921875,1.11328125
481,1.286,IMU1,8.292682926829269,35.85365853658537,-0.30487804878048785,-1.78125,0.2744140625,1.1103515625
482,1.286,IMU2,7.560975609756098,37.13414634146342,-0.30487804878048785,-1.7783203125,0.306640625,1.1005859375
483,1.296,IMU0,9.51219512195122,45.1219512195122,5.365853658536586,-1.8212890625,0.2724609375,1.1689453125
484,1.296,IMU1,13.04878048780488,43.53658536585366,5.670731707317073,-1.8154296875,0.2529296875,1.1708984375
485,1.296,IMU2,10.731707317073171,44.63414634146342,5.182926829268293,-1.8388671875,0.2822265625,1.1640625
486,1.306,IMU0,8.170731707317074,48.170731707317074,1.7682926829268295,-1.9365234375,0.3076171875,1.2177734375
487,1.306,IMU1,10.487804878048781,46.15853658536586,2.1951219512195124,-1.93359375,0.2900390625,1.205078125
488,1.306,IMU2,8.963414634146343,46.707317073170735,1.5853658536585367,-1.958984375,0.298828125,1.201171875
489,1.316,IMU0,5.731707317073171,41.82926829268293,-3.9024390243902443,-1.9921875,0.3017578125,1.203125
490,1.316,IMU1,7.621951219512196,39.63414634146342,-3.9024390243902443,-1.98828125,0.2861328125,1.21484375
491,1.316,IMU2,6.890243902439025,41.768292682926834,-4.146341463414634,-2.0166015625,0.291015625,1.1748046875
492,1.326,IMU0,2.804878048780488,33.29268292682927,-6.463414634146342,-1.9013671875,0.27734375,1.158203125
493,1.326,IMU1,4.939024390243903,32.13414634146342,-6.158536585365854,-1.8984375,0.2646484375,1.173828125
494,1.326,IMU2,4.146341463414634,33.41463414634146,-6.707317073170732,-1.9111328125,0.26171875,1.1376953125
495,1.336,IMU0,3.048780487804878,32.987804878048784,-7.439024390243903,-1.939453125,0.291015625,1.1865234375
496,1.336,IMU1,5.426829268292684,31.402439024390247,-7.317073170731708,-1.9375,0.2216796875,1.181640625
497,1.336,IMU2,5.0,32.743902439024396,-7.926829268292684,-1.962890625,0.265625,1.1416015625
498,1.346,IMU0,4.390243902439025,31.707317073170735,-3.9024390243902443,-1.9697265625,0.3291015625,1.2236328125
499,1.346,IMU1,6.097560975609756,29.146341463414636,-3.4756097560975614,-1.9765625,0.2705078125,1.2216796875
500,1.346,IMU2,5.426829268292684,31.463414634146343,-4.085365853658537,-1.99609375,0.3095703125,1.169921875
501,1.356,IMU0,3.7195121951219514,24.939024390243905,-2.1951219512195124,-1.8212890625,0.3017578125,1.09765625
502,1.356,IMU1,6.402439024390245,24.390243902439025,-2.0121951219512195,-1.8076171875,0.2529296875,1.099609375
503,1.356,IMU2,4.695121951219512,26.03658536585366,-2.439024390243903,-1.83203125,0.2841796875,1.0673828125
504,1.366,IMU0,1.707317073170732,27.378048780487806,-1.0975609756097562,-1.708984375,0.2451171875,1.09375
505,1.366,IMU1,3.353658536585366,26.89024390243903,-0.5487804878048781,-1.6865234375,0.216796875,1.107421875
506,1.366,IMU2,2.804878048780488,28.353658536585368,-1.3414634146341464,-1.70703125,0.232421875,1.08984375
507,1.376,IMU0,3.231707317073171,34.69512195121951,-0.48780487804878053,-1.7744140625,0.189453125,1.0927734375
508,1.376,IMU1,3.536585365853659,33.84146341463415,0.426829268292683,-1.7587890625,0.173828125,1.0859375
509,1.376,IMU2,4.2682926829268295,34.451219512195124,-0.426829268292683,-1.7822265625,0.1865234375,1.0556640625
510,1.386,IMU0,5.853658536585367,30.0609756097561,12.926829268292684,-1.7373046875,0.1962890625,1.109375
511,1.386,IMU1,7.378048780487806,29.512195121951223,13.902439024390246,-1.7109375,0.19140625,1.1181640625
512,1.386,IMU2,7.073170731707318,29.512195121951223,13.04878048780488,-1.740234375,0.2021484375,1.0869140625
513,1.396,IMU0,4.878048780487806,30.670731707317074,9.634146341463415,-1.7314453125,0.2001953125,1.015625
514,1.396,IMU1,5.670731707317073,29.634146341463417,9.939024390243903,-1.712890625,0.2001953125,1.0224609375
515,1.396,IMU2,6.7682926829268295,29.634146341463417,9.207317073170733,-1.7392578125,0.2060546875,1.01171875
516,1.406,IMU0,2.7439024390243905,28.170731707317074,8.170731707317074,-1.6875,0.15625,1.080078125
517,1.406,IMU1,4.207317073170732,28.10975609756098,8.414634146341465,-1.6533203125,0.1611328125,1.0830078125
518,1.406,IMU2,4.51219512195122,28.902439024390247,7.743902439024391,-1.681640625,0.16015625,1.068359375
519,1.416,IMU0,4.329268292682928,37.07317073170732,8.231707317073171,-1.69921875,0.1474609375,1.125
520,1.416,IMU1,5.2439024390243905,37.31707317073171,8.536585365853659,-1.7001953125,0.12890625,1.1484375
521,1.416,IMU2,5.731707317073171,37.926829268292686,7.8048780487804885,-1.7138671875,0.1337890625,1.1337890625
522,1.426,IMU0,4.817073170731708,38.29268292682927,8.719512195121952,-1.8671875,0.1728515625,1.142578125
523,1.426,IMU1,5.914634146341464,36.890243902439025,8.78048780487805,-1.8701171875,0.1708984375,1.169921875
524,1.426,IMU2,5.3048780487804885,37.5609756097561,8.292682926829269,-1.8935546875,0.1708984375,1.1611328125
525,1.436,IMU0,1.2195121951219514,30.914634146341466,2.7439024390243905,-1.88671875,0.1953125,1.13671875
526,1.436,IMU1,2.25609756097561,28.719512195121954,2.682926829268293,-1.875,0.1875,1.166015625
527,1.436,IMU2,1.0365853658536586,30.30487804878049,2.25609756097561,-1.904296875,0.1904296875,1.1572265625
528,1.446,IMU0,-0.6707317073170732,24.207317073170735,2.682926829268293,-1.7861328125,0.2216796875,1.0615234375
529,1.446,IMU1,0.06097560975609757,23.84146341463415,3.536585365853659,-1.759765625,0.2099609375,1.0673828125
530,1.446,IMU2,-0.24390243902439027,24.878048780487806,2.804878048780488,-1.7783203125,0.216796875,1.037109375
531,1.456,IMU0,4.024390243902439,26.09756097560976,11.158536585365855,-1.751953125,0.2802734375,1.0224609375
532,1.456,IMU1,5.060975609756098,25.60975609756098,11.890243902439025,-1.740234375,0.2802734375,1.029296875
533,1.456,IMU2,4.329268292682928,26.402439024390247,11.219512195121952,-1.7587890625,0.2861328125,1.0068359375
534,1.466,IMU0,2.7439024390243905,24.207317073170735,11.28048780487805,-1.818359375,0.3134765625,1.02734375
535,1.466,IMU1,3.353658536585366,22.621951219512198,11.158536585365855,-1.8125,0.2998046875,1.041015625
536,1.466,IMU2,2.682926829268293,23.59756097560976,10.609756097560977,-1.83984375,0.30859375,1.01953125
537,1.476,IMU0,2.5609756097560976,19.81707317073171,16.463414634146343,-1.7265625,0.3330078125,0.919921875
538,1.476,IMU1,4.75609756097561,18.902439024390244,16.52439024390244,-1.705078125,0.333984375,0.9404296875
539,1.476,IMU2,3.231707317073171,20.426829268292686,16.03658536585366,-1.7236328125,0.3388671875,0.9267578125
540,1.486,IMU0,4.451219512195122,21.097560975609756,12.621951219512196,-1.5888671875,0.3642578125,0.927734375
541,1.486,IMU1,6.341463414634147,20.243902439024392,12.865853658536587,-1.564453125,0.3701171875,0.9365234375
542,1.486,IMU2,5.670731707317073,21.402439024390247,12.317073170731708,-1.587890625,0.373046875,0.9208984375
543,1.496,IMU0,6.2804878048780495,24.512195121951223,12.560975609756099,-1.494140625,0.36328125,1.0146484375
544,1.496,IMU1,8.719512195121952,24.451219512195124,12.682926829268293,-1.4833984375,0.34765625,1.01953125
545,1.496,IMU2,7.317073170731708,25.731707317073173,12.256097560975611,-1.501953125,0.349609375,0.9853515625
546,1.506,IMU0,4.573170731707317,26.463414634146343,8.414634146341465,-1.505859375,0.388671875,0.9736328125
547,1.506,IMU1,6.463414634146342,25.853658536585368,8.841463414634147,-1.5068359375,0.376953125,0.96875
548,1.506,IMU2,5.0,27.378048780487806,8.414634146341465,-1.5283203125,0.3798828125,0.947265625
549,1.516,IMU0,6.036585365853659,30.30487804878049,5.609756097560976,-1.4990234375,0.26953125,1.05859375
550,1.516,IMU1,8.475609756097562,29.32926829268293,5.853658536585367,-1.486328125,0.2578125,1.0419921875
551,1.516,IMU2,6.646341463414635,29.87804878048781,5.487804878048781,-1.4970703125,0.26171875,1.0166015625
552,1.526,IMU0,9.817073170731708,28.292682926829272,20.54878048780488,-1.4482421875,0.2529296875,0.953125
553,1.526,IMU1,11.890243902439025,27.80487804878049,20.60975609756098,-1.431640625,0.2421875,0.9443359375
554,1.526,IMU2,11.097560975609756,27.621951219512198,20.121951219512198,-1.4384765625,0.248046875,0.9287109375
555,1.536,IMU0,10.792682926829269,26.52439024390244,20.60975609756098,-1.3642578125,0.283203125,0.95703125
556,1.536,IMU1,12.987804878048781,25.30487804878049,20.975609756097562,-1.3623046875,0.2666015625,0.9560546875
557,1.536,IMU2,12.865853658536587,25.60975609756098,20.48780487804878,-1.3857421875,0.2744140625,0.947265625
558,1.546,IMU0,7.682926829268293,18.658536585365855,15.487804878048783,-1.296875,0.2607421875,0.9248046875
559,1.546,IMU1,10.24390243902439,18.475609756097562,15.79268292682927,-1.294921875,0.25390625,0.9453125
560,1.546,IMU2,9.756097560975611,19.634146341463417,15.243902439024392,-1.3212890625,0.2587890625,0.92578125
561,1.556,IMU0,5.853658536585367,17.439024390243905,9.573170731707318,-1.2666015625,0.23828125,0.94921875
562,1.556,IMU1,7.682926829268293,16.463414634146343,9.939024390243903,-1.2568359375,0.2392578125,0.974609375
563,1.556,IMU2,8.414634146341465,17.31707317073171,9.207317073170733,-1.27734375,0.23828125,0.9501953125
564,1.566,IMU0,6.341463414634147,18.78048780487805,9.390243902439025,-1.2548828125,0.2353515625,0.9501953125
565,1.566,IMU1,8.170731707317074,18.10975609756098,9.756097560975611,-1.248046875,0.2353515625,0.986328125
566,1.566,IMU2,7.987804878048781,18.84146341463415,9.146341463414634,-1.2685546875,0.232421875,0.9560546875
567,1.576,IMU0,8.048780487804878,21.28048780487805,11.219512195121952,-1.2841796875,0.23046875,1.01171875
568,1.576,IMU1,10.182926829268293,19.939024390243905,11.52439024390244,-1.2734375,0.2294921875,1.0517578125
569,1.576,IMU2,9.634146341463415,20.975609756097562,11.036585365853659,-1.28515625,0.228515625,1.017578125
570,1.586,IMU0,8.292682926829269,18.231707317073173,12.378048780487806,-1.3046875,0.2451171875,0.9951171875
571,1.586,IMU1,9.634146341463415,18.170731707317074,12.74390243902439,-1.30078125,0.2412109375,1.029296875
572,1.586,IMU2,9.756097560975611,18.902439024390244,12.073170731707318,-1.314453125,0.2412109375,1.00390625
573,1.596,IMU0,8.719512195121952,15.182926829268293,12.80487804878049,-1.26171875,0.234375,1.078125
574,1.596,IMU1,10.731707317073171,14.451219512195124,13.170731707317074,-1.255859375,0.240234375,1.0927734375
575,1.596,IMU2,9.817073170731708,15.365853658536587,12.500000000000002,-1.27734375,0.23046875,1.072265625
576,1.606,IMU0,10.0,17.804878048780488,12.865853658536587,-1.2802734375,0.2314453125,1.048828125
577,1.606,IMU1,13.231707317073171,16.70731707317073,13.04878048780488,-1.265625,0.236328125,1.046875
578,1.606,IMU2,11.951219512195124,17.743902439024392,12.439024390243903,-1.2900390625,0.2255859375,1.0380859375
579,1.616,IMU0,8.170731707317074,13.170731707317074,12.621951219512196,-1.216796875,0.248046875,1.0458984375
580,1.616,IMU1,10.914634146341465,12.256097560975611,12.926829268292684,-1.21484375,0.25390625,1.0263671875
581,1.616,IMU2,9.51219512195122,13.719512195121952,12.317073170731708,-1.240234375,0.2421875,1.0185546875
582,1.626,IMU0,5.3048780487804885,11.097560975609756,5.060975609756098,-1.197265625,0.26953125,0.986328125
583,1.626,IMU1,8.353658536585366,10.609756097560977,5.426829268292684,-1.2001953125,0.2666015625,0.994140625
584,1.626,IMU2,7.560975609756098,12.01219512195122,4.634146341463415,-1.2216796875,0.2646484375,0.9677734375
585,1.636,IMU0,3.658536585365854,9.146341463414634,0.6707317073170732,-1.16015625,0.2548828125,0.9921875
586,1.636,IMU1,6.707317073170732,7.987804878048781,1.0365853658536586,-1.158203125,0.251953125,1.0244140625
587,1.636,IMU2,5.2439024390243905,9.146341463414634,0.30487804878048785,-1.1796875,0.2548828125,1.0009765625
588,1.646,IMU0,2.7439024390243905,7.317073170731708,-1.2195121951219514,-1.1025390625,0.23046875,0.9560546875
589,1.646,IMU1,3.9024390243902443,6.2804878048780495,-0.853658536585366,-1.0986328125,0.23046875,1.0
590,1.646,IMU2,4.634146341463415,8.109756097560977,-1.707317073170732,-1.1181640625,0.2333984375,0.94921875
591,1.656,IMU0,1.7682926829268295,5.0,-1.1585365853658538,-1.02734375,0.22265625,0.9072265625
592,1.656,IMU1,3.1707317073170733,4.573170731707317,-0.853658536585366,-1.017578125,0.2255859375,0.896484375
593,1.656,IMU2,3.7195121951219514,6.829268292682928,-1.524390243902439,-1.0341796875,0.2138671875,0.892578125
594,1.666,IMU0,1.9512195121951221,5.487804878048781,1.829268292682927,-1.015625,0.24609375,0.904296875
595,1.666,IMU1,5.182926829268293,4.817073170731708,2.0121951219512195,-1.0146484375,0.25390625,0.88671875
596,1.666,IMU2,4.024390243902439,6.097560975609756,1.402439024390244,-1.017578125,0.2314453125,0.8916015625
597,1.676,IMU0,0.9146341463414634,7.317073170731708,2.1341463414634148,-0.9931640625,0.2783203125,0.76953125
598,1.676,IMU1,4.451219512195122,5.426829268292684,2.3170731707317076,-0.9921875,0.2763671875,0.814453125
599,1.676,IMU2,2.25609756097561,8.109756097560977,1.707317073170732,-1.015625,0.2763671875,0.76953125
600,1.686,IMU0,-1.3414634146341464,7.439024390243903,-1.4634146341463417,-0.884765625,0.2783203125,0.798828125
601,1.686,IMU1,1.1585365853658538,6.646341463414635,-1.2195121951219514,-0.8828125,0.2685546875,0.8212890625
602,1.686,IMU2,0.0,8.109756097560977,-1.7682926829268295,-0.8974609375,0.279296875,0.8046875
603,1.696,IMU0,-1.402439024390244,16.03658536585366,-0.426829268292683,-0.7548828125,0.2294921875,0.7685546875
604,1.696,IMU1,-0.426829268292683,14.51219512195122,-0.06097560975609757,-0.755859375,0.224609375,0.76953125
605,1.696,IMU2,-0.7926829268292683,16.34146341463415,-0.5487804878048781,-0.7646484375,0.244140625,0.7333984375
606,1.706,IMU0,-0.9756097560975611,17.5609756097561,2.987804878048781,-0.8681640625,0.201171875,0.796875
607,1.706,IMU1,-0.24390243902439027,16.158536585365855,3.231707317073171,-0.8544921875,0.197265625,0.779296875
608,1.706,IMU2,0.12195121951219513,17.5609756097561,3.048780487804878,-0.8515625,0.2041015625,0.7861328125
609,1.716,IMU0,2.5,15.670731707317074,10.365853658536587,-0.845703125,0.2568359375,0.69921875
610,1.716,IMU1,4.207317073170732,14.390243902439027,10.670731707317074,-0.84375,0.259765625,0.7119140625
611,1.716,IMU2,3.7195121951219514,15.853658536585368,10.0,-0.869140625,0.2587890625,0.712890625
612,1.726,IMU0,0.6097560975609757,2.1341463414634148,6.646341463414635,-0.7568359375,0.2978515625,0.6826171875
613,1.726,IMU1,2.804878048780488,1.0975609756097562,6.951219512195123,-0.7626953125,0.3095703125,0.681640625
614,1.726,IMU2,1.8902439024390245,2.3170731707317076,6.158536585365854,-0.78515625,0.2802734375,0.6669921875
615,1.736,IMU0,-1.0975609756097562,2.439024390243903,-1.1585365853658538,-0.755859375,0.2744140625,0.71875
616,1.736,IMU1,0.9756097560975611,1.6463414634146343,-0.9756097560975611,-0.751953125,0.2724609375,0.740234375
617,1.736,IMU2,-0.06097560975609757,2.7439024390243905,-1.524390243902439,-0.755859375,0.2763671875,0.73828125
618,1.746,IMU0,1.402439024390244,4.695121951219512,0.5487804878048781,-0.6708984375,0.2216796875,0.7158203125
619,1.746,IMU1,3.536585365853659,3.048780487804878,0.7926829268292683,-0.66796875,0.2275390625,0.6875
620,1.746,IMU2,2.378048780487805,5.487804878048781,0.12195121951219513,-0.685546875,0.2177734375,0.6875
621,1.756,IMU0,2.804878048780488,5.2439024390243905,5.121951219512195,-0.6650390625,0.248046875,0.7041015625
622,1.756,IMU1,4.51219512195122,3.7195121951219514,5.2439024390243905,-0.6572265625,0.2607421875,0.7236328125
623,1.756,IMU2,3.536585365853659,5.060975609756098,5.182926829268293,-0.666015625,0.2451171875,0.6748046875
624,1.766,IMU0,2.9268292682926833,9.085365853658537,4.634146341463415,-0.6103515625,0.2626953125,0.6298828125
625,1.766,IMU1,5.2439024390243905,6.829268292682928,4.878048780487806,-0.61328125,0.2626953125,0.6640625
626,1.766,IMU2,3.5975609756097566,8.353658536585366,4.207317073170732,-0.6376953125,0.2490234375,0.6640625
627,1.776,IMU0,4.329268292682928,8.048780487804878,3.7195121951219514,-0.5634765625,0.205078125,0.689453125
628,1.776,IMU1,6.646341463414635,6.402439024390245,4.024390243902439,-0.5576171875,0.2001953125,0.6728515625
629,1.776,IMU2,4.878048780487806,7.25609756097561,3.4756097560975614,-0.58203125,0.205078125,0.6904296875
630,1.786,IMU0,5.365853658536586,8.292682926829269,2.25609756097561,-0.53515625,0.2099609375,0.642578125
631,1.786,IMU1,8.048780487804878,6.829268292682928,2.5609756097560976,-0.5380859375,0.21484375,0.609375
632,1.786,IMU2,6.463414634146342,7.926829268292684,1.7682926829268295,-0.5595703125,0.201171875,0.62109375
633,1.796,IMU0,6.951219512195123,8.719512195121952,-1.2804878048780488,-0.4873046875,0.1572265625,0.626953125
634,1.796,IMU1,9.573170731707318,7.317073170731708,-1.0365853658536586,-0.4853515625,0.17578125,0.6318359375
635,1.796,IMU2,7.682926829268293,8.475609756097562,-1.4634146341463417,-0.5009765625,0.146484375,0.5751953125
636,1.806,IMU0,7.378048780487806,7.134146341463415,1.2804878048780488,-0.44921875,0.1328125,0.6123046875
637,1.806,IMU1,9.085365853658537,6.52439024390244,1.6463414634146343,-0.4482421875,0.1455078125,0.6337890625
638,1.806,IMU2,8.231707317073171,7.500000000000001,1.0975609756097562,-0.4619140625,0.1435546875,0.58203125
639,1.816,IMU0,9.634146341463415,10.792682926829269,0.9146341463414634,-0.4697265625,0.1484375,0.603515625
640,1.816,IMU1,12.621951219512196,9.939024390243903,1.2195121951219514,-0.470703125,0.1552734375,0.642578125
641,1.816,IMU2,10.426829268292684,10.792682926829269,0.853658536585366,-0.482421875,0.1708984375,0.6044921875
642,1.826,IMU0,11.036585365853659,15.182926829268293,0.9756097560975611,-0.51953125,0.0810546875,0.625
643,1.826,IMU1,13.719512195121952,14.756097560975611,1.2195121951219514,-0.5126953125,0.0927734375,0.671875
644,1.826,IMU2,11.707317073170733,16.158536585365855,1.1585365853658538,-0.533203125,0.0771484375,0.666015625
645,1.836,IMU0,10.121951219512196,13.902439024390246,6.646341463414635,-0.40234375,0.0703125,0.5830078125
646,1.836,IMU1,13.658536585365855,13.04878048780488,6.890243902439025,-0.3955078125,0.083984375,0.6201171875
647,1.836,IMU2,11.402439024390246,15.121951219512196,6.707317073170732,-0.4091796875,0.0537109375,0.609375
648,1.846,IMU0,10.548780487804878,20.54878048780488,3.5975609756097566,-0.4208984375,0.0615234375,0.693359375
649,1.846,IMU1,14.146341463414636,20.243902439024392,3.9024390243902443,-0.41796875,0.0634765625,0.7197265625
650,1.846,IMU2,11.707317073170733,20.243902439024392,3.2926829268292686,-0.4296875,0.0517578125,0.7080078125
651,1.856,IMU0,6.951219512195123,17.378048780487806,0.06097560975609757,-0.310546875,0.0068359375,0.685546875
652,1.856,IMU1,8.719512195121952,16.890243902439025,0.48780487804878053,-0.3125,0.0087890625,0.7041015625
653,1.856,IMU2,8.597560975609756,18.719512195121954,-0.3658536585365854,-0.32421875,0.0224609375,0.6904296875
654,1.866,IMU0,6.52439024390244,20.0,-1.6463414634146343,-0.37890625,-0.0234375,0.7958984375
655,1.866,IMU1,9.207317073170733,19.634146341463417,-1.3414634146341464,-0.3798828125,-0.017578125,0.7939453125
656,1.866,IMU2,8.536585365853659,19.75609756097561,-1.8902439024390245,-0.384765625,-0.009765625,0.7939453125
657,1.876,IMU0,5.182926829268293,14.939024390243905,-1.4634146341463417,-0.3408203125,0.0166015625,0.7587890625
658,1.876,IMU1,7.865853658536586,13.963414634146343,-1.524390243902439,-0.341796875,0.03125,0.748046875
659,1.876,IMU2,6.707317073170732,15.182926829268293,-1.9512195121951221,-0.3701171875,-0.0166015625,0.7421875
660,1.886,IMU0,4.817073170731708,13.963414634146343,-4.146341463414634,-0.36328125,0.0283203125,0.8125
661,1.886,IMU1,7.25609756097561,12.987804878048781,-3.963414634146342,-0.3603515625,0.033203125,0.833984375
662,1.886,IMU2,6.2804878048780495,13.963414634146343,-4.390243902439025,-0.384765625,0.0380859375,0.794921875
663,1.896,IMU0,3.9024390243902443,12.073170731707318,-2.987804878048781,-0.4013671875,-0.005859375,0.7548828125
664,1.896,IMU1,5.975609756097562,11.707317073170733,-2.073170731707317,-0.3779296875,0.025390625,0.7880859375
665,1.896,IMU2,5.182926829268293,12.621951219512196,-2.6219512195121952,-0.38671875,0.015625,0.7783203125
666,1.906,IMU0,5.487804878048781,14.634146341463415,2.0121951219512195,-0.494140625,0.072265625,0.7880859375
667,1.906,IMU1,8.170731707317074,13.109756097560977,1.9512195121951221,-0.4951171875,0.068359375,0.8095703125
668,1.906,IMU2,6.646341463414635,14.329268292682928,1.5853658536585367,-0.5146484375,0.0595703125,0.8076171875
669,1.916,IMU0,6.219512195121951,14.573170731707318,2.682926829268293,-0.47265625,0.0888671875,0.7822265625
670,1.916,IMU1,9.51219512195122,13.597560975609758,3.414634146341464,-0.46484375,0.0888671875,0.79296875
671,1.916,IMU2,7.134146341463415,14.26829268292683,2.987804878048781,-0.478515625,0.080078125,0.783203125
672,1.926,IMU0,5.487804878048781,13.414634146341465,2.6219512195121952,-0.5263671875,0.0546875,0.775390625
673,1.926,IMU1,8.963414634146343,11.951219512195124,2.804878048780488,-0.5126953125,0.078125,0.7998046875
674,1.926,IMU2,5.853658536585367,13.170731707317074,2.5,-0.5302734375,0.072265625,0.783203125
675,1.936,IMU0,4.207317073170732,12.682926829268293,1.1585365853658538,-0.501953125,0.0439453125,0.826171875
676,1.936,IMU1,7.134146341463415,11.707317073170733,0.9146341463414634,-0.4990234375,0.0439453125,0.8662109375
677,1.936,IMU2,4.817073170731708,12.987804878048781,0.5487804878048781,-0.51953125,0.0400390625,0.8603515625
678,1.946,IMU0,4.085365853658537,12.256097560975611,-2.073170731707317,-0.4892578125,0.1201171875,0.87109375
679,1.946,IMU1,6.52439024390244,11.036585365853659,-2.073170731707317,-0.490234375,0.111328125,0.90234375
680,1.946,IMU2,4.817073170731708,12.195121951219512,-2.5,-0.513671875,0.103515625,0.9072265625
681,1.956,IMU0,3.8414634146341466,7.926829268292684,-3.4756097560975614,-0.5107421875,0.044921875,0.8623046875
682,1.956,IMU1,6.829268292682928,6.097560975609756,-2.9268292682926833,-0.4775390625,0.078125,0.890625
683,1.956,IMU2,5.0,8.292682926829269,-3.353658536585366,-0.4912109375,0.0751953125,0.884765625
684,1.966,IMU0,2.987804878048781,6.219512195121951,0.6707317073170732,-0.517578125,0.0244140625,0.9072265625
685,1.966,IMU1,5.487804878048781,5.0,1.0365853658536586,-0.5126953125,0.01171875,0.94140625
686,1.966,IMU2,5.0,6.890243902439025,0.3658536585365854,-0.53125,0.0107421875,0.939453125
687,1.976,IMU0,4.390243902439025,5.121951219512195,-0.7317073170731708,-0.5693359375,0.0791015625,0.8701171875
688,1.976,IMU1,5.548780487804878,3.414634146341464,-1.0975609756097562,-0.5830078125,0.0693359375,0.8857421875
689,1.976,IMU2,5.182926829268293,5.2439024390243905,-1.7682926829268295,-0.6171875,0.0615234375,0.8828125
690,1.986,IMU0,2.6219512195121952,-7.500000000000001,-4.75609756097561,-0.578125,0.083984375,0.822265625
691,1.986,IMU1,3.658536585365854,-10.670731707317074,-4.146341463414634,-0.5458984375,0.126953125,0.8515625
692,1.986,IMU2,3.353658536585366,-9.939024390243903,-4.75609756097561,-0.5615234375,0.1279296875,0.837890625
693,1.996,IMU0,0.3658536585365854,-25.365853658536587,-8.597560975609756,-0.2431640625,0.0673828125,0.681640625
694,1.996,IMU1,3.4756097560975614,-27.865853658536587,-8.536585365853659,-0.2041015625,0.07421875,0.6826171875
695,1.996,IMU2,2.1341463414634148,-25.975609756097562,-9.085365853658537,-0.20703125,0.068359375,0.640625
696,2.006,IMU0,6.2804878048780495,-14.451219512195124,-8.78048780487805,-0.0517578125,0.166015625,0.6376953125
697,2.006,IMU1,8.109756097560977,-14.878048780487806,-8.902439024390244,-0.05078125,0.208984375,0.6796875
698,2.006,IMU2,6.7682926829268295,-13.719512195121952,-9.451219512195122,-0.0673828125,0.19921875,0.6708984375
699,2.016,IMU0,7.439024390243903,-2.6219512195121952,-5.609756097560976,0.01171875,0.220703125,0.6552734375
700,2.016,IMU1,9.451219512195122,-4.207317073170732,-5.2439024390243905,0.0009765625,0.1943359375,0.6572265625
701,2.016,IMU2,8.414634146341465,-2.6219512195121952,-5.731707317073171,-0.0224609375,0.166015625,0.6328125
702,2.026,IMU0,7.195121951219513,13.475609756097562,-8.170731707317074,-0.2255859375,0.1982421875,0.677734375
703,2.026,IMU1,9.085365853658537,12.439024390243903,-7.378048780487806,-0.2177734375,0.25390625,0.6884765625
704,2.026,IMU2,8.597560975609756,14.146341463414636,-7.865853658536586,-0.2216796875,0.244140625,0.64453125
705,2.036,IMU0,6.890243902439025,15.79268292682927,-1.707317073170732,-0.396484375,0.220703125,0.7236328125
706,2.036,IMU1,8.414634146341465,15.000000000000002,-1.2195121951219514,-0.390625,0.21484375,0.7705078125
707,2.036,IMU2,8.536585365853659,16.219512195121954,-1.9512195121951221,-0.41015625,0.2275390625,0.7265625
708,2.046,IMU0,5.975609756097562,9.817073170731708,2.5609756097560976,-0.4453125,0.2421875,0.765625
709,2.046,IMU1,7.8048780487804885,8.719512195121952,2.804878048780488,-0.4453125,0.2099609375,0.7685546875
710,2.046,IMU2,6.951219512195123,9.146341463414634,2.378048780487805,-0.44921875,0.19921875,0.7626953125
711,2.056,IMU0,5.3048780487804885,5.060975609756098,2.0121951219512195,-0.45703125,0.2353515625,0.712890625
712,2.056,IMU1,6.951219512195123,3.9024390243902443,2.25609756097561,-0.4521484375,0.240234375,0.7509765625
713,2.056,IMU2,5.975609756097562,5.060975609756098,1.7682926829268295,-0.46875,0.2353515625,0.697265625
714,2.066,IMU0,5.426829268292684,2.378048780487805,5.3048780487804885,-0.431640625,0.259765625,0.763671875
715,2.066,IMU1,8.048780487804878,1.5853658536585367,5.487804878048781,-0.4365234375,0.255859375,0.763671875
716,2.066,IMU2,6.52439024390244,2.987804878048781,4.939024390243903,-0.4365234375,0.2646484375,0.748046875
717,2.076,IMU0,6.402439024390245,1.7682926829268295,9.51219512195122,-0.37890625,0.244140625,0.708984375
718,2.076,IMU1,8.658536585365855,0.9146341463414634,9.573170731707318,-0.37109375,0.2646484375,0.736328125
719,2.076,IMU2,6.7682926829268295,2.439024390243903,9.329268292682928,-0.390625,0.2353515625,0.693359375
720,2.086,IMU0,5.426829268292684,2.1341463414634148,9.634146341463415,-0.41015625,0.279296875,0.7294921875
721,2.086,IMU1,7.987804878048781,1.0365853658536586,9.695121951219512,-0.4130859375,0.28125,0.7470703125
722,2.086,IMU2,6.097560975609756,2.0121951219512195,9.329268292682928,-0.42578125,0.2705078125,0.69921875
723,2.096,IMU0,6.219512195121951,-0.853658536585366,12.317073170731708,-0.439453125,0.255859375,0.767578125
724,2.096,IMU1,7.865853658536586,-0.7317073170731708,12.439024390243903,-0.4423828125,0.25390625,0.7705078125
725,2.096,IMU2,7.743902439024391,0.24390243902439027,11.76829268292683,-0.455078125,0.265625,0.7451171875
726,2.106,IMU0,6.2804878048780495,-4.695121951219512,15.30487804878049,-0.380859375,0.2490234375,0.69921875
727,2.106,IMU1,7.560975609756098,-4.878048780487806,15.426829268292684,-0.3779296875,0.2587890625,0.7314453125
728,2.106,IMU2,7.439024390243903,-5.182926829268293,15.060975609756099,-0.3740234375,0.259765625,0.6787109375
729,2.116,IMU0,6.7682926829268295,-1.524390243902439,14.695121951219514,-0.3359375,0.23046875,0.7373046875
730,2.116,IMU1,8.475609756097562,-2.073170731707317,14.878048780487806,-0.3388671875,0.2412109375,0.7421875
731,2.116,IMU2,7.865853658536586,-1.2804878048780488,14.146341463414636,-0.345703125,0.2216796875,0.7373046875
732,2.126,IMU0,7.317073170731708,-2.5,18.353658536585368,-0.29296875,0.185546875,0.697265625
733,2.126,IMU1,8.902439024390244,-3.5975609756097566,18.53658536585366,-0.296875,0.1923828125,0.677734375
734,2.126,IMU2,8.109756097560977,-1.829268292682927,17.98780487804878,-0.3046875,0.1728515625,0.6865234375
735,2.136,IMU0,5.975609756097562,-3.414634146341464,17.926829268292686,-0.1630859375,0.1337890625,0.6904296875
736,2.136,IMU1,8.597560975609756,-4.329268292682928,17.804878048780488,-0.1640625,0.1513671875,0.685546875
737,2.136,IMU2,7.01219512195122,-2.9268292682926833,17.743902439024392,-0.154296875,0.1337890625,0.646484375
738,2.146,IMU0,7.378048780487806,1.707317073170732,15.121951219512196,-0.1376953125,0.166015625,0.6201171875
739,2.146,IMU1,11.158536585365855,0.6707317073170732,15.365853658536587,-0.1494140625,0.1826171875,0.63671875
740,2.146,IMU2,9.26829268292683,2.1341463414634148,14.390243902439027,-0.1689453125,0.150390625,0.603515625
741,2.156,IMU0,6.2804878048780495,-2.3170731707317076,12.500000000000002,-0.0810546875,0.140625,0.619140625
742,2.156,IMU1,10.0,-3.353658536585366,12.560975609756099,-0.0830078125,0.1591796875,0.662109375
743,2.156,IMU2,8.231707317073171,-1.4634146341463417,11.951219512195124,-0.0908203125,0.1650390625,0.615234375
744,2.166,IMU0,7.134146341463415,0.3658536585365854,12.134146341463415,-0.0361328125,0.154296875,0.5830078125
745,2.166,IMU1,10.670731707317074,-0.6097560975609757,12.073170731707318,-0.02734375,0.173828125,0.6123046875
746,2.166,IMU2,8.658536585365855,1.4634146341463417,12.134146341463415,-0.0380859375,0.1611328125,0.5859375
747,2.176,IMU0,8.475609756097562,-0.6097560975609757,14.634146341463415,-0.0302734375,0.111328125,0.5341796875
748,2.176,IMU1,10.731707317073171,-1.402439024390244,14.878048780487806,-0.0283203125,0.109375,0.5712890625
749,2.176,IMU2,10.060975609756099,-0.1829268292682927,14.207317073170733,-0.0517578125,0.0869140625,0.5634765625
750,2.186,IMU0,8.78048780487805,-1.2804878048780488,16.82926829268293,-0.0341796875,0.11328125,0.5205078125
751,2.186,IMU1,12.134146341463415,-3.048780487804878,16.951219512195124,-0.0341796875,0.1376953125,0.5576171875
752,2.186,IMU2,9.939024390243903,-1.524390243902439,16.463414634146343,-0.0458984375,0.1611328125,0.5087890625
753,2.196,IMU0,7.195121951219513,-4.51219512195122,15.731707317073171,0.0625,0.1201171875,0.51171875
754,2.196,IMU1,10.0,-6.097560975609756,15.914634146341465,0.0537109375,0.1279296875,0.5361328125
755,2.196,IMU2,8.353658536585366,-4.573170731707317,15.487804878048783,0.033203125,0.09765625,0.517578125
756,2.206,IMU0,9.695121951219512,3.414634146341464,16.158536585365855,0.0625,0.0966796875,0.4990234375
757,2.206,IMU1,12.195121951219512,2.1341463414634148,16.463414634146343,0.060546875,0.1162109375,0.486328125
758,2.206,IMU2,11.463414634146343,3.1707317073170733,15.975609756097562,0.0498046875,0.1103515625,0.486328125
759,2.216,IMU0,6.341463414634147,-4.146341463414634,14.390243902439027,0.07421875,0.17578125,0.4970703125
760,2.216,IMU1,8.78048780487805,-5.0,14.51219512195122,0.0654296875,0.1826171875,0.5205078125
761,2.216,IMU2,7.500000000000001,-4.085365853658537,14.146341463414636,0.0458984375,0.158203125,0.53125
762,2.226,IMU0,6.402439024390245,-3.1097560975609757,12.560975609756099,0.185546875,0.037109375,0.3349609375
763,2.226,IMU1,9.207317073170733,-4.024390243902439,12.74390243902439,0.1826171875,0.0576171875,0.3330078125
764,2.226,IMU2,7.621951219512196,-2.1951219512195124,12.317073170731708,0.1728515625,0.0654296875,0.3017578125
765,2.236,IMU0,7.01219512195122,-4.634146341463415,18.04878048780488,0.2001953125,0.130859375,0.3466796875
766,2.236,IMU1,9.695121951219512,-5.731707317073171,18.04878048780488,0.201171875,0.1298828125,0.3671875
767,2.236,IMU2,8.109756097560977,-4.451219512195122,18.170731707317074,0.1865234375,0.0947265625,0.3818359375
768,2.246,IMU0,10.060975609756099,1.2195121951219514,20.426829268292686,0.2509765625,0.02734375,0.265625
769,2.246,IMU1,12.560975609756099,-0.12195121951219513,20.670731707317074,0.2529296875,0.0595703125,0.265625
770,2.246,IMU2,11.097560975609756,0.5487804878048781,20.182926829268293,0.24609375,0.0634765625,0.2509765625
771,2.256,IMU0,10.975609756097562,-0.24390243902439027,22.012195121951223,0.1240234375,0.09375,0.306640625
772,2.256,IMU1,13.353658536585368,-0.853658536585366,22.195121951219512,0.1181640625,0.0869140625,0.322265625
773,2.256,IMU2,12.500000000000002,0.7926829268292683,21.707317073170735,0.107421875,0.060546875,0.3232421875
774,2.266,IMU0,8.536585365853659,1.0365853658536586,15.853658536585368,0.1015625,0.158203125,0.2958984375
775,2.266,IMU1,11.707317073170733,0.426829268292683,15.975609756097562,0.095703125,0.1650390625,0.30078125
776,2.266,IMU2,10.182926829268293,2.0121951219512195,15.54878048780488,0.080078125,0.1416015625,0.2900390625
777,2.276,IMU0,8.78048780487805,0.0,15.243902439024392,0.0654296875,0.03125,0.2705078125
778,2.276,IMU1,12.073170731707318,-0.9146341463414634,15.30487804878049,0.0693359375,0.0673828125,0.2822265625
779,2.276,IMU2,10.121951219512196,0.1829268292682927,14.878048780487806,0.0595703125,0.07421875,0.26171875
780,2.286,IMU0,10.121951219512196,-0.7926829268292683,16.951219512195124,0.1064453125,0.05859375,0.2216796875
781,2.286,IMU1,13.719512195121952,-2.073170731707317,17.073170731707318,0.0966796875,0.068359375,0.24609375
782,2.286,IMU2,11.585365853658537,-0.6097560975609757,16.70731707317073,0.0810546875,0.05859375,0.2353515625
783,2.296,IMU0,8.536585365853659,3.4756097560975614,10.121951219512196,0.037109375,0.146484375,0.3525390625
784,2.296,IMU1,11.646341463414634,2.378048780487805,10.30487804878049,0.0302734375,0.1376953125,0.369140625
785,2.296,IMU2,9.817073170731708,3.7195121951219514,9.878048780487806,0.0166015625,0.1142578125,0.34765625
786,2.306,IMU0,8.048780487804878,0.7926829268292683,13.536585365853659,0.033203125,0.232421875,0.2978515625
787,2.306,IMU1,10.975609756097562,-0.24390243902439027,13.597560975609758,0.025390625,0.2177734375,0.3017578125
788,2.306,IMU2,9.695121951219512,1.0365853658536586,13.04878048780488,0.015625,0.1962890625,0.2978515625
789,2.316,IMU0,8.353658536585366,-1.1585365853658538,15.243902439024392,0.05859375,0.2431640625,0.2841796875
790,2.316,IMU1,10.731707317073171,-2.073170731707317,15.30487804878049,0.0576171875,0.2548828125,0.3037109375
791,2.316,IMU2,9.51219512195122,-1.5853658536585367,14.756097560975611,0.0498046875,0.2431640625,0.2861328125
792,2.326,IMU0,8.353658536585366,-2.0121951219512195,15.914634146341465,0.056640625,0.2333984375,0.28125
793,2.326,IMU1,10.670731707317074,-2.9268292682926833,15.975609756097562,0.0537109375,0.25390625,0.26171875
794,2.326,IMU2,9.451219512195122,-2.1341463414634148,15.426829268292684,0.041015625,0.2412109375,0.2373046875
795,2.336,IMU0,9.390243902439025,-2.682926829268293,14.085365853658537,0.001953125,0.173828125,0.23046875
796,2.336,IMU1,11.585365853658537,-3.658536585365854,14.390243902439027,-0.005859375,0.208984375,0.2451171875
797,2.336,IMU2,10.426829268292684,-2.682926829268293,13.78048780487805,-0.0244140625,0.1962890625,0.22265625
798,2.346,IMU0,7.926829268292684,-5.060975609756098,10.975609756097562,-0.00390625,0.1357421875,0.2568359375
799,2.346,IMU1,10.365853658536587,-6.097560975609756,11.158536585365855,-0.0048828125,0.1689453125,0.2685546875
800,2.346,IMU2,9.146341463414634,-4.695121951219512,10.609756097560977,-0.01953125,0.1533203125,0.2578125
801,2.356,IMU0,7.743902439024391,-4.451219512195122,8.536585365853659,0.0087890625,0.130859375,0.205078125
802,2.356,IMU1,9.634146341463415,-5.365853658536586,8.902439024390244,0.0029296875,0.158203125,0.212890625
803,2.356,IMU2,9.02439024390244,-4.390243902439025,8.231707317073171,-0.017578125,0.140625,0.203125
804,2.366,IMU0,7.865853658536586,-1.7682926829268295,7.134146341463415,-0.0126953125,0.140625,0.2666015625
805,2.366,IMU1,9.26829268292683,-2.6219512195121952,7.378048780487806,-0.01171875,0.1708984375,0.2529296875
806,2.366,IMU2,9.26829268292683,-1.6463414634146343,6.7682926829268295,-0.025390625,0.150390625,0.2353515625
807,2.376,IMU0,6.097560975609756,0.0,7.01219512195122,-0.056640625,0.119140625,0.216796875
808,2.376,IMU1,8.109756097560977,-1.1585365853658538,7.25609756097561,-0.056640625,0.1591796875,0.234375
809,2.376,IMU2,7.621951219512196,0.1829268292682927,6.707317073170732,-0.0703125,0.1279296875,0.2197265625
810,2.386,IMU0,6.463414634146342,5.2439024390243905,7.8048780487804885,-0.05859375,0.1328125,0.244140625
811,2.386,IMU1,8.536585365853659,3.963414634146342,8.170731707317074,-0.0595703125,0.169921875,0.2529296875
812,2.386,IMU2,8.109756097560977,5.2439024390243905,7.439024390243903,-0.0830078125,0.1357421875,0.2412109375
813,2.396,IMU0,3.658536585365854,3.9024390243902443,5.060975609756098,-0.0400390625,0.130859375,0.1904296875
814,2.396,IMU1,5.487804878048781,2.439024390243903,5.3048780487804885,-0.037109375,0.16796875,0.1787109375
815,2.396,IMU2,5.2439024390243905,3.780487804878049,4.695121951219512,-0.0517578125,0.12890625,0.16015625
816,2.406,IMU0,4.207317073170732,7.378048780487806,7.01219512195122,0.00390625,0.1240234375,0.189453125
817,2.406,IMU1,6.2804878048780495,5.853658536585367,7.317073170731708,0.0009765625,0.1611328125,0.169921875
818,2.406,IMU2,5.7926829268292686,7.378048780487806,6.646341463414635,-0.01953125,0.1181640625,0.16015625
819,2.416,IMU0,4.817073170731708,5.182926829268293,5.487804878048781,-0.0439453125,0.109375,0.1435546875
820,2.416,IMU1,7.378048780487806,3.658536585365854,5.914634146341464,-0.0458984375,0.140625,0.1630859375
821,2.416,IMU2,6.097560975609756,4.878048780487806,5.182926829268293,-0.0576171875,0.1005859375,0.146484375
822,2.426,IMU0,3.9024390243902443,0.6097560975609757,6.097560975609756,-0.0908203125,0.083984375,0.14453125
823,2.426,IMU1,6.341463414634147,-0.6097560975609757,6.341463414634147,-0.091796875,0.107421875,0.1787109375
824,2.426,IMU2,5.121951219512195,0.426829268292683,5.7926829268292686,-0.09765625,0.076171875,0.1689453125
825,2.436,IMU0,4.817073170731708,-2.1951219512195124,10.24390243902439,-0.052734375,0.0654296875,0.1337890625
826,2.436,IMU1,7.865853658536586,-3.658536585365854,10.426829268292684,-0.064453125,0.0546875,0.1708984375
827,2.436,IMU2,6.341463414634147,-2.25609756097561,9.817073170731708,-0.0703125,0.0546875,0.1640625
828,2.446,IMU0,4.390243902439025,-6.158536585365854,12.560975609756099,-0.0439453125,0.1142578125,0.126953125
829,2.446,IMU1,7.439024390243903,-7.195121951219513,12.80487804878049,-0.0419921875,0.158203125,0.158203125
830,2.446,IMU2,6.036585365853659,-6.158536585365854,12.134146341463415,-0.0615234375,0.09375,0.1669921875
831,2.456,IMU0,4.75609756097561,-6.158536585365854,13.109756097560977,-0.0068359375,0.1689453125,0.15234375
832,2.456,IMU1,7.8048780487804885,-6.7682926829268295,13.04878048780488,-0.0400390625,0.0693359375,0.150390625
833,2.456,IMU2,6.52439024390244,-5.853658536585367,12.682926829268293,-0.0341796875,0.13671875,0.1611328125
834,2.466,IMU0,4.390243902439025,-4.878048780487806,11.707317073170733,-0.0166015625,0.2421875,0.162109375
835,2.466,IMU1,7.134146341463415,-4.939024390243903,11.646341463414634,-0.056640625,0.095703125,0.1748046875
836,2.466,IMU2,5.853658536585367,-4.451219512195122,11.341463414634147,-0.0458984375,0.21484375,0.12890625
837,2.476,IMU0,5.609756097560976,-3.8414634146341466,9.451219512195122,-0.01953125,0.2607421875,0.193359375
838,2.476,IMU1,8.536585365853659,-4.573170731707317,9.634146341463415,-0.0498046875,0.146484375,0.2109375
839,2.476,IMU2,6.585365853658537,-3.7195121951219514,9.207317073170733,-0.041015625,0.2578125,0.1484375
840,2.486,IMU0,7.682926829268293,-1.6463414634146343,9.207317073170733,-0.044921875,0.234375,0.2177734375
841,2.486,IMU1,10.30487804878049,-2.0121951219512195,9.573170731707318,-0.0673828125,0.21875,0.1953125
842,2.486,IMU2,8.658536585365855,-1.3414634146341464,8.963414634146343,-0.060546875,0.2490234375,0.20703125
843,2.496,IMU0,9.085365853658537,-2.439024390243903,7.743902439024391,-0.130859375,0.22265625,0.1982421875
844,2.496,IMU1,11.158536585365855,-3.353658536585366,8.170731707317074,-0.1201171875,0.291015625,0.1767578125
845,2.496,IMU2,10.121951219512196,-2.1341463414634148,7.439024390243903,-0.134765625,0.2548828125,0.1962890625
846,2.506,IMU0,10.30487804878049,-3.7195121951219514,8.353658536585366,-0.1318359375,0.173828125,0.1943359375
847,2.506,IMU1,12.500000000000002,-5.0,8.475609756097562,-0.111328125,0.322265625,0.2177734375
848,2.506,IMU2,11.341463414634147,-3.414634146341464,7.987804878048781,-0.140625,0.2314453125,0.19140625
849,2.516,IMU0,8.719512195121952,-5.487804878048781,3.048780487804878,-0.171875,0.1064453125,0.185546875
850,2.516,IMU1,10.731707317073171,-7.195121951219513,2.682926829268293,-0.1455078125,0.2900390625,0.18359375
851,2.516,IMU2,9.634146341463415,-5.365853658536586,2.5609756097560976,-0.1796875,0.158203125,0.2119140625
852,2.526,IMU0,9.634146341463415,-4.207317073170732,-2.0121951219512195,-0.255859375,0.072265625,0.1884765625
853,2.526,IMU1,11.28048780487805,-6.036585365853659,-2.1951219512195124,-0.2392578125,0.224609375,0.212890625
854,2.526,IMU2,10.426829268292684,-4.085365853658537,-2.5,-0.2666015625,0.109375,0.21484375
855,2.536,IMU0,9.695121951219512,-10.121951219512196,-3.2926829268292686,-0.328125,0.0478515625,0.19140625
856,2.536,IMU1,12.073170731707318,-12.317073170731708,-3.1097560975609757,-0.302734375,0.1484375,0.220703125
857,2.536,IMU2,10.853658536585368,-10.182926829268293,-3.658536585365854,-0.333984375,0.0673828125,0.185546875
858,2.546,IMU0,10.365853658536587,-15.000000000000002,-1.6463414634146343,-0.296875,0.0595703125,0.2041015625
859,2.546,IMU1,13.04878048780488,-16.646341463414636,-1.524390243902439,-0.2958984375,0.0693359375,0.220703125
860,2.546,IMU2,11.890243902439025,-15.060975609756099,-2.0121951219512195,-0.318359375,0.0263671875,0.22265625
861,2.556,IMU0,11.646341463414634,-17.073170731707318,-1.9512195121951221,-0.240234375,0.1435546875,0.1953125
862,2.556,IMU1,14.878048780487806,-17.804878048780488,-1.829268292682927,-0.2646484375,0.015625,0.19921875
863,2.556,IMU2,13.414634146341465,-16.70731707317073,-2.3170731707317076,-0.2744140625,0.048828125,0.21875
864,2.566,IMU0,12.621951219512196,-17.439024390243905,-1.6463414634146343,-0.2021484375,0.220703125,0.1728515625
865,2.566,IMU1,15.731707317073171,-17.378048780487806,-1.3414634146341464,-0.2509765625,0.0458984375,0.20703125
866,2.566,IMU2,14.085365853658537,-16.463414634146343,-1.829268292682927,-0.2470703125,0.140625,0.13671875
867,2.576,IMU0,17.25609756097561,-17.134146341463417,0.30487804878048785,-0.216796875,0.2197265625,0.1806640625
868,2.576,IMU1,19.390243902439025,-18.597560975609756,0.5487804878048781,-0.240234375,0.1142578125,0.1533203125
869,2.576,IMU2,17.5,-17.98780487804878,-0.12195121951219513,-0.2333984375,0.177734375,0.1416015625
870,2.586,IMU0,21.52439024390244,-18.353658536585368,3.231707317073171,-0.1787109375,0.2138671875,0.173828125
871,2.586,IMU1,23.963414634146343,-19.81707317073171,3.4756097560975614,-0.1689453125,0.2099609375,0.1728515625
872,2.586,IMU2,22.073170731707318,-18.78048780487805,2.7439024390243905,-0.1796875,0.2373046875,0.1416015625
873,2.596,IMU0,24.512195121951223,-16.951219512195124,4.146341463414634,-0.1259765625,0.2021484375,0.16015625
874,2.596,IMU1,27.682926829268297,-18.658536585365855,4.390243902439025,-0.1298828125,0.216796875,0.1416015625
875,2.596,IMU2,25.670731707317074,-17.012195121951223,3.9024390243902443,-0.1455078125,0.1904296875,0.162109375
876,2.606,IMU0,27.073170731707318,-16.646341463414636,2.25609756097561,-0.1259765625,0.1572265625,0.142578125
877,2.606,IMU1,30.000000000000004,-17.804878048780488,2.5609756097560976,-0.1337890625,0.1611328125,0.1728515625
878,2.606,IMU2,28.170731707317074,-16.463414634146343,2.1341463414634148,-0.154296875,0.150390625,0.1435546875
879,2.616,IMU0,29.695121951219516,-15.365853658536587,3.414634146341464,-0.103515625,0.1201171875,0.1376953125
880,2.616,IMU1,32.01219512195122,-16.402439024390244,3.5975609756097566,-0.099609375,0.1298828125,0.126953125
881,2.616,IMU2,30.792682926829272,-15.243902439024392,2.9268292682926833,-0.1044921875,0.1201171875,0.123046875
882,2.626,IMU0,33.29268292682927,-16.76829268292683,7.439024390243903,-0.1162109375,0.1015625,0.0751953125
883,2.626,IMU1,35.91463414634147,-17.682926829268293,7.682926829268293,-0.115234375,0.1064453125,0.09765625
884,2.626,IMU2,34.63414634146342,-16.52439024390244,7.195121951219513,-0.123046875,0.107421875,0.11328125
885,2.636,IMU0,35.0,-20.731707317073173,8.963414634146343,-0.1474609375,0.099609375,0.1015625
886,2.636,IMU1,37.6219512195122,-21.219512195121954,9.329268292682928,-0.150390625,0.1201171875,0.1298828125
887,2.636,IMU2,36.15853658536586,-20.243902439024392,8.841463414634147,-0.158203125,0.142578125,0.0888671875
888,2.646,IMU0,33.963414634146346,-23.963414634146343,7.621951219512196,-0.1318359375,0.1044921875,0.0771484375
889,2.646,IMU1,36.21951219512196,-24.878048780487806,8.109756097560977,-0.12890625,0.14453125,0.0712890625
890,2.646,IMU2,35.0,-24.26829268292683,7.560975609756098,-0.1298828125,0.177734375,0.0595703125
891,2.656,IMU0,34.87804878048781,-28.04878048780488,11.341463414634147,-0.1005859375,0.1494140625,0.0185546875
892,2.656,IMU1,37.31707317073171,-28.780487804878053,11.646341463414634,-0.0947265625,0.1845703125,0.0341796875
893,2.656,IMU2,35.85365853658537,-28.04878048780488,10.975609756097562,-0.095703125,0.2041015625,0.0234375
894,2.666,IMU0,35.1829268292683,-33.84146341463415,17.378048780487806,-0.0068359375,0.1923828125,-0.0244140625
895,2.666,IMU1,37.86585365853659,-34.75609756097561,17.5609756097561,-0.009765625,0.2109375,-0.015625
896,2.666,IMU2,36.463414634146346,-33.65853658536586,16.951219512195124,-0.01953125,0.2001953125,-0.0380859375
897,2.676,IMU0,35.426829268292686,-32.6219512195122,19.02439024390244,-0.0517578125,0.193359375,-0.0205078125
898,2.676,IMU1,38.71951219512196,-33.23170731707317,19.207317073170735,-0.0576171875,0.181640625,-0.0283203125
899,2.676,IMU2,36.707317073170735,-31.89024390243903,18.78048780487805,-0.0693359375,0.1484375,-0.03515625
900,2.686,IMU0,34.69512195121951,-35.243902439024396,20.0,-0.01171875,0.091796875,-0.0595703125
901,2.686,IMU1,37.743902439024396,-35.73170731707317,20.30487804878049,-0.017578125,0.068359375,-0.0322265625
902,2.686,IMU2,35.97560975609756,-34.93902439024391,19.81707317073171,-0.03125,0.0400390625,-0.0283203125
903,2.696,IMU0,35.85365853658537,-30.670731707317074,19.75609756097561,-0.0576171875,0.005859375,-0.0625
904,2.696,IMU1,38.963414634146346,-31.280487804878053,20.0609756097561,-0.0615234375,-0.001953125,-0.052734375
905,2.696,IMU2,36.890243902439025,-30.487804878048784,19.75609756097561,-0.0732421875,-0.015625,-0.0595703125
906,2.706,IMU0,35.1829268292683,-27.80487804878049,17.195121951219512,-0.0966796875,-0.0390625,-0.05078125
907,2.706,IMU1,38.10975609756098,-28.719512195121954,17.5609756097561,-0.09765625,-0.0205078125,-0.03125
908,2.706,IMU2,36.03658536585366,-27.621951219512198,17.25609756097561,-0.1103515625,-0.017578125,-0.017578125
909,2.716,IMU0,34.451219512195124,-24.573170731707318,16.890243902439025,-0.13671875,0.0234375,-0.07421875
910,2.716,IMU1,37.07317073170732,-25.365853658536587,17.134146341463417,-0.134765625,0.0654296875,-0.0458984375
911,2.716,IMU2,35.609756097560975,-24.390243902439025,16.70731707317073,-0.1484375,0.0703125,-0.0458984375
912,2.726,IMU0,33.170731707317074,-25.243902439024392,18.414634146341466,-0.1279296875,0.1025390625,-0.0537109375
913,2.726,IMU1,35.54878048780488,-26.158536585365855,18.658536585365855,-0.1279296875,0.1533203125,-0.048828125
914,2.726,IMU2,34.63414634146342,-25.243902439024392,18.10975609756098,-0.138671875,0.15234375,-0.0732421875
915,2.736,IMU0,34.024390243902445,-23.170731707317074,19.81707317073171,-0.1650390625,0.2177734375,-0.0400390625
916,2.736,IMU1,36.463414634146346,-23.963414634146343,20.0609756097561,-0.1640625,0.2451171875,-0.05859375
917,2.736,IMU2,35.487804878048784,-23.04878048780488,19.573170731707318,-0.17578125,0.2373046875,-0.08984375
918,2.746,IMU0,33.41463414634146,-25.243902439024392,20.975609756097562,-0.1806640625,0.2314453125,-0.0576171875
919,2.746,IMU1,36.03658536585366,-25.731707317073173,21.158536585365855,-0.1865234375,0.220703125,-0.0478515625
920,2.746,IMU2,34.69512195121951,-25.000000000000004,20.731707317073173,-0.1962890625,0.2138671875,-0.0673828125
921,2.756,IMU0,34.024390243902445,-25.54878048780488,19.878048780487806,-0.224609375,0.1708984375,-0.072265625
922,2.756,IMU1,36.951219512195124,-26.09756097560976,20.121951219512198,-0.234375,0.146484375,-0.056640625
923,2.756,IMU2,35.487804878048784,-25.243902439024392,19.695121951219512,-0.2421875,0.1455078125,-0.0634765625
924,2.766,IMU0,35.609756097560975,-26.463414634146343,22.500000000000004,-0.26171875,0.107421875,-0.0830078125
925,2.766,IMU1,38.71951219512196,-27.073170731707318,22.80487804878049,-0.265625,0.0673828125,-0.08203125
926,2.766,IMU2,37.13414634146342,-26.34146341463415,22.31707317073171,-0.2763671875,0.0791015625,-0.09765625
927,2.776,IMU0,35.0,-27.80487804878049,19.451219512195124,-0.26953125,-0.021484375,-0.1044921875
928,2.776,IMU1,37.80487804878049,-28.475609756097562,19.81707317073171,-0.26953125,-0.0458984375,-0.0625
929,2.776,IMU2,36.463414634146346,-27.865853658536587,19.26829268292683,-0.27734375,-0.0390625,-0.0556640625
930,2.786,IMU0,36.21951219512196,-26.09756097560976,21.76829268292683,-0.2802734375,-0.0810546875,-0.0849609375
931,2.786,IMU1,39.024390243902445,-26.82926829268293,22.134146341463417,-0.271484375,-0.0625,-0.07421875
932,2.786,IMU2,37.6829268292683,-26.219512195121954,21.585365853658537,-0.2783203125,-0.0791015625,-0.07421875
933,2.796,IMU0,38.90243902439025,-25.0609756097561,29.207317073170735,-0.1552734375,-0.015625,-0.1484375
934,2.796,IMU1,41.58536585365854,-26.158536585365855,29.451219512195124,-0.150390625,0.021484375,-0.1181640625
935,2.796,IMU2,40.54878048780488,-25.0609756097561,28.963414634146343,-0.1640625,-0.01171875,-0.1337890625
936,2.806,IMU0,38.65853658536586,-25.54878048780488,35.73170731707317,0.0263671875,0.068359375,-0.1591796875
937,2.806,IMU1,40.97560975609756,-26.402439024390247,35.85365853658537,0.0361328125,0.1201171875,-0.1689453125
938,2.806,IMU2,40.0609756097561,-25.365853658536587,35.487804878048784,0.02734375,0.0673828125,-0.185546875
939,2.816,IMU0,41.34146341463415,-19.390243902439025,36.524390243902445,0.17578125,0.2060546875,-0.2314453125
940,2.816,IMU1,43.53658536585366,-20.365853658536587,36.951219512195124,0.1572265625,0.224609375,-0.2333984375
941,2.816,IMU2,42.37804878048781,-19.634146341463417,36.40243902439025,0.13671875,0.201171875,-0.232421875
942,2.826,IMU0,39.08536585365854,-19.32926829268293,29.512195121951223,0.2841796875,0.201171875,-0.28125
943,2.826,IMU1,40.79268292682927,-19.878048780487806,30.000000000000004,0.259765625,0.177734375,-0.2587890625
944,2.826,IMU2,40.0609756097561,-19.26829268292683,29.39024390243903,0.2509765625,0.20703125,-0.302734375
945,2.836,IMU0,36.951219512195124,-16.76829268292683,21.03658536585366,0.271484375,0.0634765625,-0.25390625
946,2.836,IMU1,39.207317073170735,-17.134146341463417,21.463414634146343,0.2578125,0.041015625,-0.24609375
947,2.836,IMU2,38.170731707317074,-16.463414634146343,20.914634146341466,0.2548828125,0.07421875,-0.24609375
948,2.846,IMU0,36.40243902439025,-16.585365853658537,18.414634146341466,0.30859375,-0.0224609375,-0.3193359375
949,2.846,IMU1,38.53658536585366,-17.439024390243905,18.902439024390244,0.30078125,-0.017578125,-0.28515625
950,2.846,IMU2,37.5609756097561,-16.70731707317073,18.353658536585368,0.2900390625,-0.0185546875,-0.2890625
951,2.856,IMU0,38.23170731707317,-15.914634146341465,21.097560975609756,0.2685546875,0.033203125,-0.28125
952,2.856,IMU1,40.54878048780488,-16.646341463414636,21.402439024390247,0.2666015625,0.0556640625,-0.28125
953,2.856,IMU2,39.390243902439025,-16.097560975609756,21.158536585365855,0.2607421875,0.0224609375,-0.2763671875
954,2.866,IMU0,38.29268292682927,-18.658536585365855,23.963414634146343,0.2275390625,0.0634765625,-0.27734375
955,2.866,IMU1,40.60975609756098,-19.146341463414636,24.207317073170735,0.224609375,0.078125,-0.251953125
956,2.866,IMU2,39.451219512195124,-18.29268292682927,23.902439024390247,0.2158203125,0.056640625,-0.2880859375
957,2.876,IMU0,39.87804878048781,-20.48780487804878,28.475609756097562,0.2001953125,0.0830078125,-0.296875
958,2.876,IMU1,42.31707317073171,-20.670731707317074,28.658536585365855,0.201171875,0.0947265625,-0.2978515625
959,2.876,IMU2,40.91463414634147,-20.243902439024392,28.414634146341466,0.193359375,0.0751953125,-0.29296875
960,2.886,IMU0,40.60975609756098,-19.573170731707318,31.158536585365855,0.22265625,0.0693359375,-0.24609375
961,2.886,IMU1,43.29268292682927,-19.878048780487806,31.402439024390247,0.2138671875,0.0830078125,-0.2333984375
962,2.886,IMU2,41.890243902439025,-19.451219512195124,31.03658536585366,0.2060546875,0.0654296875,-0.232421875
963,2.896,IMU0,40.73170731707317,-19.573170731707318,34.451219512195124,0.2275390625,0.125,-0.275390625
964,2.896,IMU1,43.47560975609756,-20.243902439024392,34.63414634146342,0.2216796875,0.1298828125,-0.2548828125
965,2.896,IMU2,42.07317073170732,-19.390243902439025,34.390243902439025,0.2177734375,0.1259765625,-0.296875
966,2.906,IMU0,40.54878048780488,-17.134146341463417,34.451219512195124,0.134765625,0.10546875,-0.23046875
967,2.906,IMU1,43.23170731707317,-17.5,34.75609756097561,0.130859375,0.1005859375,-0.22265625
968,2.906,IMU2,41.768292682926834,-16.585365853658537,34.268292682926834,0.1181640625,0.125,-0.2451171875
969,2.916,IMU0,40.243902439024396,-18.658536585365855,34.87804878048781,0.0498046875,0.0517578125,-0.2236328125
970,2.916,IMU1,43.23170731707317,-19.146341463414636,35.1219512195122,0.0478515625,0.0634765625,-0.2138671875
971,2.916,IMU2,41.58536585365854,-18.475609756097562,34.69512195121951,0.037109375,0.052734375,-0.20703125
972,2.926,IMU0,38.29268292682927,-20.670731707317074,33.170731707317074,0.05859375,0.142578125,-0.2294921875
973,2.926,IMU1,40.85365853658537,-21.219512195121954,33.47560975609756,0.052734375,0.1728515625,-0.2255859375
974,2.926,IMU2,40.1219512195122,-20.182926829268293,32.987804878048784,0.0302734375,0.0966796875,-0.2041015625
975,2.936,IMU0,36.890243902439025,-21.28048780487805,30.487804878048784,0.0693359375,0.2099609375,-0.2041015625
976,2.936,IMU1,39.93902439024391,-22.25609756097561,30.792682926829272,0.0576171875,0.2119140625,-0.20703125
977,2.936,IMU2,38.35365853658537,-20.914634146341466,30.365853658536587,0.0458984375,0.19921875,-0.1953125
978,2.946,IMU0,35.1829268292683,-20.0,24.939024390243905,-0.01953125,0.0966796875,-0.1875
979,2.946,IMU1,38.41463414634147,-20.48780487804878,25.30487804878049,-0.029296875,0.0859375,-0.1728515625
980,2.946,IMU2,36.34146341463415,-19.939024390243905,24.573170731707318,-0.0380859375,0.1376953125,-0.150390625
981,2.956,IMU0,33.963414634146346,-21.76829268292683,20.60975609756098,-0.0361328125,0.025390625,-0.1923828125
982,2.956,IMU1,37.19512195121951,-22.195121951219512,20.975609756097562,-0.0380859375,0.0478515625,-0.1806640625
983,2.956,IMU2,35.487804878048784,-21.402439024390247,20.30487804878049,-0.060546875,0.015625,-0.1435546875
984,2.966,IMU0,32.31707317073171,-20.60975609756098,18.475609756097562,-0.0009765625,0.095703125,-0.16015625
985,2.966,IMU1,35.36585365853659,-21.463414634146343,18.658536585365855,-0.0029296875,0.12890625,-0.1669921875
986,2.966,IMU2,34.08536585365854,-19.75609756097561,18.353658536585368,-0.025390625,0.033203125,-0.126953125
987,2.976,IMU0,32.86585365853659,-19.085365853658537,17.5609756097561,-0.0283203125,0.1181640625,-0.1787109375
988,2.976,IMU1,35.609756097560975,-19.512195121951223,17.804878048780488,-0.0361328125,0.1171875,-0.181640625
989,2.976,IMU2,34.024390243902445,-18.902439024390244,17.439024390243905,-0.0458984375,0.1328125,-0.1728515625
990,2.986,IMU0,32.07317073170732,-19.26829268292683,10.670731707317074,-0.095703125,-0.0107421875,-0.1689453125
991,2.986,IMU1,33.65853658536586,-20.54878048780488,10.30487804878049,-0.107421875,-0.01171875,-0.154296875
992,2.986,IMU2,32.926829268292686,-19.512195121951223,10.182926829268293,-0.1171875,0.0390625,-0.13671875
993,2.996,IMU0,29.75609756097561,-19.878048780487806,4.878048780487806,-0.1259765625,0.00390625,-0.14453125
994,2.996,IMU1,32.43902439024391,-20.914634146341466,4.939024390243903,-0.154296875,-0.05859375,-0.134765625
995,2.996,IMU2,31.34146341463415,-19.81707317073171,4.573170731707317,-0.1650390625,-0.064453125,-0.130859375
996,3.006,IMU0,27.926829268292686,-22.195121951219512,1.707317073170732,-0.1396484375,0.1640625,-0.14453125
997,3.006,IMU1,31.280487804878053,-21.52439024390244,1.707317073170732,-0.193359375,-0.0048828125,-0.126953125
998,3.006,IMU2,29.634146341463417,-21.219512195121954,1.402439024390244,-0.1923828125,0.080078125,-0.1689453125
999,3.016,IMU0,27.073170731707318,-24.207317073170735,-0.7926829268292683,-0.244140625,0.1298828125,-0.1171875
1000,3.016,IMU1,29.146341463414636,-24.81707317073171,-0.24390243902439027,-0.23828125,0.173828125,-0.1162109375
1001,3.016,IMU2,27.926829268292686,-24.26829268292683,-0.853658536585366,-0.24609375,0.177734375,-0.111328125
1002,3.026,IMU0,25.853658536585368,-25.48780487804878,-0.9756097560975611,-0.29296875,-0.048828125,-0.1357421875
1003,3.026,IMU1,27.5609756097561,-26.52439024390244,-0.7317073170731708,-0.265625,0.146484375,-0.1181640625
1004,3.026,IMU2,26.707317073170735,-25.60975609756098,-1.2195121951219514,-0.2861328125,0.076171875,-0.1396484375
1005,3.036,IMU0,24.085365853658537,-26.58536585365854,0.24390243902439027,-0.3720703125,-0.0771484375,-0.1142578125
1006,3.036,IMU1,26.76829268292683,-28.59756097560976,0.6707317073170732,-0.35546875,-0.009765625,-0.0947265625
1007,3.036,IMU2,25.48780487804878,-26.89024390243903,0.1829268292682927,-0.3681640625,-0.06640625,-0.0830078125
1008,3.046,IMU0,22.80487804878049,-26.34146341463415,2.073170731707317,-0.396484375,0.015625,-0.1025390625
1009,3.046,IMU1,26.09756097560976,-27.31707317073171,2.073170731707317,-0.4306640625,-0.08984375,-0.07421875
1010,3.046,IMU2,24.634146341463417,-26.03658536585366,1.7682926829268295,-0.4443359375,-0.083984375,-0.0869140625
1011,3.056,IMU0,21.585365853658537,-27.31707317073171,1.707317073170732,-0.41796875,0.123046875,-0.08203125
1012,3.056,IMU1,24.573170731707318,-27.500000000000004,2.1341463414634148,-0.455078125,-0.0390625,-0.09375
1013,3.056,IMU2,23.10975609756098,-26.707317073170735,1.6463414634146343,-0.4580078125,-0.0029296875,-0.0947265625
1014,3.066,IMU0,21.585365853658537,-26.52439024390244,3.7195121951219514,-0.46484375,0.146484375,-0.064453125
1015,3.066,IMU1,24.085365853658537,-26.76829268292683,4.146341463414634,-0.4853515625,0.0546875,-0.052734375
1016,3.066,IMU2,22.865853658536587,-26.219512195121954,3.5975609756097566,-0.49609375,0.0859375,-0.0625
1017,3.076,IMU0,20.731707317073173,-26.34146341463415,2.804878048780488,-0.48046875,0.095703125,-0.046875
1018,3.076,IMU1,23.353658536585368,-27.134146341463417,3.048780487804878,-0.4814453125,0.12890625,-0.0537109375
1019,3.076,IMU2,21.646341463414636,-26.28048780487805,2.5,-0.4931640625,0.13671875,-0.0849609375
1020,3.086,IMU0,20.365853658536587,-24.939024390243905,-2.073170731707317,-0.5654296875,0.0458984375,-0.0244140625
1021,3.086,IMU1,21.951219512195124,-26.402439024390247,-2.1951219512195124,-0.55078125,0.1591796875,-0.0107421875
1022,3.086,IMU2,20.54878048780488,-25.60975609756098,-2.6219512195121952,-0.5712890625,0.142578125,-0.01953125
1023,3.096,IMU0,18.658536585365855,-26.76829268292683,-5.548780487804878,-0.5986328125,0.015625,-0.0224609375
1024,3.096,IMU1,20.975609756097562,-27.987804878048784,-5.182926829268293,-0.580078125,0.115234375,0.0146484375
1025,3.096,IMU2,19.085365853658537,-26.951219512195124,-5.731707317073171,-0.5947265625,0.1015625,-0.005859375
1026,3.106,IMU0,19.32926829268293,-27.31707317073171,-2.682926829268293,-0.5986328125,0.0224609375,0.00390625
1027,3.106,IMU1,22.134146341463417,-28.59756097560976,-2.073170731707317,-0.5869140625,0.0810546875,0.01171875
1028,3.106,IMU2,20.365853658536587,-27.500000000000004,-2.5609756097560976,-0.5966796875,0.07421875,-0.021484375
1029,3.116,IMU0,19.573170731707318,-26.09756097560976,0.9146341463414634,-0.5986328125,0.0380859375,0.015625
1030,3.116,IMU1,22.134146341463417,-27.25609756097561,1.1585365853658538,-0.5869140625,0.08203125,0.02734375
1031,3.116,IMU2,20.60975609756098,-26.34146341463415,0.5487804878048781,-0.59765625,0.0751953125,0.0166015625
1032,3.126,IMU0,21.28048780487805,-25.182926829268293,4.695121951219512,-0.5986328125,0.02734375,0.01171875
1033,3.126,IMU1,23.29268292682927,-25.975609756097562,5.060975609756098,-0.5966796875,0.1171875,0.0419921875
1034,3.126,IMU2,22.682926829268293,-24.939024390243905,4.390243902439025,-0.6103515625,0.111328125,0.0283203125
1035,3.136,IMU0,20.853658536585368,-24.81707317073171,2.439024390243903,-0.62890625,0.11328125,0.0283203125
1036,3.136,IMU1,22.98780487804878,-25.670731707317074,2.7439024390243905,-0.6279296875,0.099609375,0.013671875
1037,3.136,IMU2,21.951219512195124,-24.573170731707318,2.073170731707317,-0.6416015625,0.0927734375,-0.0107421875
1038,3.146,IMU0,19.81707317073171,-25.48780487804878,0.30487804878048785,-0.6767578125,0.0751953125,0.0283203125
1039,3.146,IMU1,22.012195121951223,-26.463414634146343,0.6707317073170732,-0.6826171875,0.0556640625,0.048828125
1040,3.146,IMU2,21.03658536585366,-25.48780487804878,0.06097560975609757,-0.7021484375,0.0498046875,0.0517578125
1041,3.156,IMU0,19.451219512195124,-25.365853658536587,-1.3414634146341464,-0.7197265625,0.060546875,0.0244140625
1042,3.156,IMU1,21.890243902439025,-26.463414634146343,-0.9756097560975611,-0.71875,0.048828125,0.0322265625
1043,3.156,IMU2,20.426829268292686,-25.731707317073173,-1.524390243902439,-0.7333984375,0.046875,0.025390625
1044,3.166,IMU0,17.98780487804878,-27.682926829268297,-2.6219512195121952,-0.734375,0.03515625,0.0146484375
1045,3.166,IMU1,20.426829268292686,-28.170731707317074,-2.25609756097561,-0.7333984375,0.025390625,0.0302734375
1046,3.166,IMU2,19.085365853658537,-27.439024390243905,-2.8658536585365857,-0.7490234375,0.0234375,0.0234375
1047,3.176,IMU0,17.195121951219512,-30.182926829268297,-2.9268292682926833,-0.7724609375,-0.001953125,0.0185546875
1048,3.176,IMU1,19.634146341463417,-30.487804878048784,-2.682926829268293,-0.7705078125,0.0029296875,0.0419921875
1049,3.176,IMU2,18.231707317073173,-29.512195121951223,-3.231707317073171,-0.787109375,-0.001953125,0.0517578125
1050,3.186,IMU0,16.82926829268293,-29.87804878048781,-2.987804878048781,-0.7236328125,-0.005859375,0.00390625
1051,3.186,IMU1,18.84146341463415,-30.30487804878049,-2.682926829268293,-0.7177734375,0.0107421875,0.01171875
1052,3.186,IMU2,17.804878048780488,-29.146341463414636,-3.231707317073171,-0.7353515625,-0.001953125,-0.005859375
1053,3.196,IMU0,16.890243902439025,-28.292682926829272,-1.829268292682927,-0.7294921875,0.0341796875,0.0048828125
1054,3.196,IMU1,18.78048780487805,-28.963414634146343,-1.4634146341463417,-0.7255859375,0.05859375,0.03125
1055,3.196,IMU2,17.926829268292686,-27.865853658536587,-2.073170731707317,-0.744140625,0.0361328125,0.0302734375
1056,3.206,IMU0,17.25609756097561,-27.25609756097561,-1.2804878048780488,-0.71484375,0.0849609375,0.0029296875
1057,3.206,IMU1,19.451219512195124,-28.04878048780488,-1.0365853658536586,-0.712890625,0.107421875,-0.01171875
1058,3.206,IMU2,18.658536585365855,-26.82926829268293,-1.707317073170732,-0.732421875,0.0849609375,-0.0283203125
1059,3.216,IMU0,18.170731707317074,-27.31707317073171,-0.7317073170731708,-0.740234375,0.14453125,0.0078125
1060,3.216,IMU1,20.731707317073173,-28.170731707317074,-0.48780487804878053,-0.7431640625,0.14453125,0.01953125
1061,3.216,IMU2,19.512195121951223,-27.134146341463417,-1.0975609756097562,-0.76171875,0.140625,-0.0185546875
1062,3.226,IMU0,17.682926829268293,-30.182926829268297,-2.378048780487805,-0.7734375,0.1484375,0.0361328125
1063,3.226,IMU1,20.182926829268293,-31.158536585365855,-2.1341463414634148,-0.7802734375,0.1376953125,0.0244140625
1064,3.226,IMU2,18.475609756097562,-30.182926829268297,-2.6219512195121952,-0.794921875,0.142578125,0.0166015625
1065,3.236,IMU0,17.31707317073171,-33.04878048780488,-3.8414634146341466,-0.7734375,0.12109375,0.0166015625
1066,3.236,IMU1,19.878048780487806,-34.146341463414636,-3.536585365853659,-0.78125,0.0888671875,0.0263671875
1067,3.236,IMU2,18.10975609756098,-33.04878048780488,-4.024390243902439,-0.7890625,0.1240234375,-0.0166015625
1068,3.246,IMU0,16.951219512195124,-32.43902439024391,-5.0,-0.7607421875,0.048828125,0.0380859375
1069,3.246,IMU1,19.390243902439025,-33.41463414634146,-4.695121951219512,-0.763671875,0.01953125,0.0400390625
1070,3.246,IMU2,17.743902439024392,-32.19512195121951,-5.2439024390243905,-0.7734375,0.0537109375,0.041015625
1071,3.256,IMU0,17.5609756097561,-30.975609756097565,-4.634146341463415,-0.78125,0.02734375,0.0
1072,3.256,IMU1,20.426829268292686,-31.89024390243903,-4.390243902439025,-0.77734375,0.0,0.0107421875
1073,3.256,IMU2,18.353658536585368,-30.853658536585368,-4.75609756097561,-0.7861328125,0.037109375,-0.013671875
1074,3.266,IMU0,16.52439024390244,-31.03658536585366,-5.487804878048781,-0.7841796875,-0.0068359375,0.03515625
1075,3.266,IMU1,19.146341463414636,-32.07317073170732,-5.182926829268293,-0.7841796875,-0.0185546875,0.0498046875
1076,3.266,IMU2,17.621951219512198,-31.219512195121954,-5.7926829268292686,-0.7998046875,0.0009765625,0.060546875
1077,3.276,IMU0,16.097560975609756,-29.695121951219516,-7.926829268292684,-0.8134765625,-0.001953125,0.001953125
1078,3.276,IMU1,18.84146341463415,-30.792682926829272,-7.682926829268293,-0.806640625,-0.0205078125,0.017578125
1079,3.276,IMU2,17.134146341463417,-29.75609756097561,-8.170731707317074,-0.8173828125,0.0087890625,-0.00390625
1080,3.286,IMU0,16.76829268292683,-31.402439024390247,-3.658536585365854,-0.794921875,-0.0517578125,-0.015625
1081,3.286,IMU1,19.81707317073171,-32.5609756097561,-3.536585365853659,-0.787109375,-0.060546875,0.0146484375
1082,3.286,IMU2,17.926829268292686,-31.463414634146343,-3.963414634146342,-0.7978515625,-0.0380859375,0.0185546875
1083,3.296,IMU0,17.012195121951223,-30.670731707317074,-2.378048780487805,-0.7939453125,-0.078125,0.0126953125
1084,3.296,IMU1,19.75609756097561,-31.646341463414636,-2.1341463414634148,-0.7861328125,-0.072265625,0.025390625
1085,3.296,IMU2,18.29268292682927,-30.426829268292686,-2.5609756097560976,-0.7958984375,-0.08203125,0.021484375
1086,3.306,IMU0,18.597560975609756,-29.451219512195124,0.9756097560975611,-0.8017578125,-0.0634765625,-0.0009765625
1087,3.306,IMU1,21.585365853658537,-30.365853658536587,1.1585365853658538,-0.794921875,-0.0380859375,0.0205078125
1088,3.306,IMU2,20.121951219512198,-29.39024390243903,0.7317073170731708,-0.8173828125,-0.095703125,0.029296875
1089,3.316,IMU0,19.32926829268293,-29.26829268292683,2.3170731707317076,-0.8037109375,0.0078125,-0.025390625
1090,3.316,IMU1,22.25609756097561,-30.182926829268297,2.5609756097560976,-0.80078125,0.033203125,-0.0224609375
1091,3.316,IMU2,21.158536585365855,-28.719512195121954,1.8902439024390245,-0.8369140625,-0.044921875,-0.029296875
1092,3.326,IMU0,19.085365853658537,-30.182926829268297,0.853658536585366,-0.8330078125,0.0595703125,-0.0068359375
1093,3.326,IMU1,21.951219512195124,-31.158536585365855,1.0365853658536586,-0.83203125,0.0869140625,-0.00390625
1094,3.326,IMU2,20.853658536585368,-30.0609756097561,0.48780487804878053,-0.8642578125,0.0009765625,-0.0126953125
1095,3.336,IMU0,19.146341463414636,-29.26829268292683,-1.2195121951219514,-0.8427734375,0.12109375,-0.0107421875
1096,3.336,IMU1,21.76829268292683,-30.60975609756098,-0.853658536585366,-0.8427734375,0.1318359375,-0.01171875
1097,3.336,IMU2,20.243902439024392,-29.26829268292683,-1.402439024390244,-0.8818359375,0.06640625,-0.0341796875
1098,3.346,IMU0,18.902439024390244,-31.09756097560976,-2.804878048780488,-0.884765625,0.1171875,0.015625
1099,3.346,IMU1,21.219512195121954,-32.07317073170732,-2.5,-0.8896484375,0.1171875,0.0126953125
1100,3.346,IMU2,20.0609756097561,-30.853658536585368,-3.048780487804878,-0.9150390625,0.08203125,-0.0185546875
1101,3.356,IMU0,19.26829268292683,-31.646341463414636,-3.9024390243902443,-0.943359375,0.1259765625,0.0234375
1102,3.356,IMU1,22.012195121951223,-32.37804878048781,-3.658536585365854,-0.9423828125,0.11328125,0.0234375
1103,3.356,IMU2,20.426829268292686,-31.219512195121954,-4.024390243902439,-0.96484375,0.111328125,0.00390625
1104,3.366,IMU0,19.32926829268293,-33.04878048780488,-3.1707317073170733,-0.974609375,0.078125,0.0283203125
1105,3.366,IMU1,22.012195121951223,-33.71951219512196,-2.8658536585365857,-0.9755859375,0.060546875,0.0380859375
1106,3.366,IMU2,20.48780487804878,-32.43902439024391,-3.353658536585366,-0.984375,0.09375,-0.00390625
1107,3.376,IMU0,20.121951219512198,-32.743902439024396,-2.439024390243903,-1.037109375,0.0419921875,0.05078125
1108,3.376,IMU1,23.10975609756098,-33.59756097560976,-2.1951219512195124,-1.03515625,0.01953125,0.052734375
