,ts,acc_x,acc_y,acc_z
0,18705,0,0,0
1,18715,0,0,0
2,18725,0,0,0
3,18735,0,0,0
4,18745,0,0,0
5,18755,0,0,0
6,18765,0,0,0
7,18775,0,0,0
8,18785,0,0,0
9,18795,0,0,0
10,18805,0,0,0
11,18815,0,0,0
12,18825,0,0,0
13,18835,0,0,0
14,18845,0,0,0
15,18855,0,0,0
16,18865,0,0,0
17,18875,0,0,0
18,18885,0,0,0
19,18895,0,0,0
20,18905,0,0,0
21,18915,0,0,0
22,18925,0,0,0
23,18935,0,0,0
24,18945,0,0,0
25,18955,0,0,0
26,18965,0,0,0
27,18975,0,0,0
28,18985,0,0,0
29,18995,0,0,0
30,19005,0,0,0
31,19015,0,0,0
32,19025,0,0,0
33,19035,0,0,0
34,19045,0,0,0
35,19055,0,0,0
36,19065,0,0,0
37,19075,0,0,0
38,19085,0,0,0
39,19095,0,0,0
40,19105,0,0,0
41,19115,0,0,0
42,19125,0,0,0
43,19135,0,0,0
44,19145,0,0,0
45,19155,0,0,0
46,19165,0,0,0
47,19175,0,0,0
48,19185,0,0,0
49,19195,0,0,0
50,19205,0,0,0
51,19215,0,0,0
52,19225,0,0,0
53,19235,0,0,0
54,19245,0,0,0
55,19255,0,0,0
56,19265,0,0,0
57,19275,0,0,0
58,19285,0,0,0
59,19295,0,0,0
60,19305,0,0,0
61,19315,0,0,0
62,19325,0,0,0
63,19335,0,0,0
64,19345,0,0,0
65,19355,0,0,0
66,19365,0,0,0
67,19375,0,0,0
68,19385,0,0,0
69,19395,0,0,0
70,19405,0,0,0
71,19415,0,0,0
72,19425,0,0,0
73,19435,0,0,0
74,19445,0,0,0
75,19455,0,0,0
76,19465,0,0,0
77,19475,0,0,0
78,19485,0,0,0
79,19495,0,0,0
80,19505,0,0,0
81,19515,0,0,0
82,19525,0,0,0
83,19535,0,0,0
84,19545,0,0,0
85,19555,0,0,0
86,19565,0,0,0
87,19575,0,0,0
88,19585,0,0,0
89,19595,0,0,0
90,19605,0,0,0
91,19615,0,0,0
92,19625,0,0,0
93,19635,0,0,0
94,19645,0,0,0
95,19655,0,0,0
96,19665,0,0,0
97,19675,0,0,0
98,19685,0,0,0
99,19695,0,0,0
100,19705,0,0,0
101,19715,0,0,0
102,19725,0,0,0
103,19735,0,0,0
104,19745,0,0,0
105,19755,0,0,0
106,19765,0,0,0
107,19775,0,0,0
108,19785,0,0,0
109,19795,0,0,0
110,19805,0,0,0
111,19815,0,0,0
112,19825,0,0,0
113,19835,0,0,0
114,19845,0,0,0
115,19855,0,0,0
116,19865,0,0,0
117,19875,0,0,0
118,19885,0,0,0
119,19895,0,0,0
120,19905,0,0,0
121,19915,0,0,0
122,19925,0,0,0
123,19935,0,0,0
124,19945,0,0,0
125,19955,0,0,0
126,19965,0,0,0
127,19975,0,0,0
128,19985,0,0,0
129,19995,0,0,0
130,20005,0,0,0
131,20015,0,0,0
132,20025,0,0,0
133,20035,0,0,0
134,20045,0,0,0
135,20055,0,0,0
136,20065,0,0,0
137,20075,0,0,0
138,20085,0,0,0
139,20095,0,0,0
140,20105,0,0,0
141,20115,0,0,0
142,20125,0,0,0
143,20135,0,0,0
144,20145,0,0,0
145,20155,0,0,0
146,20165,0,0,0
147,20175,0,0,0
148,20185,0,0,0
149,20195,0,0,0
150,20205,0,0,0
151,20215,0,0,0
152,20225,0,0,0
153,20235,0,0,0
154,20245,0,0,0
155,20255,0,0,0
156,20265,0,0,0
157,20275,0,0,0
158,20285,0,0,0
159,20295,0,0,0
160,20305,0,0,0
161,20315,0,0,0
162,20325,0,0,0
163,20335,0,0,0
164,20345,0,0,0
165,20355,0,0,0
166,20365,0,0,0
167,20375,0,0,0
168,20385,0,0,0
169,20395,0,0,0
170,20405,0,0,0
171,20415,0,0,0
172,20425,0,0,0
173,20435,0,0,0
174,20445,0,0,0
175,20455,0,0,0
176,20465,0,0,0
177,20475,0,0,0
178,20485,0,0,0
179,20495,0,0,0
180,20505,0,0,0
181,20515,0,0,0
182,20525,0,0,0
183,20535,0,0,0
184,20545,0,0,0
185,20555,0,0,0
186,20565,0,0,0
187,20575,0,0,0
188,20585,0,0,0
189,20595,0,0,0
190,20605,0,0,0
191,20615,0,0,0
192,20625,0,0,0
193,20635,0,0,0
194,20645,0,0,0
195,20655,0,0,0
196,20665,0,0,0
197,20675,0,0,0
198,20685,0,0,0
199,20695,0,0,0
200,20705,0,0,0
201,20715,0,0,0
202,20725,0,0,0
203,20735,0,0,0
204,20745,0,0,0
205,20755,0,0,0
206,20765,0,0,0
207,20775,0,0,0
208,20785,0,0,0
209,20795,0,0,0
210,20805,0,0,0
211,20815,0,0,0
212,20825,0,0,0
213,20835,0,0,0
214,20845,0,0,0
215,20855,0,0,0
216,20865,0,0,0
217,20875,0,0,0
218,20885,0,0,0
219,20895,0,0,0
220,20905,0,0,0
221,20915,0,0,0
222,20925,0,0,0
223,20935,0,0,0
224,20945,0,0,0
225,20955,0,0,0
226,20965,0,0,0
227,20975,0,0,0
228,20985,0,0,0
229,20995,0,0,0
230,21005,0,0,0
231,21015,0,0,0
232,21025,0,0,0
233,21035,0,0,0
234,21045,0,0,0
235,21055,0,0,0
236,21065,0,0,0
237,21075,0,0,0
238,21085,0,0,0
239,21095,0,0,0
240,21105,0,0,0
241,21115,0,0,0
242,21125,0,0,0
243,21135,0,0,0
244,21145,0,0,0
245,21155,0,0,0
246,21165,0,0,0
247,21175,0,0,0
248,21185,0,0,0
249,21195,0,0,0
250,21205,0,0,0
251,21215,0,0,0
252,21225,0,0,0
253,21235,0,0,0
254,21245,0,0,0
255,21255,0,0,0
256,21265,0,0,0
257,21275,0,0,0
258,21285,0,0,0
259,21295,0,0,0
260,21305,0,0,0
261,21315,0,0,0
262,21325,0,0,0
263,21335,0,0,0
264,21345,0,0,0
265,21355,0,0,0
266,21365,0,0,0
267,21375,0,0,0
268,21385,0,0,0
269,21395,0,0,0
270,21405,0,0,0
271,21415,0,0,0
272,21425,0,0,0
273,21435,0,0,0
274,21445,0,0,0
275,21455,0,0,0
276,21465,0,0,0
277,21475,0,0,0
278,21485,0,0,0
279,21495,0,0,0
280,21505,0,0,0
281,21515,0,0,0
282,21525,0,0,0
283,21535,0,0,0
284,21545,0,0,0
285,21555,0,0,0
286,21565,0,0,0
287,21575,0,0,0
288,21585,0,0,0
289,21595,0,0,0
290,21605,0,0,0
291,21615,0,0,0
292,21625,0,0,0
293,21635,0,0,0
294,21645,0,0,0
295,21655,0,0,0
296,21665,0,0,0
297,21675,0,0,0
298,21685,0,0,0
299,21695,0,0,0
300,21705,0,0,0
301,21715,0,0,0
302,21725,0,0,0
303,21735,0,0,0
304,21745,0,0,0
305,21755,0,0,0
306,21765,0,0,0
307,21775,0,0,0
308,21785,0,0,0
309,21795,0,0,0
310,21805,0,0,0
311,21815,0,0,0
312,21825,0,0,0
313,21835,0,0,0
314,21845,0,0,0
315,21855,0,0,0
316,21865,0,0,0
317,21875,0,0,0
318,21885,0,0,0
319,21895,0,0,0
320,21905,0,0,0
321,21915,0,0,0
322,21925,0,0,0
323,21935,0,0,0
324,21945,0,0,0
325,21955,0,0,0
326,21965,0,0,0
327,21975,0,0,0
328,21985,0,0,0
329,21995,0,0,0
330,22005,0,0,0
331,22015,0,0,0
332,22025,0,0,0
333,22035,0,0,0
334,22045,0,0,0
335,22055,0,0,0
336,22065,0,0,0
337,22075,0,0,0
338,22085,0,0,0
339,22095,0,0,0
340,22105,0,0,0
341,22115,0,0,0
342,22125,0,0,0
343,22135,0,0,0
344,22145,0,0,0
345,22155,0,0,0
346,22165,0,0,0
347,22175,0,0,0
348,22185,0,0,0
349,22195,0,0,0
350,22205,0,0,0
351,22215,0,0,0
352,22225,0,0,0
353,22235,0,0,0
354,22245,0,0,0
355,22255,0,0,0
356,22265,0,0,0
357,22275,0,0,0
358,22285,0,0,0
359,22295,0,0,0
360,22305,0,0,0
361,22315,0,0,0
362,22325,0,0,0
363,22335,0,0,0
364,22345,0,0,0
365,22355,0,0,0
366,22365,0,0,0
367,22375,0,0,0
368,22385,0,0,0
369,22395,0,0,0
370,22405,0,0,0
371,22415,0,0,0
372,22425,0,0,0
373,22435,0,0,0
374,22445,0,0,0
375,22455,0,0,0
376,22465,0,0,0
377,22475,0,0,0
378,22485,0,0,0
379,22495,0,0,0
380,22505,0,0,0
381,22515,0,0,0
382,22525,0,0,0
383,22535,0,0,0
384,22545,0,0,0
385,22555,0,0,0
386,22565,0,0,0
387,22575,0,0,0
388,22585,0,0,0
389,22595,0,0,0
390,22605,0,0,0
391,22615,0,0,0
392,22625,0,0,0
393,22635,0,0,0
394,22645,0,0,0
395,22655,0,0,0
396,22665,0,0,0
397,22675,0,0,0
398,22685,0,0,0
399,22695,0,0,0
400,22705,0,0,0
401,22715,0,0,0
402,22725,0,0,0
403,22735,0,0,0
404,22745,0,0,0
405,22755,0,0,0
406,22765,0,0,0
407,22775,0,0,0
408,22785,0,0,0
409,22795,0,0,0
410,22805,0,0,0
411,22815,0,0,0
412,22825,0,0,0
413,22835,0,0,0
414,22845,0,0,0
415,22855,0,0,0
416,22865,0,0,0
417,22875,0,0,0
418,22885,0,0,0
419,22895,0,0,0
420,22905,0,0,0
421,22915,0,0,0
422,22925,0,0,0
423,22935,0,0,0
424,22945,0,0,0
425,22955,0,0,0
426,22965,0,0,0
427,22975,0,0,0
428,22985,0,0,0
429,22995,0,0,0
430,23005,0,0,0
431,23015,0,0,0
432,23025,0,0,0
433,23035,0,0,0
434,23045,0,0,0
435,23055,0,0,0
436,23065,0,0,0
437,23075,0,0,0
438,23085,0,0,0
439,23095,0,0,0
440,23105,0,0,0
441,23115,0,0,0
442,23125,0,0,0
443,23135,0,0,0
444,23145,0,0,0
445,23155,0,0,0
446,23165,0,0,0
447,23175,0,0,0
448,23185,0,0,0
449,23195,0,0,0
450,23205,0,0,0
451,23215,0,0,0
452,23225,0,0,0
453,23235,0,0,0
454,23245,0,0,0
455,23255,0,0,0
456,23265,0,0,0
457,23275,0,0,0
458,23285,0,0,0
459,23295,0,0,0
460,23305,0,0,0
461,23315,0,0,0
462,23325,0,0,0
463,23335,0,0,0
464,23345,0,0,0
465,23355,0,0,0
466,23365,0,0,0
467,23375,0,0,0
468,23385,0,0,0
469,23395,0,0,0
470,23405,0,0,0
471,23415,0,0,0
472,23425,0,0,0
473,23435,0,0,0
474,23445,0,0,0
475,23455,0,0,0
476,23465,0,0,0
477,23475,0,0,0
478,23485,0,0,0
479,23495,0,0,0
480,23505,0,0,0
481,23515,0,0,0
482,23525,0,0,0
483,23535,0,0,0
484,23545,0,0,0
485,23555,0,0,0
486,23565,0,0,0
487,23575,0,0,0
488,23585,0,0,0
489,23595,0,0,0
490,23605,0,0,0
491,23615,0,0,0
492,23625,0,0,0
493,23635,0,0,0
494,23645,0,0,0
495,23655,0,0,0
496,23665,0,0,0
497,23675,0,0,0
498,23685,0,0,0
499,23695,0,0,0
500,23705,0,0,0
501,23715,0,0,0
502,23725,0,0,0
503,23735,0,0,0
504,23745,0,0,0
505,23755,0,0,0
506,23765,0,0,0
507,23775,0,0,0
508,23785,0,0,0
509,23795,0,0,0
510,23805,0,0,0
511,23815,0,0,0
512,23825,0,0,0
513,23835,0,0,0
514,23845,0,0,0
515,23855,0,0,0
516,23865,0,0,0
517,23875,0,0,0
518,23885,0,0,0
519,23895,0,0,0
520,23905,0,0,0
521,23915,0,0,0
522,23925,0,0,0
523,23935,0,0,0
524,23945,0,0,0
525,23955,0,0,0
526,23965,0,0,0
527,23975,0,0,0
528,23985,0,0,0
529,23995,0,0,0
530,24005,0,0,0
531,24015,0,0,0
532,24025,0,0,0
533,24035,0,0,0
534,24045,0,0,0
535,24055,0,0,0
536,24065,0,0,0
537,24075,0,0,0
538,24085,0,0,0
539,24095,0,0,0
540,24105,0,0,0
541,24115,0,0,0
542,24125,0,0,0
543,24135,0,0,0
544,24145,0,0,0
545,24155,0,0,0
546,24165,0,0,0
547,24175,0,0,0
548,24185,0,0,0
549,24195,0,0,0
550,24205,0,0,0
551,24215,0,0,0
552,24225,0,0,0
553,24235,0,0,0
554,24245,0,0,0
555,24255,0,0,0
556,24265,0,0,0
557,24275,0,0,0
558,24285,0,0,0
559,24295,0,0,0
560,24305,0,0,0
561,24315,0,0,0
562,24325,0,0,0
563,24335,0,0,0
564,24345,0,0,0
565,24355,0,0,0
566,24365,0,0,0
567,24375,0,0,0
568,24385,0,0,0
569,24395,0,0,0
570,24405,0,0,0
571,24415,0,0,0
572,24425,0,0,0
573,24435,0,0,0
574,24445,0,0,0
575,24455,0,0,0
576,24465,0,0,0
577,24475,0,0,0
578,24485,0,0,0
579,24495,0,0,0
580,24505,0,0,0
581,24515,0,0,0
582,24525,0,0,0
583,24535,0,0,0
584,24545,0,0,0
585,24555,0,0,0
586,24565,0,0,0
587,24575,0,0,0
588,24585,0,0,0
589,24595,0,0,0
590,24605,0,0,0
591,24615,0,0,0
592,24625,0,0,0
593,24635,0,0,0
594,24645,0,0,0
595,24655,0,0,0
596,24665,0,0,0
597,24675,0,0,0
598,24685,0,0,0
599,24695,0,0,0
600,24705,0,0,0
601,24715,0,0,0
602,24725,0,0,0
603,24735,0,0,0
604,24745,0,0,0
605,24755,0,0,0
606,24765,0,0,0
607,24775,0,0,0
608,24785,0,0,0
609,24795,0,0,0
610,24805,0,0,0
611,24815,0,0,0
612,24825,0,0,0
613,24835,0,0,0
614,24845,0,0,0
615,24855,0,0,0
616,24865,0,0,0
617,24875,0,0,0
618,24885,0,0,0
619,24895,0,0,0
620,24905,0,0,0
621,24915,0,0,0
622,24925,0,0,0
623,24935,0,0,0
624,24945,0,0,0
625,24955,0,0,0
626,24965,0,0,0
627,24975,0,0,0
628,24985,0,0,0
629,24995,0,0,0
630,25005,0,0,0
631,25015,0,0,0
632,25025,0,0,0
633,25035,0,0,0
634,25045,0,0,0
635,25055,0,0,0
636,25065,0,0,0
637,25075,0,0,0
638,25085,0,0,0
639,25095,0,0,0
640,25105,0,0,0
641,25115,0,0,0
642,25125,0,0,0
643,25135,0,0,0
644,25145,0,0,0
645,25155,0,0,0
646,25165,0,0,0
647,25175,0,0,0
648,25185,0,0,0
649,25195,0,0,0
650,25205,0,0,0
651,25215,0,0,0
652,25225,0,0,0
653,25235,0,0,0
654,25245,0,0,0
655,25255,0,0,0
656,25265,0,0,0
657,25275,0,0,0
658,25285,0,0,0
659,25295,0,0,0
660,25305,0,0,0
661,25315,0,0,0
662,25325,0,0,0
663,25335,0,0,0
664,25345,0,0,0
665,25355,0,0,0
666,25365,0,0,0
667,25375,0,0,0
668,25385,0,0,0
669,25395,0,0,0
670,25405,0,0,0
671,25415,0,0,0
672,25425,0,0,0
673,25435,0,0,0
674,25445,0,0,0
675,25455,0,0,0
676,25465,0,0,0
677,25475,0,0,0
678,25485,0,0,0
679,25495,0,0,0
680,25505,0,0,0
681,25515,0,0,0
682,25525,0,0,0
683,25535,0,0,0
684,25545,0,0,0
685,25555,0,0,0
686,25565,0,0,0
687,25575,0,0,0
688,25585,0,0,0
689,25595,0,0,0
690,25605,0,0,0
691,25615,0,0,0
692,25625,0,0,0
693,25635,0,0,0
694,25645,0,0,0
695,25655,0,0,0
696,25665,0,0,0
697,25675,0,0,0
698,25685,0,0,0
699,25695,0,0,0
700,25705,0,0,0
701,25715,0,0,0
702,25725,0,0,0
703,25735,0,0,0
704,25745,0,0,0
705,25755,0,0,0
706,25765,0,0,0
707,25775,0,0,0
708,25785,0,0,0
709,25795,0,0,0
710,25805,0,0,0
711,25815,0,0,0
712,25825,0,0,0
713,25835,0,0,0
714,25845,0,0,0
715,25855,0,0,0
716,25865,0,0,0
717,25875,0,0,0
718,25885,0,0,0
719,25895,0,0,0
720,25905,0,0,0
721,25915,0,0,0
722,25925,0,0,0
723,25935,0,0,0
724,25945,0,0,0
725,25955,0,0,0
726,25965,0,0,0
727,25975,0,0,0
728,25985,0,0,0
729,25995,0,0,0
730,26005,0,0,0
731,26015,0,0,0
732,26025,0,0,0
733,26035,0,0,0
734,26045,0,0,0
735,26055,0,0,0
736,26065,0,0,0
737,26075,0,0,0
738,26085,0,0,0
739,26095,0,0,0
740,26105,0,0,0
741,26115,0,0,0
742,26125,0,0,0
743,26135,0,0,0
744,26145,0,0,0
745,26155,0,0,0
746,26165,0,0,0
747,26175,0,0,0
748,26185,0,0,0
749,26195,0,0,0
750,26205,0,0,0
751,26215,0,0,0
752,26225,0,0,0
753,26235,0,0,0
754,26245,0,0,0
755,26255,0,0,0
756,26265,0,0,0
757,26275,0,0,0
758,26285,0,0,0
759,26295,0,0,0
760,26305,0,0,0
761,26315,0,0,0
762,26325,0,0,0
763,26335,0,0,0
764,26345,0,0,0
765,26355,0,0,0
766,26365,0,0,0
767,26375,0,0,0
768,26385,0,0,0
769,26395,0,0,0
770,26405,0,0,0
771,26415,0,0,0
772,26425,0,0,0
773,26435,0,0,0
774,26445,0,0,0
775,26455,0,0,0
776,26465,0,0,0
777,26475,0,0,0
778,26485,0,0,0
779,26495,0,0,0
780,26505,0,0,0
781,26515,0,0,0
782,26525,0,0,0
783,26535,0,0,0
784,26545,0,0,0
785,26555,0,0,0
786,26565,0,0,0
787,26575,0,0,0
788,26585,0,0,0
789,26595,0,0,0
790,26605,0,0,0
791,26615,0,0,0
792,26625,0,0,0
793,26635,0,0,0
794,26645,0,0,0
795,26655,0,0,0
796,26665,0,0,0
797,26675,0,0,0
798,26685,0,0,0
799,26695,0,0,0
800,26705,0,0,0
801,26715,0,0,0
802,26725,0,0,0
803,26735,0,0,0
804,26745,0,0,0
805,26755,0,0,0
806,26765,0,0,0
807,26775,0,0,0
808,26785,0,0,0
809,26795,0,0,0
810,26805,0,0,0
811,26815,0,0,0
812,26825,0,0,0
813,26835,0,0,0
814,26845,0,0,0
815,26855,0,0,0
816,26865,0,0,0
817,26875,0,0,0
818,26885,0,0,0
819,26895,0,0,0
820,26905,0,0,0
821,26915,0,0,0
822,26925,0,0,0
823,26935,0,0,0
824,26945,0,0,0
825,26955,0,0,0
826,26965,0,0,0
827,26975,0,0,0
828,26985,0,0,0
829,26995,0,0,0
830,27005,0,0,0
831,27015,0,0,0
832,27025,0,0,0
833,27035,0,0,0
834,27045,0,0,0
835,27055,0,0,0
836,27065,0,0,0
837,27075,0,0,0
838,27085,0,0,0
839,27095,0,0,0
840,27105,0,0,0
841,27115,0,0,0
842,27125,0,0,0
843,27135,0,0,0
844,27145,0,0,0
845,27155,0,0,0
846,27165,0,0,0
847,27175,0,0,0
848,27185,0,0,0
849,27195,0,0,0
850,27205,0,0,0
851,27215,0,0,0
852,27225,0,0,0
853,27235,0,0,0
854,27245,0,0,0
855,27255,0,0,0
856,27265,0,0,0
857,27275,0,0,0
858,27285,0,0,0
859,27295,0,0,0
860,27305,0,0,0
861,27315,0,0,0
862,27325,0,0,0
863,27335,0,0,0
864,27345,0,0,0
865,27355,0,0,0
866,27365,0,0,0
867,27375,0,0,0
868,27385,0,0,0
869,27395,0,0,0
870,27405,0,0,0
871,27415,0,0,0
872,27425,0,0,0
873,27435,0,0,0
874,27445,0,0,0
875,27455,0,0,0
876,27465,0,0,0
877,27475,0,0,0
878,27485,0,0,0
879,27495,0,0,0
880,27505,0,0,0
881,27515,0,0,0
882,27525,0,0,0
883,27535,0,0,0
884,27545,0,0,0
885,27555,0,0,0
886,27565,0,0,0
887,27575,0,0,0
888,27585,0,0,0
889,27595,0,0,0
890,27605,0,0,0
891,27615,0,0,0
892,27625,0,0,0
893,27635,0,0,0
894,27645,0,0,0
895,27655,0,0,0
896,27665,0,0,0
897,27675,0,0,0
898,27685,0,0,0
899,27695,0,0,0
900,27705,0,0,0
901,27715,0,0,0
902,27725,0,0,0
903,27735,0,0,0
904,27745,0,0,0
905,27755,0,0,0
906,27765,0,0,0
907,27775,0,0,0
908,27785,0,0,0
909,27795,0,0,0
910,27805,0,0,0
911,27815,0,0,0
912,27825,0,0,0
913,27835,0,0,0
914,27845,0,0,0
915,27855,0,0,0
916,27865,0,0,0
917,27875,0,0,0
918,27885,0,0,0
919,27895,0,0,0
920,27905,0,0,0
921,27915,0,0,0
922,27925,0,0,0
923,27935,0,0,0
924,27945,0,0,0
925,27955,0,0,0
926,27965,0,0,0
927,27975,0,0,0
928,27985,0,0,0
929,27995,0,0,0
930,28005,0,0,0
931,28015,0,0,0
932,28025,0,0,0
933,28035,0,0,0
934,28045,0,0,0
935,28055,0,0,0
936,28065,0,0,0
937,28075,0,0,0
938,28085,0,0,0
939,28095,0,0,0
940,28105,0,0,0
941,28115,0,0,0
942,28125,0,0,0
943,28135,0,0,0
944,28145,0,0,0
945,28155,0,0,0
946,28165,0,0,0
947,28175,0,0,0
948,28185,0,0,0
949,28195,0,0,0
950,28205,0,0,0
951,28215,0,0,0
952,28225,0,0,0
953,28235,0,0,0
954,28245,0,0,0
955,28255,0,0,0
956,28265,0,0,0
957,28275,0,0,0
958,28285,0,0,0
959,28295,0,0,0
960,28305,0,0,0
961,28315,0,0,0
962,28325,0,0,0
963,28335,0,0,0
964,28345,0,0,0
965,28355,0,0,0
966,28365,0,0,0
967,28375,0,0,0
968,28385,0,0,0
969,28395,0,0,0
970,28405,0,0,0
971,28415,0,0,0
972,28425,0,0,0
973,28435,0,0,0
974,28445,0,0,0
975,28455,0,0,0
976,28465,0,0,0
977,28475,0,0,0
978,28485,0,0,0
979,28495,0,0,0
980,28505,0,0,0
981,28515,0,0,0
982,28525,0,0,0
983,28535,0,0,0
984,28545,0,0,0
985,28555,0,0,0
986,28565,0,0,0
987,28575,0,0,0
988,28585,0,0,0
989,28595,0,0,0
990,28605,0,0,0
991,28615,0,0,0
992,28625,0,0,0
993,28635,0,0,0
994,28645,0,0,0
995,28655,0,0,0
996,28665,0,0,0
997,28675,0,0,0
998,28685,0,0,0
999,28695,0,0,0
1000,28705,0,0,0
1001,28715,0,0,0
1002,28725,0,0,0
1003,28735,0,0,0
1004,28745,0,0,0
1005,28755,0,0,0
1006,28765,0,0,0
1007,28775,0,0,0
1008,28785,0,0,0
1009,28795,0,0,0
1010,28805,0,0,0
1011,28815,0,0,0
1012,28825,0,0,0
1013,28835,0,0,0
1014,28845,0,0,0
1015,28855,0,0,0
1016,28865,0,0,0
1017,28875,0,0,0
1018,28885,0,0,0
1019,28895,0,0,0
1020,28905,0,0,0
1021,28915,0,0,0
1022,28925,0,0,0
1023,28935,0,0,0
1024,28945,0,0,0
1025,28955,0,0,0
1026,28965,0,0,0
1027,28975,0,0,0
1028,28985,0,0,0
1029,28995,0,0,0
1030,29005,0,0,0
1031,29015,0,0,0
1032,29025,0,0,0
1033,29035,0,0,0
1034,29045,0,0,0
1035,29055,0,0,0
1036,29065,0,0,0
1037,29075,0,0,0
1038,29085,0,0,0
1039,29095,0,0,0
1040,29105,0,0,0
1041,29115,0,0,0
1042,29125,0,0,0
1043,29135,0,0,0
1044,29145,0,0,0
1045,29155,0,0,0
1046,29165,0,0,0
1047,29175,0,0,0
1048,29185,0,0,0
1049,29195,0,0,0
1050,29205,0,0,0
1051,29215,0,0,0
1052,29225,0,0,0
1053,29235,0,0,0
1054,29245,0,0,0
1055,29255,0,0,0
1056,29265,0,0,0
1057,29275,0,0,0
1058,29285,0,0,0
1059,29295,0,0,0
1060,29305,0,0,0
1061,29315,0,0,0
1062,29325,0,0,0
1063,29335,0,0,0
1064,29345,0,0,0
1065,29355,0,0,0
1066,29365,0,0,0
1067,29375,0,0,0
1068,29385,0,0,0
1069,29395,0,0,0
1070,29405,0,0,0
1071,29415,0,0,0
1072,29425,0,0,0
1073,29435,0,0,0
1074,29445,0,0,0
1075,29455,0,0,0
1076,29465,0,0,0
1077,29475,0,0,0
1078,29485,0,0,0
1079,29495,0,0,0
1080,29505,0,0,0
1081,29515,0,0,0
1082,29525,0,0,0
1083,29535,0,0,0
1084,29545,0,0,0
1085,29555,0,0,0
1086,29565,0,0,0
1087,29575,0,0,0
1088,29585,0,0,0
1089,29595,0,0,0
1090,29605,0,0,0
1091,29615,0,0,0
1092,29625,0,0,0
1093,29635,0,0,0
1094,29645,0,0,0
1095,29655,0,0,0
1096,29665,0,0,0
1097,29675,0,0,0
1098,29685,0,0,0
1099,29695,0,0,0
1100,29705,0,0,0
1101,29715,0,0,0
1102,29725,0,0,0
1103,29735,0,0,0
1104,29745,0,0,0
1105,29755,0,0,0
1106,29765,0,0,0
1107,29775,0,0,0
1108,29785,0,0,0
1109,29795,0,0,0
1110,29805,0,0,0
1111,29815,0,0,0
1112,29825,0,0,0
1113,29835,0,0,0
1114,29845,0,0,0
1115,29855,0,0,0
1116,29865,0,0,0
1117,29875,0,0,0
1118,29885,0,0,0
1119,29895,0,0,0
1120,29905,0,0,0
1121,29915,0,0,0
1122,29925,0,0,0
1123,29935,0,0,0
1124,29945,0,0,0
1125,29955,0,0,0
1126,29965,0,0,0
1127,29975,0,0,0
1128,29985,0,0,0
1129,29995,0,0,0
1130,30005,0,0,0
1131,30015,0,0,0
1132,30025,0,0,0
1133,30035,0,0,0
1134,30045,0,0,0
1135,30055,0,0,0
1136,30065,0,0,0
1137,30075,0,0,0
1138,30085,0,0,0
1139,30095,0,0,0
1140,30105,0,0,0
1141,30115,0,0,0
1142,30125,0,0,0
1143,30135,0,0,0
1144,30145,0,0,0
1145,30155,0,0,0
1146,30165,0,0,0
1147,30175,0,0,0
1148,30185,0,0,0
1149,30195,0,0,0
1150,30205,0,0,0
1151,30215,0,0,0
1152,30225,0,0,0
1153,30235,0,0,0
1154,30245,0,0,0
1155,30255,0,0,0
1156,30265,0,0,0
1157,30275,0,0,0
1158,30285,0,0,0
1159,30295,0,0,0
1160,30305,0,0,0
1161,30315,0,0,0
1162,30325,0,0,0
1163,30335,0,0,0
1164,30345,0,0,0
1165,30355,0,0,0
1166,30365,0,0,0
1167,30375,0,0,0
1168,30385,0,0,0
1169,30395,0,0,0
1170,30405,0,0,0
1171,30415,0,0,0
1172,30425,0,0,0
1173,30435,0,0,0
1174,30445,0,0,0
1175,30455,0,0,0
1176,30465,0,0,0
1177,30475,0,0,0
1178,30485,0,0,0
1179,30495,0,0,0
1180,30505,0,0,0
1181,30515,0,0,0
1182,30525,0,0,0
1183,30535,0,0,0
1184,30545,0,0,0
1185,30555,0,0,0
1186,30565,0,0,0
1187,30575,0,0,0
1188,30585,0,0,0
1189,30595,0,0,0
1190,30605,0,0,0
1191,30615,0,0,0
1192,30625,0,0,0
1193,30635,0,0,0
1194,30645,0,0,0
1195,30655,0,0,0
1196,30665,0,0,0
1197,30675,0,0,0
1198,30685,0,0,0
1199,30695,0,0,0
1200,30705,0,0,0
1201,30715,0,0,0
1202,30725,0,0,0
1203,30735,0,0,0
1204,30745,0,0,0
1205,30755,0,0,0
1206,30765,0,0,0
1207,30775,0,0,0
1208,30785,0,0,0
1209,30795,0,0,0
1210,30805,0,0,0
1211,30815,0,0,0
1212,30825,0,0,0
1213,30835,0,0,0
1214,30845,0,0,0
1215,30855,0,0,0
1216,30865,0,0,0
1217,30875,0,0,0
1218,30885,0,0,0
1219,30895,0,0,0
1220,30905,0,0,0
1221,30915,0,0,0
1222,30925,0,0,0
1223,30935,0,0,0
1224,30945,0,0,0
1225,30955,0,0,0
1226,30965,0,0,0
1227,30975,0,0,0
1228,30985,0,0,0
1229,30995,0,0,0
1230,31005,0,0,0
1231,31015,0,0,0
1232,31025,0,0,0
1233,31035,0,0,0
1234,31045,0,0,0
1235,31055,0,0,0
1236,31065,0,0,0
1237,31075,0,0,0
1238,31085,0,0,0
1239,31095,0,0,0
1240,31105,0,0,0
1241,31115,0,0,0
1242,31125,0,0,0
1243,31135,0,0,0
1244,31145,0,0,0
1245,31155,0,0,0
1246,31165,0,0,0
1247,31175,0,0,0
1248,31185,0,0,0
1249,31195,0,0,0
1250,31205,0,0,0
1251,31215,0,0,0
1252,31225,0,0,0
1253,31235,0,0,0
1254,31245,0,0,0
1255,31255,0,0,0
1256,31265,0,0,0
1257,31275,0,0,0
1258,31285,0,0,0
1259,31295,0,0,0
1260,31305,0,0,0
1261,31315,0,0,0
1262,31325,0,0,0
1263,31335,0,0,0
1264,31345,0,0,0
1265,31355,0,0,0
1266,31365,0,0,0
1267,31375,0,0,0
1268,31385,0,0,0
1269,31395,0,0,0
1270,31405,0,0,0
1271,31415,0,0,0
1272,31425,0,0,0
1273,31435,0,0,0
1274,31445,0,0,0
1275,31455,0,0,0
1276,31465,0,0,0
1277,31475,0,0,0
1278,31485,0,0,0
1279,31495,0,0,0
1280,31505,0,0,0
1281,31515,0,0,0
1282,31525,0,0,0
1283,31535,0,0,0
1284,31545,0,0,0
1285,31555,0,0,0
1286,31565,0,0,0
1287,31575,0,0,0
1288,31585,0,0,0
1289,31595,0,0,0
1290,31605,0,0,0
1291,31615,0,0,0
1292,31625,0,0,0
1293,31635,0,0,0
1294,31645,0,0,0
1295,31655,0,0,0
1296,31665,0,0,0
1297,31675,0,0,0
1298,31685,0,0,0
1299,31695,0,0,0
1300,31705,0,0,0
1301,31715,0,0,0
1302,31725,0,0,0
1303,31735,0,0,0
1304,31745,0,0,0
1305,31755,0,0,0
1306,31765,0,0,0
1307,31775,0,0,0
1308,31785,0,0,0
1309,31795,0,0,0
1310,31805,0,0,0
1311,31815,0,0,0
1312,31825,0,0,0
1313,31835,0,0,0
1314,31845,0,0,0
1315,31855,0,0,0
1316,31865,0,0,0
1317,31875,0,0,0
1318,31885,0,0,0
1319,31895,0,0,0
1320,31905,0,0,0
1321,31915,0,0,0
1322,31925,0,0,0
1323,31935,0,0,0
1324,31945,0,0,0
1325,31955,0,0,0
1326,31965,0,0,0
1327,31975,0,0,0
1328,31985,0,0,0
1329,31995,0,0,0
1330,32005,0,0,0
1331,32015,0,0,0
1332,32025,0,0,0
1333,32035,0,0,0
1334,32045,0,0,0
1335,32055,0,0,0
1336,32065,0,0,0
1337,32075,0,0,0
1338,32085,0,0,0
1339,32095,0,0,0
1340,32105,0,0,0
1341,32115,0,0,0
1342,32125,0,0,0
1343,32135,0,0,0
1344,32145,0,0,0
1345,32155,0,0,0
1346,32165,0,0,0
1347,32175,0,0,0
1348,32185,0,0,0
1349,32195,0,0,0
1350,32205,0,0,0
1351,32215,0,0,0
1352,32225,0,0,0
1353,32235,0,0,0
1354,32245,0,0,0
1355,32255,0,0,0
1356,32265,0,0,0
1357,32275,0,0,0
1358,32285,0,0,0
1359,32295,0,0,0
1360,32305,0,0,0
1361,32315,0,0,0
1362,32325,0,0,0
1363,32335,0,0,0
1364,32345,0,0,0
1365,32355,0,0,0
1366,32365,0,0,0
1367,32375,0,0,0
1368,32385,0,0,0
1369,32395,0,0,0
1370,32405,0,0,0
1371,32415,0,0,0
1372,32425,0,0,0
1373,32435,0,0,0
1374,32445,0,0,0
1375,32455,0,0,0
1376,32465,0,0,0
1377,32475,0,0,0
1378,32485,0,0,0
1379,32495,0,0,0
1380,32505,0,0,0
1381,32515,0,0,0
1382,32525,0,0,0
1383,32535,0,0,0
1384,32545,0,0,0
1385,32555,0,0,0
1386,32565,0,0,0
1387,32575,0,0,0
1388,32585,0,0,0
1389,32595,0,0,0
1390,32605,0,0,0
1391,32615,0,0,0
1392,32625,0,0,0
1393,32635,0,0,0
1394,32645,0,0,0
1395,32655,0,0,0
1396,32665,0,0,0
1397,32675,0,0,0
1398,32685,0,0,0
1399,32695,0,0,0
1400,32705,0,0,0
1401,32715,0,0,0
1402,32725,0,0,0
1403,32735,0,0,0
1404,32745,0,0,0
1405,32755,0,0,0
1406,32765,0,0,0
1407,32775,0,0,0
1408,32785,0,0,0
1409,32795,0,0,0
1410,32805,0,0,0
1411,32815,0,0,0
1412,32825,0,0,0
1413,32835,0,0,0
1414,32845,0,0,0
1415,32855,0,0,0
1416,32865,0,0,0
1417,32875,0,0,0
1418,32885,0,0,0
1419,32895,0,0,0
1420,32905,0,0,0
1421,32915,0,0,0
1422,32925,0,0,0
1423,32935,0,0,0
1424,32945,0,0,0
1425,32955,0,0,0
1426,32965,0,0,0
1427,32975,0,0,0
1428,32985,0,0,0
1429,32995,0,0,0
1430,33005,0,0,0
1431,33015,0,0,0
1432,33025,0,0,0
1433,33035,0,0,0
1434,33045,0,0,0
1435,33055,0,0,0
1436,33065,0,0,0
1437,33075,0,0,0
1438,33085,0,0,0
1439,33095,0,0,0
1440,33105,0,0,0
1441,33115,0,0,0
1442,33125,0,0,0
1443,33135,0,0,0
1444,33145,0,0,0
1445,33155,0,0,0
1446,33165,0,0,0
1447,33175,0,0,0
1448,33185,0,0,0
1449,33195,0,0,0
1450,33205,0,0,0
1451,33215,0,0,0
1452,33225,0,0,0
1453,33235,0,0,0
1454,33245,0,0,0
1455,33255,0,0,0
1456,33265,0,0,0
1457,33275,0,0,0
1458,33285,0,0,0
1459,33295,0,0,0
1460,33305,0,0,0
1461,33315,0,0,0
1462,33325,0,0,0
1463,33335,0,0,0
1464,33345,0,0,0
1465,33355,0,0,0
1466,33365,0,0,0
1467,33375,0,0,0
1468,33385,0,0,0
1469,33395,0,0,0
1470,33405,0,0,0
1471,33415,0,0,0
1472,33425,0,0,0
1473,33435,0,0,0
1474,33445,0,0,0
1475,33455,0,0,0
1476,33465,0,0,0
1477,33475,0,0,0
1478,33485,0,0,0
1479,33495,0,0,0
1480,33505,0,0,0
1481,33515,0,0,0
1482,33525,0,0,0
1483,33535,0,0,0
1484,33545,0,0,0
1485,33555,0,0,0
1486,33565,0,0,0
1487,33575,0,0,0
1488,33585,0,0,0
1489,33595,0,0,0
1490,33605,0,0,0
1491,33615,0,0,0
1492,33625,0,0,0
1493,33635,0,0,0
1494,33645,0,0,0
1495,33655,0,0,0
1496,33665,0,0,0
1497,33675,0,0,0
1498,33685,0,0,0
1499,33695,0,0,0
1500,33705,0,0,0
1501,33715,0,0,0
1502,33725,0,0,0
1503,33735,0,0,0
1504,33745,0,0,0
1505,33755,0,0,0
1506,33765,0,0,0
1507,33775,0,0,0
1508,33785,0,0,0
1509,33795,0,0,0
1510,33805,0,0,0
1511,33815,0,0,0
1512,33825,0,0,0
1513,33835,0,0,0
1514,33845,0,0,0
1515,33855,0,0,0
1516,33865,0,0,0
1517,33875,0,0,0
1518,33885,0,0,0
1519,33895,0,0,0
1520,33905,0,0,0
1521,33915,0,0,0
1522,33925,0,0,0
1523,33935,0,0,0
1524,33945,0,0,0
1525,33955,0,0,0
1526,33965,0,0,0
1527,33975,0,0,0
1528,33985,0,0,0
1529,33995,0,0,0
1530,34005,0,0,0
1531,34015,0,0,0
1532,34025,0,0,0
1533,34035,0,0,0
1534,34045,0,0,0
1535,34055,0,0,0
1536,34065,0,0,0
1537,34075,0,0,0
1538,34085,0,0,0
1539,34095,0,0,0
1540,34105,0,0,0
1541,34115,0,0,0
1542,34125,0,0,0
1543,34135,0,0,0
1544,34145,0,0,0
1545,34155,0,0,0
1546,34165,0,0,0
1547,34175,0,0,0
1548,34185,0,0,0
1549,34195,0,0,0
1550,34205,0,0,0
1551,34215,0,0,0
1552,34225,0,0,0
1553,34235,0,0,0
1554,34245,0,0,0
1555,34255,0,0,0
1556,34265,0,0,0
1557,34275,0,0,0
1558,34285,0,0,0
1559,34295,0,0,0
1560,34305,0,0,0
1561,34315,0,0,0
1562,34325,0,0,0
1563,34335,0,0,0
1564,34345,0,0,0
1565,34355,0,0,0
1566,34365,0,0,0
1567,34375,0,0,0
1568,34385,0,0,0
1569,34395,0,0,0
1570,34405,0,0,0
1571,34415,0,0,0
1572,34425,0,0,0
1573,34435,0,0,0
1574,34445,0,0,0
1575,34455,0,0,0
1576,34465,0,0,0
1577,34475,0,0,0
1578,34485,0,0,0
1579,34495,0,0,0
1580,34505,0,0,0
1581,34515,0,0,0
1582,34525,0,0,0
1583,34535,0,0,0
1584,34545,0,0,0
1585,34555,0,0,0
1586,34565,0,0,0
1587,34575,0,0,0
1588,34585,0,0,0
1589,34595,0,0,0
1590,34605,0,0,0
1591,34615,0,0,0
1592,34625,0,0,0
1593,34635,0,0,0
1594,34645,0,0,0
1595,34655,0,0,0
1596,34665,0,0,0
1597,34675,0,0,0
1598,34685,0,0,0
1599,34695,0,0,0
1600,34705,0,0,0
1601,34715,0,0,0
1602,34725,0,0,0
1603,34735,0,0,0
1604,34745,0,0,0
1605,34755,0,0,0
1606,34765,0,0,0
1607,34775,0,0,0
1608,34785,0,0,0
1609,34795,0,0,0
1610,34805,0,0,0
1611,34815,0,0,0
1612,34825,0,0,0
1613,34835,0,0,0
1614,34845,0,0,0
1615,34855,0,0,0
1616,34865,0,0,0
1617,34875,0,0,0
1618,34885,0,0,0
1619,34895,0,0,0
1620,34905,0,0,0
1621,34915,0,0,0
1622,34925,0,0,0
1623,34935,0,0,0
1624,34945,0,0,0
1625,34955,0,0,0
1626,34965,0,0,0
1627,34975,0,0,0
1628,34985,0,0,0
1629,34995,0,0,0
1630,35005,0,0,0
1631,35015,0,0,0
1632,35025,0,0,0
1633,35035,0,0,0
1634,35045,0,0,0
1635,35055,0,0,0
1636,35065,0,0,0
1637,35075,0,0,0
1638,35085,0,0,0
1639,35095,0,0,0
1640,35105,0,0,0
1641,35115,0,0,0
1642,35125,0,0,0
1643,35135,0,0,0
1644,35145,0,0,0
1645,35155,0,0,0
1646,35165,0,0,0
1647,35175,0,0,0
1648,35185,0,0,0
1649,35195,0,0,0
1650,35205,0,0,0
1651,35215,0,0,0
1652,35225,0,0,0
1653,35235,0,0,0
1654,35245,0,0,0
1655,35255,0,0,0
1656,35265,0,0,0
1657,35275,0,0,0
1658,35285,0,0,0
1659,35295,0,0,0
1660,35305,0,0,0
1661,35315,0,0,0
1662,35325,0,0,0
1663,35335,0,0,0
1664,35345,0,0,0
1665,35355,0,0,0
1666,35365,0,0,0
1667,35375,0,0,0
1668,35385,0,0,0
1669,35395,0,0,0
1670,35405,0,0,0
1671,35415,0,0,0
1672,35425,0,0,0
1673,35435,0,0,0
1674,35445,0,0,0
1675,35455,0,0,0
1676,35465,0,0,0
1677,35475,0,0,0
1678,35485,0,0,0
1679,35495,0,0,0
1680,35505,0,0,0
1681,35515,0,0,0
1682,35525,0,0,0
1683,35535,0,0,0
1684,35545,0,0,0
1685,35555,0,0,0
1686,35565,0,0,0
1687,35575,0,0,0
1688,35585,0,0,0
1689,35595,0,0,0
1690,35605,0,0,0
1691,35615,0,0,0
1692,35625,0,0,0
1693,35635,0,0,0
1694,35645,0,0,0
1695,35655,0,0,0
1696,35665,0,0,0
1697,35675,0,0,0
1698,35685,0,0,0
1699,35695,0,0,0
1700,35705,0,0,0
1701,35715,0,0,0
1702,35725,0,0,0
1703,35735,0,0,0
1704,35745,0,0,0
1705,35755,0,0,0
1706,35765,0,0,0
1707,35775,0,0,0
1708,35785,0,0,0
1709,35795,0,0,0
1710,35805,0,0,0
1711,35815,0,0,0
1712,35825,0,0,0
1713,35835,0,0,0
1714,35845,0,0,0
1715,35855,0,0,0
1716,35865,0,0,0
1717,35875,0,0,0
1718,35885,0,0,0
1719,35895,0,0,0
1720,35905,0,0,0
1721,35915,0,0,0
1722,35925,0,0,0
1723,35935,0,0,0
1724,35945,0,0,0
1725,35955,0,0,0
1726,35965,0,0,0
1727,35975,0,0,0
1728,35985,0,0,0
1729,35995,0,0,0
1730,36005,0,0,0
1731,36015,0,0,0
1732,36025,0,0,0
1733,36035,0,0,0
1734,36045,0,0,0
1735,36055,0,0,0
1736,36065,0,0,0
1737,36075,0,0,0
1738,36085,0,0,0
1739,36095,0,0,0
1740,36105,0,0,0
1741,36115,0,0,0
1742,36125,0,0,0
1743,36135,0,0,0
1744,36145,0,0,0
1745,36155,0,0,0
1746,36165,0,0,0
1747,36175,0,0,0
1748,36185,0,0,0
1749,36195,0,0,0
1750,36205,0,0,0
1751,36215,0,0,0
1752,36225,0,0,0
1753,36235,0,0,0
1754,36245,0,0,0
1755,36255,0,0,0
1756,36265,0,0,0
1757,36275,0,0,0
1758,36285,0,0,0
1759,36295,0,0,0
1760,36305,0,0,0
1761,36315,0,0,0
1762,36325,0,0,0
1763,36335,0,0,0
1764,36345,0,0,0
1765,36355,0,0,0
1766,36365,0,0,0
1767,36375,0,0,0
1768,36385,0,0,0
1769,36395,0,0,0
1770,36405,0,0,0
1771,36415,0,0,0
1772,36425,0,0,0
1773,36435,0,0,0
1774,36445,0,0,0
1775,36455,0,0,0
1776,36465,0,0,0
1777,36475,0,0,0
1778,36485,0,0,0
1779,36495,0,0,0
1780,36505,0,0,0
1781,36515,0,0,0
1782,36525,0,0,0
1783,36535,0,0,0
1784,36545,0,0,0
1785,36555,0,0,0
1786,36565,0,0,0
1787,36575,0,0,0
1788,36585,0,0,0
1789,36595,0,0,0
1790,36605,0,0,0
1791,36615,0,0,0
1792,36625,0,0,0
1793,36635,0,0,0
1794,36645,0,0,0
1795,36655,0,0,0
1796,36665,0,0,0
1797,36675,0,0,0
1798,36685,0,0,0
1799,36695,0,0,0
1800,36705,0,0,0
1801,36715,0,0,0
1802,36725,0,0,0
1803,36735,0,0,0
1804,36745,0,0,0
1805,36755,0,0,0
1806,36765,0,0,0
1807,36775,0,0,0
1808,36785,0,0,0
1809,36795,0,0,0
1810,36805,0,0,0
1811,36815,0,0,0
1812,36825,0,0,0
1813,36835,0,0,0
1814,36845,0,0,0
1815,36855,0,0,0
1816,36865,0,0,0
1817,36875,0,0,0
1818,36885,0,0,0
1819,36895,0,0,0
1820,36905,0,0,0
1821,36915,0,0,0
1822,36925,0,0,0
1823,36935,0,0,0
1824,36945,0,0,0
1825,36955,0,0,0
1826,36965,0,0,0
1827,36975,0,0,0
1828,36985,0,0,0
1829,36995,0,0,0
1830,37005,0,0,0
1831,37015,0,0,0
1832,37025,0,0,0
1833,37035,0,0,0
1834,37045,0,0,0
1835,37055,0,0,0
1836,37065,0,0,0
1837,37075,0,0,0
1838,37085,0,0,0
1839,37095,0,0,0
1840,37105,0,0,0
1841,37115,0,0,0
1842,37125,0,0,0
1843,37135,0,0,0
1844,37145,0,0,0
1845,37155,0,0,0
1846,37165,0,0,0
1847,37175,0,0,0
1848,37185,0,0,0
1849,37195,0,0,0
1850,37205,0,0,0
1851,37215,0,0,0
1852,37225,0,0,0
1853,37235,0,0,0
1854,37245,0,0,0
1855,37255,0,0,0
1856,37265,0,0,0
1857,37275,0,0,0
1858,37285,0,0,0
1859,37295,0,0,0
1860,37305,0,0,0
1861,37315,0,0,0
1862,37325,0,0,0
1863,37335,0,0,0
1864,37345,0,0,0
1865,37355,0,0,0
1866,37365,0,0,0
1867,37375,0,0,0
1868,37385,0,0,0
1869,37395,0,0,0
1870,37405,0,0,0
1871,37415,0,0,0
1872,37425,0,0,0
1873,37435,0,0,0
1874,37445,0,0,0
1875,37455,0,0,0
1876,37465,0,0,0
1877,37475,0,0,0
1878,37485,0,0,0
1879,37495,0,0,0
1880,37505,0,0,0
1881,37515,0,0,0
1882,37525,0,0,0
1883,37535,0,0,0
1884,37545,0,0,0
1885,37555,0,0,0
1886,37565,0,0,0
1887,37575,0,0,0
1888,37585,0,0,0
1889,37595,0,0,0
1890,37605,0,0,0
1891,37615,0,0,0
1892,37625,0,0,0
1893,37635,0,0,0
1894,37645,0,0,0
1895,37655,0,0,0
1896,37665,0,0,0
1897,37675,0,0,0
1898,37685,0,0,0
1899,37695,0,0,0
1900,37705,0,0,0
1901,37715,0,0,0
1902,37725,0,0,0
1903,37735,0,0,0
1904,37745,0,0,0
1905,37755,0,0,0
1906,37765,0,0,0
1907,37775,0,0,0
1908,37785,0,0,0
1909,37795,0,0,0
1910,37805,0,0,0
1911,37815,0,0,0
1912,37825,0,0,0
1913,37835,0,0,0
1914,37845,0,0,0
1915,37855,0,0,0
1916,37865,0,0,0
1917,37875,0,0,0
1918,37885,0,0,0
1919,37895,0,0,0
1920,37905,0,0,0
1921,37915,0,0,0
1922,37925,0,0,0
1923,37935,0,0,0
1924,37945,0,0,0
1925,37955,0,0,0
1926,37965,0,0,0
1927,37975,0,0,0
1928,37985,0,0,0
1929,37995,0,0,0
1930,38005,0,0,0
1931,38015,0,0,0
1932,38025,0,0,0
1933,38035,0,0,0
1934,38045,0,0,0
1935,38055,0,0,0
1936,38065,0,0,0
1937,38075,0,0,0
1938,38085,0,0,0
1939,38095,0,0,0
1940,38105,0,0,0
1941,38115,0,0,0
1942,38125,0,0,0
1943,38135,0,0,0
1944,38145,0,0,0
1945,38155,0,0,0
1946,38165,0,0,0
1947,38175,0,0,0
1948,38185,0,0,0
1949,38195,0,0,0
1950,38205,0,0,0
1951,38215,0,0,0
1952,38225,0,0,0
1953,38235,0,0,0
1954,38245,0,0,0
1955,38255,0,0,0
1956,38265,0,0,0
1957,38275,0,0,0
1958,38285,0,0,0
1959,38295,0,0,0
1960,38305,0,0,0
1961,38315,0,0,0
1962,38325,0,0,0
1963,38335,0,0,0
1964,38345,0,0,0
1965,38355,0,0,0
1966,38365,0,0,0
1967,38375,0,0,0
1968,38385,0,0,0
1969,38395,0,0,0
1970,38405,0,0,0
1971,38415,0,0,0
1972,38425,0,0,0
1973,38435,0,0,0
1974,38445,0,0,0
1975,38455,0,0,0
1976,38465,0,0,0
1977,38475,0,0,0
1978,38485,0,0,0
1979,38495,0,0,0
1980,38505,0,0,0
1981,38515,0,0,0
1982,38525,0,0,0
1983,38535,0,0,0
1984,38545,0,0,0
1985,38555,0,0,0
1986,38565,0,0,0
1987,38575,0,0,0
1988,38585,0,0,0
1989,38595,0,0,0
1990,38605,0,0,0
1991,38615,0,0,0
1992,38625,0,0,0
1993,38635,0,0,0
1994,38645,0,0,0
1995,38655,0,0,0
1996,38665,0,0,0
1997,38675,0,0,0
1998,38685,0,0,0
1999,38695,0,0,0
2000,38705,0,0,0
2001,38715,0,0,0
2002,38725,0,0,0
2003,38735,0,0,0
2004,38745,0,0,0
2005,38755,0,0,0
2006,38765,0,0,0
2007,38775,0,0,0
2008,38785,0,0,0
2009,38795,0,0,0
2010,38805,0,0,0
2011,38815,0,0,0
2012,38825,0,0,0
2013,38835,0,0,0
2014,38845,0,0,0
2015,38855,0,0,0
2016,38865,0,0,0
2017,38875,0,0,0
2018,38885,0,0,0
2019,38895,0,0,0
2020,38905,0,0,0
2021,38915,0,0,0
2022,38925,0,0,0
2023,38935,0,0,0
2024,38945,0,0,0
2025,38955,0,0,0
2026,38965,0,0,0
2027,38975,0,0,0
2028,38985,0,0,0
2029,38995,0,0,0
2030,39005,0,0,0
2031,39015,0,0,0
2032,39025,0,0,0
2033,39035,0,0,0
2034,39045,0,0,0
2035,39055,0,0,0
2036,39065,0,0,0
2037,39075,0,0,0
2038,39085,0,0,0
2039,39095,0,0,0
2040,39105,0,0,0
2041,39115,0,0,0
2042,39125,0,0,0
2043,39135,0,0,0
2044,39145,0,0,0
2045,39155,0,0,0
2046,39165,0,0,0
2047,39175,0,0,0
2048,39185,0,0,0
2049,39195,0,0,0
2050,39205,0,0,0
2051,39215,0,0,0
2052,39225,0,0,0
2053,39235,0,0,0
2054,39245,0,0,0
2055,39255,0,0,0
2056,39265,0,0,0
2057,39275,0,0,0
2058,39285,0,0,0
2059,39295,0,0,0
2060,39305,0,0,0
2061,39315,0,0,0
2062,39325,0,0,0
2063,39335,0,0,0
2064,39345,0,0,0
2065,39355,0,0,0
2066,39365,0,0,0
2067,39375,0,0,0
2068,39385,0,0,0
2069,39395,0,0,0
2070,39405,0,0,0
2071,39415,0,0,0
2072,39425,0,0,0
2073,39435,0,0,0
2074,39445,0,0,0
2075,39455,0,0,0
2076,39465,0,0,0
2077,39475,0,0,0
2078,39485,0,0,0
2079,39495,0,0,0
2080,39505,0,0,0
2081,39515,0,0,0
2082,39525,0,0,0
2083,39535,0,0,0
2084,39545,0,0,0
2085,39555,0,0,0
2086,39565,0,0,0
2087,39575,0,0,0
2088,39585,0,0,0
2089,39595,0,0,0
2090,39605,0,0,0
2091,39615,0,0,0
2092,39625,0,0,0
2093,39635,0,0,0
2094,39645,0,0,0
2095,39655,0,0,0
2096,39665,0,0,0
2097,39675,0,0,0
2098,39685,0,0,0
2099,39695,0,0,0
2100,39705,0,0,0
2101,39715,0,0,0
2102,39725,0,0,0
2103,39735,0,0,0
2104,39745,0,0,0
2105,39755,0,0,0
2106,39765,0,0,0
2107,39775,0,0,0
2108,39785,0,0,0
2109,39795,0,0,0
2110,39805,0,0,0
2111,39815,0,0,0
2112,39825,0,0,0
2113,39835,0,0,0
2114,39845,0,0,0
2115,39855,0,0,0
2116,39865,0,0,0
2117,39875,0,0,0
2118,39885,0,0,0
2119,39895,0,0,0
2120,39905,0,0,0
2121,39915,0,0,0
2122,39925,0,0,0
2123,39935,0,0,0
2124,39945,0,0,0
2125,39955,0,0,0
2126,39965,0,0,0
2127,39975,0,0,0
2128,39985,0,0,0
2129,39995,0,0,0
2130,40005,0,0,0
2131,40015,0,0,0
2132,40025,0,0,0
2133,40035,0,0,0
2134,40045,0,0,0
2135,40055,0,0,0
2136,40065,0,0,0
2137,40075,0,0,0
2138,40085,0,0,0
2139,40095,0,0,0
2140,40105,0,0,0
2141,40115,0,0,0
2142,40125,0,0,0
2143,40135,0,0,0
2144,40145,0,0,0
2145,40155,0,0,0
2146,40165,0,0,0
2147,40175,0,0,0
2148,40185,0,0,0
2149,40195,0,0,0
2150,40205,0,0,0
2151,40215,0,0,0
2152,40225,0,0,0
2153,40235,0,0,0
2154,40245,0,0,0
2155,40255,0,0,0
2156,40265,0,0,0
2157,40275,0,0,0
2158,40285,0,0,0
2159,40295,0,0,0
2160,40305,0,0,0
2161,40315,0,0,0
2162,40325,0,0,0
2163,40335,0,0,0
2164,40345,0,0,0
2165,40355,0,0,0
2166,40365,0,0,0
2167,40375,0,0,0
2168,40385,0,0,0
2169,40395,0,0,0
2170,40405,0,0,0
2171,40415,0,0,0
2172,40425,0,0,0
2173,40435,0,0,0
2174,40445,0,0,0
2175,40455,0,0,0
2176,40465,0,0,0
2177,40475,0,0,0
2178,40485,0,0,0
2179,40495,0,0,0
2180,40505,0,0,0
2181,40515,0,0,0
2182,40525,0,0,0
2183,40535,0,0,0
2184,40545,0,0,0
2185,40555,0,0,0
2186,40565,0,0,0
2187,40575,0,0,0
2188,40585,0,0,0
2189,40595,0,0,0
2190,40605,0,0,0
2191,40615,0,0,0
2192,40625,0,0,0
2193,40635,0,0,0
2194,40645,0,0,0
2195,40655,0,0,0
2196,40665,0,0,0
2197,40675,0,0,0
2198,40685,0,0,0
2199,40695,0,0,0
2200,40705,0,0,0
2201,40715,0,0,0
2202,40725,0,0,0
2203,40735,0,0,0
2204,40745,0,0,0
2205,40755,0,0,0
2206,40765,0,0,0
2207,40775,0,0,0
2208,40785,0,0,0
2209,40795,0,0,0
2210,40805,0,0,0
2211,40815,0,0,0
2212,40825,0,0,0
2213,40835,0,0,0
2214,40845,0,0,0
2215,40855,0,0,0
2216,40865,0,0,0
2217,40875,0,0,0
2218,40885,0,0,0
2219,40895,0,0,0
2220,40905,0,0,0
2221,40915,0,0,0
2222,40925,0,0,0
2223,40935,0,0,0
2224,40945,0,0,0
2225,40955,0,0,0
2226,40965,0,0,0
2227,40975,0,0,0
2228,40985,0,0,0
2229,40995,0,0,0
2230,41005,0,0,0
2231,41015,0,0,0
2232,41025,0,0,0
2233,41035,0,0,0
2234,41045,0,0,0
2235,41055,0,0,0
2236,41065,0,0,0
2237,41075,0,0,0
2238,41085,0,0,0
2239,41095,0,0,0
2240,41105,0,0,0
2241,41115,0,0,0
2242,41125,0,0,0
2243,41135,0,0,0
2244,41145,0,0,0
2245,41155,0,0,0
2246,41165,0,0,0
2247,41175,0,0,0
2248,41185,0,0,0
2249,41195,0,0,0
2250,41205,0,0,0
2251,41215,0,0,0
2252,41225,0,0,0
2253,41235,0,0,0
2254,41245,0,0,0
2255,41255,0,0,0
2256,41265,0,0,0
2257,41275,0,0,0
2258,41285,0,0,0
2259,41295,0,0,0
2260,41305,0,0,0
2261,41315,0,0,0
2262,41325,0,0,0
2263,41335,0,0,0
2264,41345,0,0,0
2265,41355,0,0,0
2266,41365,0,0,0
2267,41375,0,0,0
2268,41385,0,0,0
2269,41395,0,0,0
2270,41405,0,0,0
2271,41415,0,0,0
2272,41425,0,0,0
2273,41435,0,0,0
2274,41445,0,0,0
2275,41455,0,0,0
2276,41465,0,0,0
2277,41475,0,0,0
2278,41485,0,0,0
2279,41495,0,0,0
2280,41505,0,0,0
2281,41515,0,0,0
2282,41525,0,0,0
2283,41535,0,0,0
2284,41545,0,0,0
2285,41555,0,0,0
2286,41565,0,0,0
2287,41575,0,0,0
2288,41585,0,0,0
2289,41595,0,0,0
2290,41605,0,0,0
2291,41615,0,0,0
2292,41625,0,0,0
2293,41635,0,0,0
2294,41645,0,0,0
2295,41655,0,0,0
2296,41665,0,0,0
2297,41675,0,0,0
2298,41685,0,0,0
2299,41695,0,0,0
2300,41705,0,0,0
2301,41715,0,0,0
2302,41725,0,0,0
2303,41735,0,0,0
2304,41745,0,0,0
2305,41755,0,0,0
2306,41765,0,0,0
2307,41775,0,0,0
2308,41785,0,0,0
2309,41795,0,0,0
2310,41805,0,0,0
2311,41815,0,0,0
2312,41825,0,0,0
2313,41835,0,0,0
2314,41845,0,0,0
2315,41855,0,0,0
2316,41865,0,0,0
2317,41875,0,0,0
2318,41885,0,0,0
2319,41895,0,0,0
2320,41905,0,0,0
2321,41915,0,0,0
2322,41925,0,0,0
2323,41935,0,0,0
2324,41945,0,0,0
2325,41955,0,0,0
2326,41965,0,0,0
2327,41975,0,0,0
2328,41985,0,0,0
2329,41995,0,0,0
2330,42005,0,0,0
2331,42015,0,0,0
2332,42025,0,0,0
2333,42035,0,0,0
2334,42045,0,0,0
2335,42055,0,0,0
2336,42065,0,0,0
2337,42075,0,0,0
2338,42085,0,0,0
2339,42095,0,0,0
2340,42105,0,0,0
2341,42115,0,0,0
2342,42125,0,0,0
2343,42135,0,0,0
2344,42145,0,0,0
2345,42155,0,0,0
2346,42165,0,0,0
2347,42175,0,0,0
2348,42185,0,0,0
2349,42195,0,0,0
2350,42205,0,0,0
2351,42215,0,0,0
2352,42225,0,0,0
2353,42235,0,0,0
2354,42245,0,0,0
2355,42255,0,0,0
2356,42265,0,0,0
2357,42275,0,0,0
2358,42285,0,0,0
2359,42295,0,0,0
2360,42305,0,0,0
2361,42315,0,0,0
2362,42325,0,0,0
2363,42335,0,0,0
2364,42345,0,0,0
2365,42355,0,0,0
2366,42365,0,0,0
2367,42375,0,0,0
2368,42385,0,0,0
2369,42395,0,0,0
