,ts,id,Gx,Gy,Gz,Ax,Ay,Az
0,0.011,IMU0,2.3170731707317076,8.902439024390244,-9.817073170731708,-0.0341796875,0.2177734375,0.9453125
1,0.011,IMU1,-0.12195121951219513,0.7926829268292683,-0.06097560975609757,-0.0478515625,0.185546875,0.9365234375
2,0.011,IMU2,-0.3658536585365854,0.1829268292682927,0.1829268292682927,-0.0341796875,0.208984375,0.9501953125
3,0.021,IMU0,2.3170731707317076,8.902439024390244,-9.756097560975611,-0.0341796875,0.2177734375,0.9443359375
4,0.021,IMU1,-0.1829268292682927,0.7317073170731708,-0.06097560975609757,-0.0478515625,0.1845703125,0.935546875
5,0.021,IMU2,-0.3658536585365854,0.1829268292682927,0.1829268292682927,-0.0341796875,0.208984375,0.9501953125
6,0.031,IMU0,2.25609756097561,8.963414634146343,-9.634146341463415,-0.0341796875,0.21875,0.9443359375
7,0.031,IMU1,-0.1829268292682927,0.7317073170731708,-0.06097560975609757,-0.0478515625,0.1845703125,0.935546875
8,0.031,IMU2,-0.30487804878048785,0.12195121951219513,0.12195121951219513,-0.03515625,0.208984375,0.9501953125
9,0.041,IMU0,2.25609756097561,8.902439024390244,-9.756097560975611,-0.033203125,0.21875,0.943359375
10,0.041,IMU1,-0.1829268292682927,0.7317073170731708,-0.06097560975609757,-0.046875,0.185546875,0.935546875
11,0.041,IMU2,-0.3658536585365854,0.1829268292682927,0.1829268292682927,-0.03515625,0.2080078125,0.9501953125
12,0.051,IMU0,2.3170731707317076,8.963414634146343,-9.756097560975611,-0.0341796875,0.2177734375,0.943359375
13,0.051,IMU1,-0.1829268292682927,0.7317073170731708,-0.06097560975609757,-0.046875,0.1845703125,0.935546875
14,0.051,IMU2,-0.3658536585365854,0.1829268292682927,0.1829268292682927,-0.0341796875,0.20703125,0.9501953125
15,0.061,IMU0,2.3170731707317076,8.963414634146343,-9.817073170731708,-0.0341796875,0.21875,0.943359375
16,0.061,IMU1,-0.1829268292682927,0.7317073170731708,-0.06097560975609757,-0.048828125,0.1845703125,0.9365234375
17,0.061,IMU2,-0.3658536585365854,0.12195121951219513,0.1829268292682927,-0.03515625,0.2080078125,0.9501953125
18,0.071,IMU0,2.25609756097561,8.963414634146343,-9.817073170731708,-0.03515625,0.2177734375,0.943359375
19,0.071,IMU1,-0.1829268292682927,0.7317073170731708,-0.06097560975609757,-0.0478515625,0.185546875,0.935546875
20,0.071,IMU2,-0.30487804878048785,0.12195121951219513,0.12195121951219513,-0.03515625,0.2080078125,0.9501953125
21,0.081,IMU0,2.25609756097561,8.963414634146343,-9.817073170731708,-0.0341796875,0.216796875,0.94140625
22,0.081,IMU1,-0.1829268292682927,0.7926829268292683,-0.06097560975609757,-0.048828125,0.185546875,0.935546875
23,0.081,IMU2,-0.3658536585365854,0.06097560975609757,0.12195121951219513,-0.033203125,0.20703125,0.951171875
24,0.091,IMU0,2.25609756097561,8.963414634146343,-9.817073170731708,-0.0341796875,0.216796875,0.9443359375
25,0.091,IMU1,-0.24390243902439027,0.7317073170731708,-0.06097560975609757,-0.0478515625,0.185546875,0.935546875
26,0.091,IMU2,-0.3658536585365854,0.06097560975609757,0.12195121951219513,-0.0341796875,0.2080078125,0.951171875
27,0.101,IMU0,2.25609756097561,8.902439024390244,-9.756097560975611,-0.0341796875,0.21875,0.9443359375
28,0.101,IMU1,-0.24390243902439027,0.7926829268292683,0.0,-0.048828125,0.185546875,0.9345703125
29,0.101,IMU2,-0.426829268292683,0.06097560975609757,0.1829268292682927,-0.03515625,0.2080078125,0.951171875
30,0.111,IMU0,2.3170731707317076,8.841463414634147,-9.817073170731708,-0.0341796875,0.2177734375,0.9453125
31,0.111,IMU1,-0.24390243902439027,0.7926829268292683,0.0,-0.0478515625,0.1865234375,0.9345703125
32,0.111,IMU2,-0.3658536585365854,0.12195121951219513,0.1829268292682927,-0.0341796875,0.20703125,0.951171875
33,0.121,IMU0,2.3170731707317076,8.902439024390244,-9.756097560975611,-0.0341796875,0.21875,0.9443359375
34,0.121,IMU1,-0.1829268292682927,0.7926829268292683,0.0,-0.0478515625,0.1865234375,0.935546875
35,0.121,IMU2,-0.3658536585365854,0.12195121951219513,0.1829268292682927,-0.0341796875,0.2080078125,0.9501953125
36,0.131,IMU0,2.25609756097561,8.841463414634147,-9.756097560975611,-0.0341796875,0.2177734375,0.9443359375
37,0.131,IMU1,-0.1829268292682927,0.7926829268292683,0.0,-0.0478515625,0.185546875,0.935546875
38,0.131,IMU2,-0.426829268292683,0.12195121951219513,0.12195121951219513,-0.033203125,0.2080078125,0.951171875
39,0.141,IMU0,2.25609756097561,8.902439024390244,-9.756097560975611,-0.03515625,0.2177734375,0.9443359375
40,0.141,IMU1,-0.1829268292682927,0.7926829268292683,0.0,-0.0478515625,0.185546875,0.935546875
41,0.141,IMU2,-0.426829268292683,0.12195121951219513,0.12195121951219513,-0.033203125,0.2080078125,0.9501953125
42,0.151,IMU0,2.25609756097561,8.841463414634147,-9.756097560975611,-0.0341796875,0.2177734375,0.9462890625
43,0.151,IMU1,-0.1829268292682927,0.7926829268292683,-0.06097560975609757,-0.0478515625,0.1845703125,0.9365234375
44,0.151,IMU2,-0.426829268292683,0.06097560975609757,0.12195121951219513,-0.033203125,0.2080078125,0.9482421875
45,0.161,IMU0,2.25609756097561,8.902439024390244,-9.756097560975611,-0.0341796875,0.216796875,0.943359375
46,0.161,IMU1,-0.1829268292682927,0.7926829268292683,-0.06097560975609757,-0.048828125,0.18359375,0.9365234375
47,0.161,IMU2,-0.426829268292683,0.06097560975609757,0.1829268292682927,-0.033203125,0.208984375,0.94921875
48,0.171,IMU0,2.25609756097561,8.902439024390244,-9.756097560975611,-0.0341796875,0.216796875,0.9443359375
49,0.171,IMU1,-0.1829268292682927,0.7926829268292683,-0.06097560975609757,-0.0478515625,0.18359375,0.9365234375
50,0.171,IMU2,-0.3658536585365854,0.06097560975609757,0.1829268292682927,-0.033203125,0.2080078125,0.9501953125
51,0.181,IMU0,2.3170731707317076,8.902439024390244,-9.756097560975611,-0.0341796875,0.2177734375,0.9443359375
52,0.181,IMU1,-0.24390243902439027,0.7926829268292683,-0.06097560975609757,-0.046875,0.1845703125,0.93359375
53,0.181,IMU2,-0.30487804878048785,0.12195121951219513,0.1829268292682927,-0.03515625,0.2080078125,0.9501953125
54,0.191,IMU0,2.25609756097561,8.902439024390244,-9.878048780487806,-0.03515625,0.216796875,0.9423828125
55,0.191,IMU1,-0.1829268292682927,0.7317073170731708,-0.06097560975609757,-0.0478515625,0.1845703125,0.93359375
56,0.191,IMU2,-0.3658536585365854,0.12195121951219513,0.1829268292682927,-0.03515625,0.208984375,0.951171875
57,0.201,IMU0,2.25609756097561,8.902439024390244,-9.878048780487806,-0.03515625,0.2177734375,0.9423828125
58,0.201,IMU1,-0.1829268292682927,0.7317073170731708,-0.06097560975609757,-0.0478515625,0.185546875,0.9345703125
59,0.201,IMU2,-0.426829268292683,0.12195121951219513,0.1829268292682927,-0.0341796875,0.2080078125,0.9501953125
60,0.211,IMU0,2.25609756097561,8.963414634146343,-9.756097560975611,-0.03515625,0.2177734375,0.9443359375
61,0.211,IMU1,-0.12195121951219513,0.7926829268292683,-0.06097560975609757,-0.0478515625,0.1845703125,0.9345703125
62,0.211,IMU2,-0.426829268292683,0.12195121951219513,0.1829268292682927,-0.033203125,0.208984375,0.9521484375
63,0.221,IMU0,2.25609756097561,8.963414634146343,-9.695121951219512,-0.03515625,0.2177734375,0.943359375
64,0.221,IMU1,-0.1829268292682927,0.7926829268292683,-0.06097560975609757,-0.046875,0.1845703125,0.93359375
65,0.221,IMU2,-0.426829268292683,0.1829268292682927,0.1829268292682927,-0.033203125,0.208984375,0.94921875
66,0.231,IMU0,2.3170731707317076,8.902439024390244,-9.634146341463415,-0.0341796875,0.21875,0.943359375
67,0.231,IMU1,-0.1829268292682927,0.853658536585366,-0.06097560975609757,-0.046875,0.1845703125,0.93359375
68,0.231,IMU2,-0.48780487804878053,0.1829268292682927,0.1829268292682927,-0.033203125,0.2080078125,0.9501953125
69,0.241,IMU0,2.25609756097561,8.963414634146343,-9.634146341463415,-0.0341796875,0.2177734375,0.9423828125
70,0.241,IMU1,-0.1829268292682927,0.853658536585366,-0.06097560975609757,-0.0478515625,0.1845703125,0.9345703125
71,0.241,IMU2,-0.426829268292683,0.24390243902439027,0.1829268292682927,-0.0341796875,0.208984375,0.951171875
72,0.251,IMU0,2.3170731707317076,8.963414634146343,-9.695121951219512,-0.03515625,0.2177734375,0.9423828125
73,0.251,IMU1,-0.1829268292682927,0.7926829268292683,-0.06097560975609757,-0.0478515625,0.185546875,0.9345703125
74,0.251,IMU2,-0.426829268292683,0.12195121951219513,0.1829268292682927,-0.0322265625,0.2080078125,0.9521484375
75,0.261,IMU0,2.3170731707317076,8.902439024390244,-9.756097560975611,-0.03515625,0.21875,0.9423828125
76,0.261,IMU1,-0.1829268292682927,0.7926829268292683,-0.06097560975609757,-0.046875,0.185546875,0.93359375
77,0.261,IMU2,-0.426829268292683,0.1829268292682927,0.1829268292682927,-0.0322265625,0.208984375,0.9501953125
78,0.271,IMU0,2.378048780487805,8.963414634146343,-9.756097560975611,-0.0341796875,0.21875,0.9423828125
79,0.271,IMU1,-0.12195121951219513,0.7317073170731708,-0.06097560975609757,-0.0478515625,0.185546875,0.93359375
80,0.271,IMU2,-0.3658536585365854,0.1829268292682927,0.1829268292682927,-0.0322265625,0.2080078125,0.9501953125
81,0.281,IMU0,2.3170731707317076,8.902439024390244,-9.756097560975611,-0.03515625,0.21875,0.943359375
82,0.281,IMU1,-0.12195121951219513,0.7317073170731708,-0.06097560975609757,-0.048828125,0.185546875,0.93359375
83,0.281,IMU2,-0.3658536585365854,0.12195121951219513,0.1829268292682927,-0.033203125,0.2080078125,0.951171875
84,0.291,IMU0,2.25609756097561,8.902439024390244,-9.695121951219512,-0.03515625,0.21875,0.943359375
85,0.291,IMU1,-0.1829268292682927,0.7317073170731708,0.0,-0.0478515625,0.1845703125,0.9326171875
86,0.291,IMU2,-0.426829268292683,0.12195121951219513,0.1829268292682927,-0.0341796875,0.20703125,0.951171875
87,0.301,IMU0,2.25609756097561,8.902439024390244,-9.695121951219512,-0.0341796875,0.21875,0.943359375
88,0.301,IMU1,-0.1829268292682927,0.7317073170731708,-0.06097560975609757,-0.048828125,0.18359375,0.931640625
89,0.301,IMU2,-0.426829268292683,0.12195121951219513,0.24390243902439027,-0.0341796875,0.2080078125,0.94921875
90,0.311,IMU0,2.25609756097561,8.902439024390244,-9.695121951219512,-0.03515625,0.2197265625,0.943359375
91,0.311,IMU1,-0.1829268292682927,0.7317073170731708,-0.06097560975609757,-0.0478515625,0.18359375,0.9326171875
92,0.311,IMU2,-0.426829268292683,0.1829268292682927,0.24390243902439027,-0.033203125,0.2080078125,0.94921875
93,0.321,IMU0,2.3170731707317076,8.841463414634147,-9.695121951219512,-0.0341796875,0.21875,0.9443359375
94,0.321,IMU1,-0.1829268292682927,0.6707317073170732,-0.06097560975609757,-0.0478515625,0.1845703125,0.93359375
95,0.321,IMU2,-0.3658536585365854,0.24390243902439027,0.1829268292682927,-0.0341796875,0.2080078125,0.94921875
96,0.331,IMU0,2.25609756097561,8.902439024390244,-9.695121951219512,-0.0341796875,0.2177734375,0.9453125
97,0.331,IMU1,-0.1829268292682927,0.7317073170731708,0.0,-0.046875,0.185546875,0.935546875
98,0.331,IMU2,-0.3658536585365854,0.1829268292682927,0.1829268292682927,-0.0341796875,0.2080078125,0.9501953125
99,0.341,IMU0,2.25609756097561,8.902439024390244,-9.817073170731708,-0.0341796875,0.2177734375,0.947265625
100,0.341,IMU1,-0.1829268292682927,0.6707317073170732,0.0,-0.046875,0.1865234375,0.9345703125
101,0.341,IMU2,-0.3658536585365854,0.1829268292682927,0.12195121951219513,-0.033203125,0.2080078125,0.94921875
102,0.351,IMU0,2.25609756097561,8.902439024390244,-9.756097560975611,-0.033203125,0.2177734375,0.9462890625
103,0.351,IMU1,-0.1829268292682927,0.7317073170731708,0.0,-0.046875,0.1845703125,0.9345703125
104,0.351,IMU2,-0.3658536585365854,0.1829268292682927,0.1829268292682927,-0.0341796875,0.208984375,0.94921875
105,0.361,IMU0,2.25609756097561,8.902439024390244,-9.756097560975611,-0.0341796875,0.2177734375,0.9453125
106,0.361,IMU1,-0.1829268292682927,0.7317073170731708,0.0,-0.0478515625,0.1845703125,0.9345703125
107,0.361,IMU2,-0.3658536585365854,0.1829268292682927,0.1829268292682927,-0.033203125,0.2080078125,0.9501953125
108,0.371,IMU0,2.25609756097561,8.902439024390244,-9.756097560975611,-0.03515625,0.21875,0.943359375
109,0.371,IMU1,-0.1829268292682927,0.7926829268292683,-0.06097560975609757,-0.0478515625,0.185546875,0.935546875
110,0.371,IMU2,-0.3658536585365854,0.1829268292682927,0.1829268292682927,-0.033203125,0.208984375,0.9482421875
111,0.381,IMU0,2.3170731707317076,8.963414634146343,-9.695121951219512,-0.0341796875,0.2177734375,0.9443359375
112,0.381,IMU1,-0.1829268292682927,0.7317073170731708,0.0,-0.048828125,0.1845703125,0.9365234375
113,0.381,IMU2,-0.3658536585365854,0.1829268292682927,0.1829268292682927,-0.0322265625,0.208984375,0.9482421875
114,0.391,IMU0,2.25609756097561,8.963414634146343,-9.695121951219512,-0.0341796875,0.2177734375,0.9443359375
115,0.391,IMU1,-0.12195121951219513,0.7317073170731708,-0.06097560975609757,-0.0478515625,0.185546875,0.935546875
116,0.391,IMU2,-0.3658536585365854,0.1829268292682927,0.1829268292682927,-0.033203125,0.2099609375,0.9482421875
117,0.401,IMU0,2.3170731707317076,8.902439024390244,-9.695121951219512,-0.0341796875,0.2177734375,0.9443359375
118,0.401,IMU1,-0.1829268292682927,0.7926829268292683,-0.06097560975609757,-0.0478515625,0.185546875,0.9345703125
119,0.401,IMU2,-0.426829268292683,0.12195121951219513,0.12195121951219513,-0.033203125,0.2080078125,0.94921875
120,0.411,IMU0,2.25609756097561,8.902439024390244,-9.634146341463415,-0.033203125,0.216796875,0.9443359375
121,0.411,IMU1,-0.12195121951219513,0.7926829268292683,0.0,-0.0478515625,0.1845703125,0.935546875
122,0.411,IMU2,-0.426829268292683,0.1829268292682927,0.12195121951219513,-0.0341796875,0.208984375,0.9501953125
123,0.421,IMU0,2.25609756097561,8.902439024390244,-9.634146341463415,-0.03515625,0.2177734375,0.9443359375
124,0.421,IMU1,-0.12195121951219513,0.7926829268292683,-0.06097560975609757,-0.0478515625,0.185546875,0.9345703125
125,0.421,IMU2,-0.426829268292683,0.1829268292682927,0.1829268292682927,-0.033203125,0.208984375,0.951171875
126,0.431,IMU0,2.3170731707317076,8.902439024390244,-9.634146341463415,-0.03515625,0.2177734375,0.9453125
127,0.431,IMU1,-0.1829268292682927,0.7317073170731708,-0.06097560975609757,-0.0478515625,0.185546875,0.935546875
128,0.431,IMU2,-0.3658536585365854,0.1829268292682927,0.1829268292682927,-0.033203125,0.2099609375,0.951171875
129,0.441,IMU0,2.3170731707317076,8.841463414634147,-9.695121951219512,-0.033203125,0.2177734375,0.943359375
130,0.441,IMU1,-0.1829268292682927,0.7926829268292683,0.0,-0.0478515625,0.185546875,0.935546875
131,0.441,IMU2,-0.3658536585365854,0.06097560975609757,0.1829268292682927,-0.0341796875,0.2099609375,0.9501953125
132,0.451,IMU0,2.3170731707317076,8.902439024390244,-9.695121951219512,-0.033203125,0.2177734375,0.9443359375
133,0.451,IMU1,-0.12195121951219513,0.7317073170731708,0.0,-0.0478515625,0.185546875,0.9345703125
134,0.451,IMU2,-0.3658536585365854,0.12195121951219513,0.1829268292682927,-0.0341796875,0.208984375,0.9501953125
135,0.461,IMU0,2.3170731707317076,8.902439024390244,-9.695121951219512,-0.0341796875,0.2177734375,0.9453125
136,0.461,IMU1,-0.1829268292682927,0.7926829268292683,0.0,-0.048828125,0.1845703125,0.9345703125
137,0.461,IMU2,-0.3658536585365854,0.1829268292682927,0.1829268292682927,-0.0341796875,0.2080078125,0.94921875
138,0.471,IMU0,2.3170731707317076,8.902439024390244,-9.756097560975611,-0.0341796875,0.21875,0.9453125
139,0.471,IMU1,-0.1829268292682927,0.7926829268292683,0.0,-0.0478515625,0.1845703125,0.935546875
140,0.471,IMU2,-0.426829268292683,0.1829268292682927,0.1829268292682927,-0.0341796875,0.2080078125,0.9501953125
141,0.481,IMU0,2.25609756097561,8.902439024390244,-9.573170731707318,-0.033203125,0.21875,0.9453125
142,0.481,IMU1,-0.1829268292682927,0.853658536585366,0.0,-0.048828125,0.185546875,0.935546875
143,0.481,IMU2,-0.426829268292683,0.1829268292682927,0.12195121951219513,-0.03515625,0.208984375,0.94921875
144,0.491,IMU0,2.25609756097561,8.902439024390244,-9.634146341463415,-0.0341796875,0.21875,0.9443359375
145,0.491,IMU1,-0.12195121951219513,0.7926829268292683,0.0,-0.048828125,0.1865234375,0.935546875
146,0.491,IMU2,-0.3658536585365854,0.1829268292682927,0.1829268292682927,-0.03515625,0.2080078125,0.94921875
147,0.501,IMU0,2.25609756097561,8.902439024390244,-9.817073170731708,-0.0341796875,0.21875,0.943359375
148,0.501,IMU1,-0.12195121951219513,0.7926829268292683,0.0,-0.048828125,0.1865234375,0.9345703125
149,0.501,IMU2,-0.426829268292683,0.12195121951219513,0.1829268292682927,-0.0341796875,0.208984375,0.9482421875
150,0.511,IMU0,2.25609756097561,8.902439024390244,-9.695121951219512,-0.0341796875,0.21875,0.943359375
151,0.511,IMU1,-0.1829268292682927,0.7926829268292683,-0.06097560975609757,-0.0478515625,0.1865234375,0.935546875
152,0.511,IMU2,-0.426829268292683,0.1829268292682927,0.1829268292682927,-0.0341796875,0.20703125,0.94921875
153,0.521,IMU0,2.25609756097561,8.963414634146343,-9.634146341463415,-0.0341796875,0.21875,0.9443359375
154,0.521,IMU1,-0.1829268292682927,0.7926829268292683,-0.06097560975609757,-0.048828125,0.1865234375,0.9365234375
155,0.521,IMU2,-0.48780487804878053,0.1829268292682927,0.1829268292682927,-0.0341796875,0.2080078125,0.9501953125
156,0.531,IMU0,2.25609756097561,8.963414634146343,-9.634146341463415,-0.03515625,0.2177734375,0.947265625
157,0.531,IMU1,-0.24390243902439027,0.7317073170731708,-0.06097560975609757,-0.0478515625,0.1865234375,0.935546875
158,0.531,IMU2,-0.3658536585365854,0.1829268292682927,0.12195121951219513,-0.0341796875,0.2080078125,0.951171875
159,0.541,IMU0,2.25609756097561,8.963414634146343,-9.634146341463415,-0.03515625,0.21875,0.947265625
160,0.541,IMU1,-0.1829268292682927,0.7926829268292683,-0.06097560975609757,-0.0478515625,0.185546875,0.9345703125
161,0.541,IMU2,-0.3658536585365854,0.12195121951219513,0.12195121951219513,-0.033203125,0.2080078125,0.9501953125
162,0.551,IMU0,2.25609756097561,8.963414634146343,-9.756097560975611,-0.0361328125,0.2177734375,0.9443359375
163,0.551,IMU1,-0.24390243902439027,0.7926829268292683,-0.06097560975609757,-0.0478515625,0.185546875,0.9345703125
164,0.551,IMU2,-0.3658536585365854,0.1829268292682927,0.1829268292682927,-0.0341796875,0.208984375,0.9521484375
165,0.561,IMU0,2.25609756097561,8.963414634146343,-9.817073170731708,-0.03515625,0.21875,0.943359375
166,0.561,IMU1,-0.1829268292682927,0.7926829268292683,-0.06097560975609757,-0.0478515625,0.185546875,0.93359375
167,0.561,IMU2,-0.426829268292683,0.1829268292682927,0.1829268292682927,-0.0341796875,0.208984375,0.951171875
168,0.571,IMU0,2.25609756097561,8.963414634146343,-9.817073170731708,-0.0341796875,0.2177734375,0.9443359375
169,0.571,IMU1,-0.1829268292682927,0.853658536585366,-0.06097560975609757,-0.0478515625,0.185546875,0.9345703125
170,0.571,IMU2,-0.3658536585365854,0.12195121951219513,0.24390243902439027,-0.033203125,0.2080078125,0.951171875
171,0.581,IMU0,2.25609756097561,8.963414634146343,-9.695121951219512,-0.0341796875,0.21875,0.943359375
172,0.581,IMU1,-0.12195121951219513,0.7926829268292683,-0.06097560975609757,-0.048828125,0.1845703125,0.935546875
173,0.581,IMU2,-0.3658536585365854,0.12195121951219513,0.1829268292682927,-0.033203125,0.2080078125,0.951171875
174,0.591,IMU0,2.25609756097561,8.902439024390244,-9.695121951219512,-0.0341796875,0.21875,0.9423828125
175,0.591,IMU1,-0.12195121951219513,0.7317073170731708,-0.06097560975609757,-0.0478515625,0.185546875,0.9365234375
176,0.591,IMU2,-0.3658536585365854,0.1829268292682927,0.24390243902439027,-0.033203125,0.2080078125,0.9521484375
177,0.601,IMU0,2.3170731707317076,8.902439024390244,-9.756097560975611,-0.0341796875,0.21875,0.9423828125
178,0.601,IMU1,-0.1829268292682927,0.7317073170731708,-0.06097560975609757,-0.048828125,0.185546875,0.935546875
179,0.601,IMU2,-0.3658536585365854,0.24390243902439027,0.1829268292682927,-0.0341796875,0.2080078125,0.9521484375
180,0.611,IMU0,2.25609756097561,8.902439024390244,-9.756097560975611,-0.033203125,0.21875,0.9423828125
181,0.611,IMU1,-0.1829268292682927,0.7926829268292683,-0.06097560975609757,-0.0478515625,0.185546875,0.9345703125
182,0.611,IMU2,-0.426829268292683,0.1829268292682927,0.1829268292682927,-0.0341796875,0.208984375,0.9501953125
183,0.621,IMU0,2.1951219512195124,8.963414634146343,-9.817073170731708,-0.0341796875,0.2197265625,0.943359375
184,0.621,IMU1,-0.1829268292682927,0.7926829268292683,-0.06097560975609757,-0.0498046875,0.185546875,0.9326171875
185,0.621,IMU2,-0.3658536585365854,0.1829268292682927,0.12195121951219513,-0.0341796875,0.208984375,0.94921875
186,0.631,IMU0,2.25609756097561,8.902439024390244,-9.756097560975611,-0.0341796875,0.2197265625,0.943359375
187,0.631,IMU1,-0.1829268292682927,0.853658536585366,-0.06097560975609757,-0.048828125,0.1865234375,0.9326171875
188,0.631,IMU2,-0.3658536585365854,0.1829268292682927,0.12195121951219513,-0.033203125,0.2080078125,0.94921875
189,0.641,IMU0,2.25609756097561,8.963414634146343,-9.817073170731708,-0.03515625,0.2177734375,0.943359375
190,0.641,IMU1,-0.1829268292682927,0.853658536585366,-0.06097560975609757,-0.0478515625,0.185546875,0.9345703125
191,0.641,IMU2,-0.3658536585365854,0.24390243902439027,0.12195121951219513,-0.033203125,0.208984375,0.9501953125
192,0.651,IMU0,2.25609756097561,8.963414634146343,-9.756097560975611,-0.033203125,0.21875,0.9443359375
193,0.651,IMU1,-0.24390243902439027,0.853658536585366,0.0,-0.0478515625,0.1865234375,0.9345703125
194,0.651,IMU2,-0.426829268292683,0.1829268292682927,0.12195121951219513,-0.033203125,0.208984375,0.94921875
195,0.661,IMU0,2.25609756097561,8.902439024390244,-9.756097560975611,-0.03515625,0.21875,0.943359375
196,0.661,IMU1,-0.24390243902439027,0.7926829268292683,0.0,-0.048828125,0.1865234375,0.9345703125
197,0.661,IMU2,-0.426829268292683,0.1829268292682927,0.1829268292682927,-0.033203125,0.208984375,0.9501953125
198,0.671,IMU0,2.25609756097561,8.963414634146343,-9.817073170731708,-0.0341796875,0.2177734375,0.9423828125
199,0.671,IMU1,-0.24390243902439027,0.7926829268292683,0.0,-0.048828125,0.185546875,0.93359375
200,0.671,IMU2,-0.426829268292683,0.1829268292682927,0.12195121951219513,-0.0322265625,0.2099609375,0.951171875
201,0.681,IMU0,2.25609756097561,8.902439024390244,-9.817073170731708,-0.03515625,0.21875,0.943359375
202,0.681,IMU1,-0.1829268292682927,0.7926829268292683,0.0,-0.0478515625,0.185546875,0.9345703125
203,0.681,IMU2,-0.3658536585365854,0.1829268292682927,0.1829268292682927,-0.033203125,0.208984375,0.951171875
204,0.691,IMU0,2.3170731707317076,8.902439024390244,-9.756097560975611,-0.03515625,0.21875,0.943359375
205,0.691,IMU1,-0.1829268292682927,0.7926829268292683,-0.06097560975609757,-0.0478515625,0.185546875,0.935546875
206,0.691,IMU2,-0.3658536585365854,0.12195121951219513,0.12195121951219513,-0.033203125,0.2080078125,0.951171875
207,0.701,IMU0,2.3170731707317076,8.963414634146343,-9.756097560975611,-0.0341796875,0.21875,0.943359375
208,0.701,IMU1,-0.1829268292682927,0.7926829268292683,0.0,-0.048828125,0.185546875,0.9345703125
209,0.701,IMU2,-0.426829268292683,0.1829268292682927,0.1829268292682927,-0.033203125,0.208984375,0.951171875
210,0.711,IMU0,2.25609756097561,8.902439024390244,-9.756097560975611,-0.0341796875,0.21875,0.943359375
211,0.711,IMU1,-0.24390243902439027,0.853658536585366,0.0,-0.048828125,0.185546875,0.9345703125
212,0.711,IMU2,-0.426829268292683,0.12195121951219513,0.12195121951219513,-0.0322265625,0.2080078125,0.94921875
213,0.721,IMU0,2.25609756097561,8.963414634146343,-9.756097560975611,-0.0341796875,0.2177734375,0.943359375
214,0.721,IMU1,-0.1829268292682927,0.853658536585366,0.0,-0.048828125,0.1865234375,0.93359375
215,0.721,IMU2,-0.48780487804878053,0.12195121951219513,0.1829268292682927,-0.0322265625,0.2080078125,0.94921875
216,0.731,IMU0,2.1951219512195124,8.902439024390244,-9.695121951219512,-0.0341796875,0.21875,0.943359375
217,0.731,IMU1,-0.1829268292682927,0.853658536585366,-0.06097560975609757,-0.0478515625,0.185546875,0.9345703125
218,0.731,IMU2,-0.48780487804878053,0.12195121951219513,0.1829268292682927,-0.0322265625,0.208984375,0.9501953125
219,0.741,IMU0,2.25609756097561,8.902439024390244,-9.756097560975611,-0.0341796875,0.21875,0.943359375
220,0.741,IMU1,-0.1829268292682927,0.7926829268292683,-0.06097560975609757,-0.048828125,0.1865234375,0.93359375
221,0.741,IMU2,-0.48780487804878053,0.12195121951219513,0.1829268292682927,-0.0341796875,0.2080078125,0.94921875
222,0.751,IMU0,2.25609756097561,8.902439024390244,-9.695121951219512,-0.03515625,0.21875,0.9443359375
223,0.751,IMU1,-0.12195121951219513,0.7926829268292683,0.0,-0.0478515625,0.185546875,0.9345703125
224,0.751,IMU2,-0.48780487804878053,0.12195121951219513,0.1829268292682927,-0.0341796875,0.208984375,0.94921875
225,0.761,IMU0,2.25609756097561,8.963414634146343,-9.756097560975611,-0.0341796875,0.21875,0.9453125
226,0.761,IMU1,-0.1829268292682927,0.7926829268292683,0.0,-0.0478515625,0.185546875,0.935546875
227,0.761,IMU2,-0.426829268292683,0.12195121951219513,0.24390243902439027,-0.033203125,0.2080078125,0.94921875
228,0.771,IMU0,2.25609756097561,8.963414634146343,-9.695121951219512,-0.0341796875,0.21875,0.9462890625
229,0.771,IMU1,-0.24390243902439027,0.7926829268292683,0.0,-0.0478515625,0.1845703125,0.9345703125
230,0.771,IMU2,-0.3658536585365854,0.1829268292682927,0.24390243902439027,-0.033203125,0.208984375,0.94921875
231,0.781,IMU0,2.3170731707317076,8.902439024390244,-9.695121951219512,-0.03515625,0.2177734375,0.9443359375
232,0.781,IMU1,-0.1829268292682927,0.7926829268292683,0.0,-0.0478515625,0.1845703125,0.935546875
233,0.781,IMU2,-0.3658536585365854,0.1829268292682927,0.24390243902439027,-0.033203125,0.208984375,0.9482421875
234,0.791,IMU0,2.3170731707317076,8.902439024390244,-9.695121951219512,-0.0341796875,0.216796875,0.943359375
235,0.791,IMU1,-0.12195121951219513,0.7926829268292683,-0.06097560975609757,-0.0478515625,0.1845703125,0.9365234375
236,0.791,IMU2,-0.3658536585365854,0.12195121951219513,0.1829268292682927,-0.0341796875,0.2080078125,0.94921875
237,0.801,IMU0,2.25609756097561,8.902439024390244,-9.573170731707318,-0.033203125,0.2177734375,0.9443359375
238,0.801,IMU1,-0.12195121951219513,0.7926829268292683,-0.06097560975609757,-0.046875,0.1845703125,0.9345703125
239,0.801,IMU2,-0.3658536585365854,0.12195121951219513,0.12195121951219513,-0.03515625,0.2080078125,0.9501953125
240,0.811,IMU0,2.25609756097561,8.841463414634147,-9.634146341463415,-0.033203125,0.2177734375,0.9453125
241,0.811,IMU1,-0.1829268292682927,0.7926829268292683,-0.06097560975609757,-0.048828125,0.1865234375,0.9345703125
242,0.811,IMU2,-0.426829268292683,0.12195121951219513,0.12195121951219513,-0.0341796875,0.20703125,0.951171875
243,0.821,IMU0,2.1951219512195124,8.902439024390244,-9.634146341463415,-0.033203125,0.216796875,0.943359375
244,0.821,IMU1,-0.1829268292682927,0.7926829268292683,-0.06097560975609757,-0.048828125,0.185546875,0.9345703125
245,0.821,IMU2,-0.426829268292683,0.12195121951219513,0.1829268292682927,-0.03515625,0.2080078125,0.9521484375
246,0.831,IMU0,2.1951219512195124,8.902439024390244,-9.634146341463415,-0.0341796875,0.216796875,0.9443359375
247,0.831,IMU1,-0.1829268292682927,0.7926829268292683,-0.06097560975609757,-0.048828125,0.185546875,0.9345703125
248,0.831,IMU2,-0.426829268292683,0.12195121951219513,0.12195121951219513,-0.03515625,0.208984375,0.9501953125
249,0.841,IMU0,2.25609756097561,8.902439024390244,-9.634146341463415,-0.033203125,0.216796875,0.9443359375
250,0.841,IMU1,-0.24390243902439027,0.7926829268292683,-0.06097560975609757,-0.048828125,0.185546875,0.93359375
251,0.841,IMU2,-0.426829268292683,0.12195121951219513,0.1829268292682927,-0.03515625,0.2080078125,0.9501953125
252,0.851,IMU0,2.3170731707317076,8.963414634146343,-9.573170731707318,-0.0341796875,0.216796875,0.9443359375
253,0.851,IMU1,-0.1829268292682927,0.7317073170731708,0.0,-0.048828125,0.1845703125,0.9345703125
254,0.851,IMU2,-0.426829268292683,0.12195121951219513,0.1829268292682927,-0.03515625,0.208984375,0.94921875
255,0.861,IMU0,2.3170731707317076,8.963414634146343,-9.634146341463415,-0.03515625,0.216796875,0.943359375
256,0.861,IMU1,-0.1829268292682927,0.7926829268292683,0.0,-0.048828125,0.185546875,0.93359375
257,0.861,IMU2,-0.426829268292683,0.1829268292682927,0.1829268292682927,-0.0341796875,0.2080078125,0.94921875
258,0.871,IMU0,2.3170731707317076,8.963414634146343,-9.695121951219512,-0.03515625,0.216796875,0.943359375
259,0.871,IMU1,-0.12195121951219513,0.7926829268292683,0.0,-0.048828125,0.185546875,0.935546875
260,0.871,IMU2,-0.3658536585365854,0.1829268292682927,0.1829268292682927,-0.03515625,0.2080078125,0.94921875
261,0.881,IMU0,2.3170731707317076,8.963414634146343,-9.817073170731708,-0.0341796875,0.216796875,0.9423828125
262,0.881,IMU1,-0.12195121951219513,0.7317073170731708,0.0,-0.0498046875,0.185546875,0.9345703125
263,0.881,IMU2,-0.3658536585365854,0.12195121951219513,0.24390243902439027,-0.033203125,0.2080078125,0.94921875
264,0.891,IMU0,2.3170731707317076,8.902439024390244,-9.695121951219512,-0.0341796875,0.216796875,0.9423828125
265,0.891,IMU1,-0.12195121951219513,0.7317073170731708,0.0,-0.048828125,0.185546875,0.9345703125
266,0.891,IMU2,-0.3658536585365854,0.12195121951219513,0.1829268292682927,-0.033203125,0.2080078125,0.94921875
267,0.901,IMU0,2.3170731707317076,8.902439024390244,-9.634146341463415,-0.033203125,0.21875,0.9443359375
268,0.901,IMU1,-0.12195121951219513,0.7926829268292683,-0.06097560975609757,-0.0478515625,0.185546875,0.9345703125
269,0.901,IMU2,-0.3658536585365854,0.12195121951219513,0.1829268292682927,-0.033203125,0.208984375,0.9501953125
270,0.911,IMU0,2.3170731707317076,8.963414634146343,-9.695121951219512,-0.033203125,0.21875,0.9443359375
271,0.911,IMU1,-0.12195121951219513,0.7926829268292683,0.0,-0.0478515625,0.185546875,0.9326171875
272,0.911,IMU2,-0.3658536585365854,0.12195121951219513,0.1829268292682927,-0.033203125,0.208984375,0.951171875
273,0.921,IMU0,2.3170731707317076,8.902439024390244,-9.634146341463415,-0.033203125,0.2177734375,0.943359375
274,0.921,IMU1,-0.12195121951219513,0.853658536585366,-0.06097560975609757,-0.046875,0.1845703125,0.9326171875
275,0.921,IMU2,-0.3658536585365854,0.06097560975609757,0.1829268292682927,-0.033203125,0.20703125,0.951171875
276,0.931,IMU0,2.25609756097561,8.902439024390244,-9.634146341463415,-0.033203125,0.21875,0.943359375
277,0.931,IMU1,-0.12195121951219513,0.7926829268292683,-0.06097560975609757,-0.046875,0.185546875,0.9345703125
278,0.931,IMU2,-0.3658536585365854,0.12195121951219513,0.12195121951219513,-0.033203125,0.20703125,0.951171875
279,0.941,IMU0,2.3170731707317076,8.902439024390244,-9.634146341463415,-0.0341796875,0.2177734375,0.943359375
280,0.941,IMU1,-0.12195121951219513,0.7317073170731708,-0.06097560975609757,-0.046875,0.1845703125,0.93359375
281,0.941,IMU2,-0.3658536585365854,0.12195121951219513,0.1829268292682927,-0.0341796875,0.20703125,0.9501953125
282,0.951,IMU0,2.25609756097561,8.902439024390244,-9.573170731707318,-0.033203125,0.2177734375,0.9443359375
283,0.951,IMU1,-0.1829268292682927,0.7317073170731708,0.0,-0.046875,0.185546875,0.93359375
284,0.951,IMU2,-0.3658536585365854,0.12195121951219513,0.1829268292682927,-0.0341796875,0.20703125,0.94921875
285,0.961,IMU0,2.3170731707317076,8.963414634146343,-9.634146341463415,-0.033203125,0.21875,0.9453125
286,0.961,IMU1,-0.1829268292682927,0.7317073170731708,0.0,-0.046875,0.1845703125,0.9345703125
287,0.961,IMU2,-0.3658536585365854,0.12195121951219513,0.12195121951219513,-0.033203125,0.20703125,0.94921875
288,0.971,IMU0,2.3170731707317076,8.902439024390244,-9.695121951219512,-0.0341796875,0.2177734375,0.9453125
289,0.971,IMU1,-0.24390243902439027,0.7926829268292683,-0.06097560975609757,-0.046875,0.1845703125,0.9365234375
290,0.971,IMU2,-0.426829268292683,0.1829268292682927,0.1829268292682927,-0.0341796875,0.20703125,0.9501953125
291,0.981,IMU0,2.25609756097561,8.963414634146343,-9.695121951219512,-0.033203125,0.2177734375,0.9453125
292,0.981,IMU1,-0.1829268292682927,0.7317073170731708,-0.12195121951219513,-0.0478515625,0.1845703125,0.935546875
293,0.981,IMU2,-0.426829268292683,0.12195121951219513,0.1829268292682927,-0.0341796875,0.2080078125,0.9501953125
294,0.991,IMU0,2.25609756097561,8.902439024390244,-9.573170731707318,-0.03515625,0.21875,0.9443359375
295,0.991,IMU1,-0.1829268292682927,0.7926829268292683,-0.12195121951219513,-0.0478515625,0.1845703125,0.935546875
296,0.991,IMU2,-0.3658536585365854,0.1829268292682927,0.1829268292682927,-0.033203125,0.2080078125,0.951171875
297,1.001,IMU0,2.3170731707317076,8.902439024390244,-9.634146341463415,-0.0341796875,0.21875,0.943359375
298,1.001,IMU1,-0.1829268292682927,0.7926829268292683,-0.06097560975609757,-0.0478515625,0.1845703125,0.9345703125
299,1.001,IMU2,-0.30487804878048785,0.1829268292682927,0.12195121951219513,-0.033203125,0.2080078125,0.951171875
300,1.011,IMU0,2.3170731707317076,8.963414634146343,-9.695121951219512,-0.03515625,0.21875,0.943359375
301,1.011,IMU1,-0.24390243902439027,0.7926829268292683,-0.06097560975609757,-0.048828125,0.185546875,0.9375
302,1.011,IMU2,-0.3658536585365854,0.1829268292682927,0.1829268292682927,-0.033203125,0.2080078125,0.951171875
303,1.021,IMU0,2.3170731707317076,8.902439024390244,-9.695121951219512,-0.0341796875,0.2177734375,0.9443359375
304,1.021,IMU1,-0.1829268292682927,0.7317073170731708,-0.06097560975609757,-0.048828125,0.185546875,0.935546875
305,1.021,IMU2,-0.3658536585365854,0.1829268292682927,0.1829268292682927,-0.0322265625,0.2080078125,0.951171875
306,1.031,IMU0,2.378048780487805,8.902439024390244,-9.695121951219512,-0.0341796875,0.2177734375,0.943359375
307,1.031,IMU1,-0.24390243902439027,0.853658536585366,-0.06097560975609757,-0.048828125,0.185546875,0.935546875
308,1.031,IMU2,-0.3658536585365854,0.1829268292682927,0.1829268292682927,-0.0322265625,0.2080078125,0.94921875
309,1.041,IMU0,2.3170731707317076,8.902439024390244,-9.695121951219512,-0.03515625,0.216796875,0.9443359375
310,1.041,IMU1,-0.24390243902439027,0.853658536585366,-0.06097560975609757,-0.048828125,0.1845703125,0.9365234375
311,1.041,IMU2,-0.3658536585365854,0.1829268292682927,0.24390243902439027,-0.0322265625,0.2080078125,0.94921875
312,1.051,IMU0,2.3170731707317076,8.902439024390244,-9.695121951219512,-0.0341796875,0.216796875,0.943359375
313,1.051,IMU1,-0.1829268292682927,0.7926829268292683,0.0,-0.048828125,0.1845703125,0.9365234375
314,1.051,IMU2,-0.3658536585365854,0.1829268292682927,0.24390243902439027,-0.033203125,0.2080078125,0.94921875
315,1.061,IMU0,2.25609756097561,8.902439024390244,-9.695121951219512,-0.033203125,0.216796875,0.9423828125
316,1.061,IMU1,-0.24390243902439027,0.7926829268292683,-0.06097560975609757,-0.0478515625,0.185546875,0.9365234375
317,1.061,IMU2,-0.426829268292683,0.12195121951219513,0.24390243902439027,-0.0322265625,0.2080078125,0.9501953125
318,1.071,IMU0,2.25609756097561,8.902439024390244,-9.634146341463415,-0.033203125,0.2177734375,0.943359375
319,1.071,IMU1,-0.1829268292682927,0.7926829268292683,-0.06097560975609757,-0.0478515625,0.1865234375,0.935546875
320,1.071,IMU2,-0.426829268292683,0.06097560975609757,0.1829268292682927,-0.0322265625,0.20703125,0.9501953125
321,1.081,IMU0,2.25609756097561,8.963414634146343,-9.695121951219512,-0.0341796875,0.2177734375,0.9443359375
322,1.081,IMU1,-0.1829268292682927,0.7926829268292683,-0.06097560975609757,-0.0478515625,0.185546875,0.9345703125
323,1.081,IMU2,-0.3658536585365854,0.06097560975609757,0.1829268292682927,-0.033203125,0.20703125,0.9501953125
324,1.091,IMU0,2.3170731707317076,8.963414634146343,-9.695121951219512,-0.0341796875,0.216796875,0.9453125
325,1.091,IMU1,-0.1829268292682927,0.7317073170731708,-0.12195121951219513,-0.048828125,0.1865234375,0.9345703125
326,1.091,IMU2,-0.3658536585365854,0.12195121951219513,0.1829268292682927,-0.033203125,0.2080078125,0.9501953125
327,1.101,IMU0,2.25609756097561,8.902439024390244,-9.695121951219512,-0.033203125,0.2177734375,0.9462890625
328,1.101,IMU1,-0.24390243902439027,0.7317073170731708,-0.12195121951219513,-0.0478515625,0.1865234375,0.9345703125
329,1.101,IMU2,-0.3658536585365854,0.12195121951219513,0.1829268292682927,-0.033203125,0.20703125,0.9501953125
330,1.111,IMU0,2.3170731707317076,8.902439024390244,-9.695121951219512,-0.033203125,0.2177734375,0.9443359375
331,1.111,IMU1,-0.1829268292682927,0.7317073170731708,-0.06097560975609757,-0.048828125,0.1865234375,0.9345703125
332,1.111,IMU2,-0.426829268292683,0.24390243902439027,0.1829268292682927,-0.0341796875,0.20703125,0.9501953125
333,1.121,IMU0,2.3170731707317076,8.902439024390244,-9.634146341463415,-0.0341796875,0.2177734375,0.9453125
334,1.121,IMU1,-0.1829268292682927,0.7926829268292683,-0.12195121951219513,-0.0478515625,0.1865234375,0.9345703125
335,1.121,IMU2,-0.426829268292683,0.1829268292682927,0.1829268292682927,-0.033203125,0.2080078125,0.94921875
336,1.131,IMU0,2.3170731707317076,8.902439024390244,-9.573170731707318,-0.033203125,0.2177734375,0.9453125
337,1.131,IMU1,-0.1829268292682927,0.7317073170731708,-0.12195121951219513,-0.0478515625,0.1865234375,0.9345703125
338,1.131,IMU2,-0.426829268292683,0.12195121951219513,0.1829268292682927,-0.0341796875,0.2080078125,0.9501953125
339,1.141,IMU0,2.3170731707317076,8.902439024390244,-9.695121951219512,-0.0341796875,0.2177734375,0.9453125
340,1.141,IMU1,-0.24390243902439027,0.7317073170731708,-0.12195121951219513,-0.0478515625,0.185546875,0.935546875
341,1.141,IMU2,-0.426829268292683,0.1829268292682927,0.1829268292682927,-0.033203125,0.2080078125,0.951171875
342,1.151,IMU0,2.3170731707317076,8.902439024390244,-9.695121951219512,-0.0341796875,0.21875,0.9443359375
343,1.151,IMU1,-0.1829268292682927,0.7317073170731708,-0.06097560975609757,-0.0478515625,0.1865234375,0.9345703125
344,1.151,IMU2,-0.426829268292683,0.12195121951219513,0.1829268292682927,-0.033203125,0.2080078125,0.9501953125
345,1.161,IMU0,2.3170731707317076,8.902439024390244,-9.756097560975611,-0.033203125,0.21875,0.9443359375
346,1.161,IMU1,-0.1829268292682927,0.7317073170731708,-0.06097560975609757,-0.048828125,0.1845703125,0.935546875
347,1.161,IMU2,-0.426829268292683,0.06097560975609757,0.1829268292682927,-0.033203125,0.20703125,0.951171875
348,1.171,IMU0,2.3170731707317076,8.963414634146343,-9.695121951219512,-0.0341796875,0.21875,0.9453125
349,1.171,IMU1,-0.1829268292682927,0.7317073170731708,-0.06097560975609757,-0.0478515625,0.185546875,0.935546875
350,1.171,IMU2,-0.48780487804878053,0.06097560975609757,0.24390243902439027,-0.0322265625,0.2080078125,0.9501953125
351,1.181,IMU0,2.3170731707317076,8.902439024390244,-9.634146341463415,-0.0361328125,0.21875,0.9443359375
352,1.181,IMU1,-0.1829268292682927,0.7317073170731708,-0.06097560975609757,-0.0478515625,0.185546875,0.935546875
353,1.181,IMU2,-0.426829268292683,0.12195121951219513,0.24390243902439027,-0.0322265625,0.2080078125,0.94921875
354,1.191,IMU0,2.3170731707317076,8.902439024390244,-9.51219512195122,-0.0361328125,0.21875,0.9453125
355,1.191,IMU1,-0.12195121951219513,0.7317073170731708,-0.06097560975609757,-0.0478515625,0.185546875,0.93359375
356,1.191,IMU2,-0.426829268292683,0.06097560975609757,0.1829268292682927,-0.033203125,0.2080078125,0.94921875
357,1.201,IMU0,2.3170731707317076,8.902439024390244,-9.573170731707318,-0.03515625,0.2177734375,0.9453125
358,1.201,IMU1,-0.12195121951219513,0.7317073170731708,-0.06097560975609757,-0.0478515625,0.1845703125,0.9345703125
359,1.201,IMU2,-0.3658536585365854,0.12195121951219513,0.1829268292682927,-0.033203125,0.2080078125,0.9501953125
360,1.211,IMU0,2.25609756097561,8.902439024390244,-9.634146341463415,-0.03515625,0.2177734375,0.9462890625
361,1.211,IMU1,-0.1829268292682927,0.7926829268292683,-0.06097560975609757,-0.0478515625,0.1845703125,0.93359375
362,1.211,IMU2,-0.30487804878048785,0.12195121951219513,0.1829268292682927,-0.033203125,0.20703125,0.9501953125
363,1.221,IMU0,2.25609756097561,8.902439024390244,-9.756097560975611,-0.03515625,0.2177734375,0.9462890625
364,1.221,IMU1,-0.1829268292682927,0.7926829268292683,-0.12195121951219513,-0.0478515625,0.1845703125,0.935546875
365,1.221,IMU2,-0.3658536585365854,0.12195121951219513,0.24390243902439027,-0.033203125,0.20703125,0.9501953125
366,1.231,IMU0,2.3170731707317076,8.902439024390244,-9.756097560975611,-0.033203125,0.216796875,0.943359375
367,1.231,IMU1,-0.1829268292682927,0.7317073170731708,-0.06097560975609757,-0.0478515625,0.1845703125,0.9345703125
368,1.231,IMU2,-0.3658536585365854,0.12195121951219513,0.24390243902439027,-0.033203125,0.20703125,0.94921875
369,1.241,IMU0,2.3170731707317076,8.902439024390244,-9.695121951219512,-0.0341796875,0.2177734375,0.943359375
370,1.241,IMU1,-0.1829268292682927,0.7926829268292683,-0.06097560975609757,-0.046875,0.1845703125,0.93359375
371,1.241,IMU2,-0.3658536585365854,0.12195121951219513,0.1829268292682927,-0.0341796875,0.20703125,0.94921875
372,1.251,IMU0,2.3170731707317076,8.963414634146343,-9.695121951219512,-0.0341796875,0.21875,0.9443359375
373,1.251,IMU1,-0.1829268292682927,0.7926829268292683,-0.06097560975609757,-0.0478515625,0.185546875,0.9345703125
374,1.251,IMU2,-0.3658536585365854,0.12195121951219513,0.1829268292682927,-0.0341796875,0.2080078125,0.951171875
375,1.261,IMU0,2.3170731707317076,8.963414634146343,-9.756097560975611,-0.0341796875,0.2177734375,0.9443359375
376,1.261,IMU1,-0.1829268292682927,0.7926829268292683,-0.06097560975609757,-0.048828125,0.185546875,0.9326171875
377,1.261,IMU2,-0.3658536585365854,0.12195121951219513,0.1829268292682927,-0.033203125,0.208984375,0.9501953125
378,1.271,IMU0,2.378048780487805,8.902439024390244,-9.756097560975611,-0.033203125,0.2177734375,0.9443359375
379,1.271,IMU1,-0.1829268292682927,0.7317073170731708,-0.06097560975609757,-0.048828125,0.185546875,0.9326171875
380,1.271,IMU2,-0.3658536585365854,0.12195121951219513,0.1829268292682927,-0.0322265625,0.2080078125,0.94921875
381,1.281,IMU0,2.3170731707317076,8.902439024390244,-9.817073170731708,-0.0341796875,0.21875,0.9443359375
382,1.281,IMU1,-0.24390243902439027,0.7926829268292683,0.0,-0.048828125,0.185546875,0.9345703125
383,1.281,IMU2,-0.48780487804878053,0.1829268292682927,0.1829268292682927,-0.0322265625,0.2080078125,0.951171875
384,1.291,IMU0,2.3170731707317076,8.902439024390244,-9.756097560975611,-0.0341796875,0.2177734375,0.9443359375
385,1.291,IMU1,-0.24390243902439027,0.7926829268292683,-0.06097560975609757,-0.048828125,0.1865234375,0.931640625
386,1.291,IMU2,-0.3658536585365854,0.12195121951219513,0.12195121951219513,-0.0322265625,0.2080078125,0.94921875
387,1.301,IMU0,2.3170731707317076,8.902439024390244,-9.634146341463415,-0.03515625,0.216796875,0.9453125
388,1.301,IMU1,-0.1829268292682927,0.7926829268292683,-0.06097560975609757,-0.0478515625,0.1865234375,0.9326171875
389,1.301,IMU2,-0.3658536585365854,0.1829268292682927,0.1829268292682927,-0.033203125,0.2080078125,0.9501953125
390,1.311,IMU0,2.3170731707317076,8.902439024390244,-9.634146341463415,-0.03515625,0.216796875,0.943359375
391,1.311,IMU1,-0.1829268292682927,0.853658536585366,-0.06097560975609757,-0.046875,0.185546875,0.9326171875
392,1.311,IMU2,-0.3658536585365854,0.1829268292682927,0.1829268292682927,-0.033203125,0.2080078125,0.9501953125
393,1.321,IMU0,2.25609756097561,8.902439024390244,-9.634146341463415,-0.0341796875,0.216796875,0.94140625
394,1.321,IMU1,-0.12195121951219513,0.853658536585366,-0.06097560975609757,-0.0478515625,0.1845703125,0.93359375
395,1.321,IMU2,-0.3658536585365854,0.1829268292682927,0.12195121951219513,-0.0341796875,0.2080078125,0.9501953125
396,1.331,IMU0,2.3170731707317076,8.963414634146343,-9.695121951219512,-0.033203125,0.216796875,0.943359375
397,1.331,IMU1,-0.12195121951219513,0.7926829268292683,0.0,-0.0478515625,0.1845703125,0.93359375
398,1.331,IMU2,-0.426829268292683,0.1829268292682927,0.12195121951219513,-0.03515625,0.2080078125,0.951171875
399,1.341,IMU0,2.3170731707317076,8.902439024390244,-9.695121951219512,-0.0341796875,0.2177734375,0.9453125
400,1.341,IMU1,-0.12195121951219513,0.7317073170731708,0.0,-0.048828125,0.185546875,0.935546875
401,1.341,IMU2,-0.426829268292683,0.12195121951219513,0.24390243902439027,-0.0341796875,0.20703125,0.951171875
402,1.351,IMU0,2.3170731707317076,8.902439024390244,-9.695121951219512,-0.0341796875,0.216796875,0.9443359375
403,1.351,IMU1,-0.1829268292682927,0.7317073170731708,0.0,-0.048828125,0.185546875,0.93359375
404,1.351,IMU2,-0.426829268292683,0.1829268292682927,0.24390243902439027,-0.033203125,0.20703125,0.9501953125
405,1.361,IMU0,2.3170731707317076,8.902439024390244,-9.695121951219512,-0.033203125,0.216796875,0.943359375
406,1.361,IMU1,-0.12195121951219513,0.7926829268292683,-0.06097560975609757,-0.048828125,0.185546875,0.935546875
407,1.361,IMU2,-0.3658536585365854,0.1829268292682927,0.24390243902439027,-0.0341796875,0.2080078125,0.94921875
408,1.371,IMU0,2.25609756097561,8.902439024390244,-9.756097560975611,-0.033203125,0.216796875,0.9443359375
409,1.371,IMU1,-0.1829268292682927,0.7926829268292683,-0.06097560975609757,-0.048828125,0.185546875,0.93359375
410,1.371,IMU2,-0.3658536585365854,0.1829268292682927,0.1829268292682927,-0.033203125,0.208984375,0.9501953125
411,1.381,IMU0,2.25609756097561,8.902439024390244,-9.756097560975611,-0.0341796875,0.21875,0.9443359375
412,1.381,IMU1,-0.1829268292682927,0.7926829268292683,-0.06097560975609757,-0.048828125,0.1845703125,0.935546875
413,1.381,IMU2,-0.426829268292683,0.12195121951219513,0.12195121951219513,-0.033203125,0.208984375,0.9501953125
414,1.391,IMU0,2.25609756097561,8.902439024390244,-9.756097560975611,-0.0341796875,0.2177734375,0.943359375
415,1.391,IMU1,-0.1829268292682927,0.7317073170731708,-0.06097560975609757,-0.048828125,0.185546875,0.935546875
416,1.391,IMU2,-0.426829268292683,0.1829268292682927,0.1829268292682927,-0.033203125,0.208984375,0.951171875
417,1.401,IMU0,2.25609756097561,8.902439024390244,-9.756097560975611,-0.03515625,0.2177734375,0.943359375
418,1.401,IMU1,-0.1829268292682927,0.7317073170731708,-0.06097560975609757,-0.0478515625,0.1845703125,0.935546875
419,1.401,IMU2,-0.3658536585365854,0.1829268292682927,0.1829268292682927,-0.033203125,0.2080078125,0.9501953125
420,1.411,IMU0,2.3170731707317076,8.902439024390244,-9.695121951219512,-0.0341796875,0.2177734375,0.943359375
421,1.411,IMU1,-0.1829268292682927,0.7317073170731708,-0.06097560975609757,-0.0478515625,0.1845703125,0.935546875
422,1.411,IMU2,-0.426829268292683,0.1829268292682927,0.1829268292682927,-0.033203125,0.20703125,0.9501953125
423,1.421,IMU0,2.3170731707317076,8.902439024390244,-9.695121951219512,-0.0341796875,0.2177734375,0.9462890625
424,1.421,IMU1,-0.12195121951219513,0.7317073170731708,-0.06097560975609757,-0.048828125,0.185546875,0.935546875
425,1.421,IMU2,-0.426829268292683,0.1829268292682927,0.1829268292682927,-0.0322265625,0.2080078125,0.94921875
426,1.431,IMU0,2.25609756097561,8.902439024390244,-9.756097560975611,-0.0341796875,0.21875,0.9453125
427,1.431,IMU1,-0.12195121951219513,0.7317073170731708,-0.06097560975609757,-0.048828125,0.1865234375,0.9345703125
428,1.431,IMU2,-0.48780487804878053,0.12195121951219513,0.1829268292682927,-0.033203125,0.2080078125,0.9501953125
429,1.441,IMU0,2.25609756097561,8.902439024390244,-9.756097560975611,-0.0341796875,0.2177734375,0.9443359375
430,1.441,IMU1,-0.1829268292682927,0.7317073170731708,-0.06097560975609757,-0.048828125,0.185546875,0.9345703125
431,1.441,IMU2,-0.3658536585365854,0.1829268292682927,0.1829268292682927,-0.033203125,0.2080078125,0.9482421875
432,1.451,IMU0,2.25609756097561,8.963414634146343,-9.695121951219512,-0.0341796875,0.2177734375,0.943359375
433,1.451,IMU1,-0.12195121951219513,0.7317073170731708,-0.06097560975609757,-0.0498046875,0.185546875,0.9326171875
434,1.451,IMU2,-0.426829268292683,0.1829268292682927,0.1829268292682927,-0.033203125,0.20703125,0.9501953125
435,1.461,IMU0,2.3170731707317076,8.963414634146343,-9.756097560975611,-0.0341796875,0.2177734375,0.9443359375
436,1.461,IMU1,-0.12195121951219513,0.6707317073170732,0.0,-0.0498046875,0.185546875,0.93359375
437,1.461,IMU2,-0.426829268292683,0.1829268292682927,0.1829268292682927,-0.033203125,0.2080078125,0.9501953125
438,1.471,IMU0,2.25609756097561,8.902439024390244,-9.756097560975611,-0.0341796875,0.2177734375,0.9443359375
439,1.471,IMU1,-0.1829268292682927,0.7317073170731708,0.0,-0.0478515625,0.1845703125,0.93359375
440,1.471,IMU2,-0.426829268292683,0.1829268292682927,0.1829268292682927,-0.0322265625,0.20703125,0.9501953125
441,1.481,IMU0,2.25609756097561,8.902439024390244,-9.756097560975611,-0.0341796875,0.216796875,0.9443359375
442,1.481,IMU1,-0.1829268292682927,0.7317073170731708,0.0,-0.0478515625,0.185546875,0.9345703125
443,1.481,IMU2,-0.3658536585365854,0.1829268292682927,0.24390243902439027,-0.033203125,0.2080078125,0.9501953125
444,1.491,IMU0,2.3170731707317076,8.902439024390244,-9.695121951219512,-0.03515625,0.2177734375,0.9443359375
445,1.491,IMU1,-0.1829268292682927,0.7926829268292683,-0.06097560975609757,-0.046875,0.1865234375,0.935546875
446,1.491,IMU2,-0.426829268292683,0.1829268292682927,0.24390243902439027,-0.033203125,0.20703125,0.9501953125
447,1.501,IMU0,2.3170731707317076,8.902439024390244,-9.634146341463415,-0.0341796875,0.216796875,0.943359375
448,1.501,IMU1,-0.24390243902439027,0.7926829268292683,-0.06097560975609757,-0.046875,0.1865234375,0.9326171875
449,1.501,IMU2,-0.3658536585365854,0.24390243902439027,0.24390243902439027,-0.0341796875,0.2080078125,0.9501953125
450,1.511,IMU0,2.3170731707317076,8.902439024390244,-9.695121951219512,-0.033203125,0.2177734375,0.9443359375
451,1.511,IMU1,-0.1829268292682927,0.7926829268292683,-0.06097560975609757,-0.0478515625,0.185546875,0.9326171875
452,1.511,IMU2,-0.426829268292683,0.24390243902439027,0.1829268292682927,-0.0341796875,0.2080078125,0.951171875
453,1.521,IMU0,2.3170731707317076,8.841463414634147,-9.695121951219512,-0.0322265625,0.216796875,0.9453125
454,1.521,IMU1,-0.1829268292682927,0.7926829268292683,-0.06097560975609757,-0.046875,0.185546875,0.93359375
455,1.521,IMU2,-0.3658536585365854,0.12195121951219513,0.1829268292682927,-0.033203125,0.20703125,0.9501953125
456,1.531,IMU0,2.25609756097561,8.841463414634147,-9.634146341463415,-0.033203125,0.2177734375,0.9443359375
457,1.531,IMU1,-0.24390243902439027,0.7926829268292683,-0.06097560975609757,-0.0478515625,0.185546875,0.9345703125
458,1.531,IMU2,-0.3658536585365854,0.1829268292682927,0.12195121951219513,-0.0322265625,0.20703125,0.9501953125
459,1.541,IMU0,2.25609756097561,8.902439024390244,-9.695121951219512,-0.0341796875,0.216796875,0.9443359375
460,1.541,IMU1,-0.1829268292682927,0.853658536585366,0.0,-0.0478515625,0.185546875,0.9345703125
461,1.541,IMU2,-0.30487804878048785,0.12195121951219513,0.12195121951219513,-0.033203125,0.20703125,0.94921875
462,1.551,IMU0,2.3170731707317076,8.902439024390244,-9.756097560975611,-0.033203125,0.216796875,0.9443359375
463,1.551,IMU1,-0.1829268292682927,0.7926829268292683,-0.06097560975609757,-0.046875,0.185546875,0.935546875
464,1.551,IMU2,-0.3658536585365854,0.12195121951219513,0.1829268292682927,-0.0341796875,0.2080078125,0.94921875
465,1.561,IMU0,2.25609756097561,8.902439024390244,-9.756097560975611,-0.033203125,0.216796875,0.9443359375
466,1.561,IMU1,-0.24390243902439027,0.7926829268292683,-0.06097560975609757,-0.046875,0.1845703125,0.935546875
467,1.561,IMU2,-0.3658536585365854,0.12195121951219513,0.1829268292682927,-0.033203125,0.2080078125,0.94921875
468,1.571,IMU0,2.25609756097561,8.902439024390244,-9.695121951219512,-0.0322265625,0.216796875,0.9443359375
469,1.571,IMU1,-0.1829268292682927,0.7926829268292683,-0.06097560975609757,-0.0478515625,0.1845703125,0.935546875
470,1.571,IMU2,-0.3658536585365854,0.1829268292682927,0.1829268292682927,-0.0341796875,0.2080078125,0.9501953125
471,1.581,IMU0,2.3170731707317076,8.902439024390244,-9.634146341463415,-0.033203125,0.216796875,0.943359375
472,1.581,IMU1,-0.1829268292682927,0.7926829268292683,-0.06097560975609757,-0.0498046875,0.185546875,0.935546875
473,1.581,IMU2,-0.3658536585365854,0.12195121951219513,0.1829268292682927,-0.033203125,0.2080078125,0.9482421875
474,1.591,IMU0,2.25609756097561,8.902439024390244,-9.634146341463415,-0.0341796875,0.216796875,0.9443359375
475,1.591,IMU1,-0.1829268292682927,0.7926829268292683,0.0,-0.0478515625,0.185546875,0.9365234375
476,1.591,IMU2,-0.426829268292683,0.06097560975609757,0.24390243902439027,-0.033203125,0.2080078125,0.9482421875
477,1.601,IMU0,2.25609756097561,8.963414634146343,-9.634146341463415,-0.0341796875,0.216796875,0.9443359375
478,1.601,IMU1,-0.24390243902439027,0.7317073170731708,-0.06097560975609757,-0.046875,0.185546875,0.9365234375
479,1.601,IMU2,-0.3658536585365854,0.12195121951219513,0.24390243902439027,-0.0322265625,0.2080078125,0.9482421875
480,1.611,IMU0,2.25609756097561,8.963414634146343,-9.634146341463415,-0.03515625,0.2177734375,0.9423828125
481,1.611,IMU1,-0.1829268292682927,0.7317073170731708,-0.06097560975609757,-0.0478515625,0.185546875,0.9365234375
482,1.611,IMU2,-0.3658536585365854,0.1829268292682927,0.24390243902439027,-0.0322265625,0.2080078125,0.94921875
483,1.621,IMU0,2.1951219512195124,8.963414634146343,-9.573170731707318,-0.0341796875,0.2177734375,0.94140625
484,1.621,IMU1,-0.24390243902439027,0.7926829268292683,-0.06097560975609757,-0.048828125,0.185546875,0.9345703125
485,1.621,IMU2,-0.3658536585365854,0.1829268292682927,0.1829268292682927,-0.033203125,0.20703125,0.94921875
486,1.631,IMU0,2.1951219512195124,8.902439024390244,-9.634146341463415,-0.033203125,0.2177734375,0.9423828125
487,1.631,IMU1,-0.24390243902439027,0.7926829268292683,-0.06097560975609757,-0.048828125,0.185546875,0.935546875
488,1.631,IMU2,-0.426829268292683,0.12195121951219513,0.12195121951219513,-0.0341796875,0.2080078125,0.94921875
489,1.641,IMU0,2.25609756097561,8.902439024390244,-9.634146341463415,-0.033203125,0.2177734375,0.9443359375
490,1.641,IMU1,-0.1829268292682927,0.7926829268292683,-0.06097560975609757,-0.048828125,0.185546875,0.9345703125
491,1.641,IMU2,-0.3658536585365854,0.1829268292682927,0.12195121951219513,-0.0341796875,0.208984375,0.94921875
492,1.651,IMU0,2.25609756097561,8.902439024390244,-9.695121951219512,-0.0341796875,0.21875,0.9453125
493,1.651,IMU1,-0.1829268292682927,0.853658536585366,-0.06097560975609757,-0.0478515625,0.18359375,0.93359375
494,1.651,IMU2,-0.3658536585365854,0.12195121951219513,0.1829268292682927,-0.0341796875,0.2080078125,0.951171875
495,1.661,IMU0,2.1951219512195124,8.841463414634147,-9.695121951219512,-0.033203125,0.2197265625,0.9453125
496,1.661,IMU1,-0.1829268292682927,0.7926829268292683,-0.06097560975609757,-0.0478515625,0.185546875,0.9345703125
497,1.661,IMU2,-0.426829268292683,0.1829268292682927,0.1829268292682927,-0.0341796875,0.2080078125,0.9521484375
498,1.671,IMU0,2.1951219512195124,8.902439024390244,-9.756097560975611,-0.0341796875,0.2177734375,0.943359375
499,1.671,IMU1,-0.1829268292682927,0.853658536585366,-0.06097560975609757,-0.048828125,0.185546875,0.9345703125
500,1.671,IMU2,-0.426829268292683,0.12195121951219513,0.1829268292682927,-0.033203125,0.208984375,0.951171875
501,1.681,IMU0,2.25609756097561,8.902439024390244,-9.695121951219512,-0.03515625,0.2177734375,0.9443359375
502,1.681,IMU1,-0.1829268292682927,0.7926829268292683,-0.06097560975609757,-0.048828125,0.185546875,0.9345703125
503,1.681,IMU2,-0.426829268292683,0.1829268292682927,0.1829268292682927,-0.033203125,0.208984375,0.951171875
504,1.691,IMU0,2.25609756097561,8.902439024390244,-9.756097560975611,-0.03515625,0.2177734375,0.943359375
505,1.691,IMU1,-0.1829268292682927,0.7926829268292683,-0.06097560975609757,-0.0498046875,0.1865234375,0.935546875
506,1.691,IMU2,-0.426829268292683,0.24390243902439027,0.12195121951219513,-0.033203125,0.2080078125,0.951171875
507,1.701,IMU0,2.25609756097561,8.963414634146343,-9.756097560975611,-0.03515625,0.216796875,0.9443359375
508,1.701,IMU1,-0.1829268292682927,0.7926829268292683,-0.06097560975609757,-0.0498046875,0.1865234375,0.9365234375
509,1.701,IMU2,-0.3658536585365854,0.1829268292682927,0.12195121951219513,-0.033203125,0.2080078125,0.951171875
510,1.711,IMU0,2.25609756097561,8.902439024390244,-9.695121951219512,-0.033203125,0.216796875,0.9443359375
511,1.711,IMU1,-0.1829268292682927,0.853658536585366,-0.06097560975609757,-0.0498046875,0.1845703125,0.9365234375
512,1.711,IMU2,-0.3658536585365854,0.1829268292682927,0.1829268292682927,-0.033203125,0.2080078125,0.951171875
513,1.721,IMU0,2.25609756097561,8.902439024390244,-9.695121951219512,-0.033203125,0.2177734375,0.9443359375
514,1.721,IMU1,-0.12195121951219513,0.7926829268292683,-0.06097560975609757,-0.048828125,0.1845703125,0.935546875
515,1.721,IMU2,-0.3658536585365854,0.12195121951219513,0.1829268292682927,-0.0341796875,0.208984375,0.94921875
516,1.731,IMU0,2.1951219512195124,8.902439024390244,-9.695121951219512,-0.0341796875,0.21875,0.9443359375
517,1.731,IMU1,-0.1829268292682927,0.7926829268292683,-0.06097560975609757,-0.048828125,0.1845703125,0.9326171875
518,1.731,IMU2,-0.3658536585365854,0.12195121951219513,0.1829268292682927,-0.03515625,0.2080078125,0.94921875
519,1.741,IMU0,2.25609756097561,8.841463414634147,-9.756097560975611,-0.0341796875,0.2177734375,0.9453125
520,1.741,IMU1,-0.1829268292682927,0.7926829268292683,-0.06097560975609757,-0.0478515625,0.1845703125,0.93359375
521,1.741,IMU2,-0.426829268292683,0.1829268292682927,0.1829268292682927,-0.0341796875,0.208984375,0.9501953125
522,1.751,IMU0,2.25609756097561,8.902439024390244,-9.817073170731708,-0.0341796875,0.216796875,0.9443359375
523,1.751,IMU1,-0.1829268292682927,0.7926829268292683,-0.06097560975609757,-0.048828125,0.185546875,0.9345703125
524,1.751,IMU2,-0.426829268292683,0.12195121951219513,0.1829268292682927,-0.0341796875,0.208984375,0.9501953125
525,1.761,IMU0,2.25609756097561,8.902439024390244,-9.756097560975611,-0.0341796875,0.2177734375,0.943359375
526,1.761,IMU1,-0.1829268292682927,0.7926829268292683,-0.06097560975609757,-0.0478515625,0.1845703125,0.9345703125
527,1.761,IMU2,-0.3658536585365854,0.12195121951219513,0.1829268292682927,-0.0341796875,0.2080078125,0.951171875
528,1.771,IMU0,2.1951219512195124,8.902439024390244,-9.695121951219512,-0.033203125,0.21875,0.9423828125
529,1.771,IMU1,-0.1829268292682927,0.7926829268292683,-0.06097560975609757,-0.0478515625,0.1845703125,0.93359375
530,1.771,IMU2,-0.3658536585365854,0.12195121951219513,0.1829268292682927,-0.0341796875,0.2080078125,0.9501953125
531,1.781,IMU0,2.25609756097561,8.902439024390244,-9.634146341463415,-0.033203125,0.21875,0.943359375
532,1.781,IMU1,-0.1829268292682927,0.7926829268292683,-0.06097560975609757,-0.048828125,0.185546875,0.9345703125
533,1.781,IMU2,-0.426829268292683,0.1829268292682927,0.06097560975609757,-0.033203125,0.2080078125,0.94921875
534,1.791,IMU0,2.25609756097561,8.902439024390244,-9.634146341463415,-0.033203125,0.2177734375,0.9443359375
535,1.791,IMU1,-0.12195121951219513,0.7926829268292683,0.0,-0.0478515625,0.1865234375,0.93359375
536,1.791,IMU2,-0.3658536585365854,0.1829268292682927,0.1829268292682927,-0.033203125,0.2080078125,0.9501953125
537,1.801,IMU0,2.25609756097561,8.902439024390244,-9.634146341463415,-0.033203125,0.2177734375,0.9453125
538,1.801,IMU1,-0.12195121951219513,0.7317073170731708,0.0,-0.048828125,0.1845703125,0.93359375
539,1.801,IMU2,-0.426829268292683,0.12195121951219513,0.1829268292682927,-0.0341796875,0.20703125,0.9501953125
540,1.811,IMU0,2.25609756097561,8.902439024390244,-9.634146341463415,-0.033203125,0.21875,0.9453125
541,1.811,IMU1,-0.1829268292682927,0.7926829268292683,0.0,-0.048828125,0.1845703125,0.93359375
542,1.811,IMU2,-0.3658536585365854,0.12195121951219513,0.24390243902439027,-0.033203125,0.20703125,0.9501953125
543,1.821,IMU0,2.25609756097561,8.902439024390244,-9.634146341463415,-0.033203125,0.2197265625,0.9443359375
544,1.821,IMU1,-0.1829268292682927,0.7926829268292683,-0.06097560975609757,-0.048828125,0.185546875,0.9345703125
545,1.821,IMU2,-0.3658536585365854,0.1829268292682927,0.1829268292682927,-0.033203125,0.2080078125,0.951171875
546,1.831,IMU0,2.3170731707317076,8.902439024390244,-9.695121951219512,-0.033203125,0.21875,0.9423828125
547,1.831,IMU1,-0.1829268292682927,0.7926829268292683,-0.06097560975609757,-0.0478515625,0.185546875,0.9345703125
548,1.831,IMU2,-0.30487804878048785,0.1829268292682927,0.1829268292682927,-0.033203125,0.208984375,0.951171875
549,1.841,IMU0,2.3170731707317076,8.902439024390244,-9.695121951219512,-0.033203125,0.21875,0.9423828125
550,1.841,IMU1,-0.24390243902439027,0.7317073170731708,-0.06097560975609757,-0.0478515625,0.1845703125,0.9326171875
551,1.841,IMU2,-0.3658536585365854,0.1829268292682927,0.12195121951219513,-0.0322265625,0.208984375,0.9501953125
552,1.851,IMU0,2.3170731707317076,8.902439024390244,-9.695121951219512,-0.033203125,0.21875,0.943359375
553,1.851,IMU1,-0.24390243902439027,0.7317073170731708,0.0,-0.0478515625,0.185546875,0.931640625
554,1.851,IMU2,-0.3658536585365854,0.1829268292682927,0.1829268292682927,-0.033203125,0.2080078125,0.9501953125
555,1.861,IMU0,2.3170731707317076,8.963414634146343,-9.634146341463415,-0.033203125,0.2177734375,0.9443359375
556,1.861,IMU1,-0.1829268292682927,0.7317073170731708,-0.06097560975609757,-0.046875,0.1845703125,0.9326171875
557,1.861,IMU2,-0.30487804878048785,0.1829268292682927,0.1829268292682927,-0.0322265625,0.208984375,0.9501953125
558,1.871,IMU0,2.3170731707317076,8.902439024390244,-9.634146341463415,-0.0322265625,0.2177734375,0.9423828125
559,1.871,IMU1,-0.1829268292682927,0.6707317073170732,-0.06097560975609757,-0.0478515625,0.185546875,0.9345703125
560,1.871,IMU2,-0.3658536585365854,0.12195121951219513,0.1829268292682927,-0.0322265625,0.208984375,0.9501953125
561,1.881,IMU0,2.3170731707317076,8.963414634146343,-9.634146341463415,-0.0322265625,0.216796875,0.9443359375
562,1.881,IMU1,-0.1829268292682927,0.7926829268292683,-0.12195121951219513,-0.048828125,0.185546875,0.93359375
563,1.881,IMU2,-0.426829268292683,0.12195121951219513,0.1829268292682927,-0.033203125,0.2080078125,0.9501953125
564,1.891,IMU0,2.25609756097561,8.963414634146343,-9.695121951219512,-0.0341796875,0.2177734375,0.943359375
565,1.891,IMU1,-0.1829268292682927,0.7926829268292683,-0.06097560975609757,-0.0478515625,0.185546875,0.93359375
566,1.891,IMU2,-0.3658536585365854,0.1829268292682927,0.24390243902439027,-0.033203125,0.2080078125,0.94921875
567,1.901,IMU0,2.25609756097561,8.902439024390244,-9.634146341463415,-0.0341796875,0.21875,0.9443359375
568,1.901,IMU1,-0.24390243902439027,0.853658536585366,-0.06097560975609757,-0.0478515625,0.185546875,0.93359375
569,1.901,IMU2,-0.426829268292683,0.1829268292682927,0.24390243902439027,-0.033203125,0.2080078125,0.9482421875
570,1.911,IMU0,2.25609756097561,8.902439024390244,-9.695121951219512,-0.0341796875,0.2177734375,0.9423828125
571,1.911,IMU1,-0.1829268292682927,0.7926829268292683,-0.06097560975609757,-0.048828125,0.185546875,0.9345703125
572,1.911,IMU2,-0.3658536585365854,0.24390243902439027,0.24390243902439027,-0.0322265625,0.2080078125,0.9482421875
573,1.921,IMU0,2.25609756097561,8.963414634146343,-9.756097560975611,-0.033203125,0.21875,0.9423828125
574,1.921,IMU1,-0.12195121951219513,0.7926829268292683,-0.06097560975609757,-0.048828125,0.1865234375,0.9345703125
575,1.921,IMU2,-0.3658536585365854,0.1829268292682927,0.24390243902439027,-0.0322265625,0.2080078125,0.9501953125
576,1.931,IMU0,2.25609756097561,8.902439024390244,-9.817073170731708,-0.0341796875,0.2197265625,0.9453125
577,1.931,IMU1,-0.1829268292682927,0.7926829268292683,-0.06097560975609757,-0.0498046875,0.185546875,0.9365234375
578,1.931,IMU2,-0.3658536585365854,0.1829268292682927,0.24390243902439027,-0.0322265625,0.2080078125,0.9501953125
579,1.941,IMU0,2.1951219512195124,8.902439024390244,-9.756097560975611,-0.033203125,0.21875,0.9462890625
580,1.941,IMU1,-0.1829268292682927,0.7317073170731708,0.0,-0.048828125,0.1865234375,0.9345703125
581,1.941,IMU2,-0.426829268292683,0.1829268292682927,0.30487804878048785,-0.0322265625,0.2080078125,0.94921875
582,1.951,IMU0,2.25609756097561,8.902439024390244,-9.756097560975611,-0.033203125,0.2177734375,0.9462890625
583,1.951,IMU1,-0.1829268292682927,0.7317073170731708,0.0,-0.0498046875,0.185546875,0.9345703125
584,1.951,IMU2,-0.3658536585365854,0.12195121951219513,0.24390243902439027,-0.0322265625,0.208984375,0.947265625
585,1.961,IMU0,2.25609756097561,8.902439024390244,-9.756097560975611,-0.03515625,0.2177734375,0.9462890625
586,1.961,IMU1,-0.1829268292682927,0.7926829268292683,-0.06097560975609757,-0.048828125,0.185546875,0.9345703125
587,1.961,IMU2,-0.3658536585365854,0.1829268292682927,0.1829268292682927,-0.0322265625,0.208984375,0.94921875
588,1.971,IMU0,2.3170731707317076,8.902439024390244,-9.756097560975611,-0.03515625,0.2177734375,0.9462890625
589,1.971,IMU1,-0.24390243902439027,0.853658536585366,-0.06097560975609757,-0.0478515625,0.185546875,0.9345703125
590,1.971,IMU2,-0.30487804878048785,0.24390243902439027,0.1829268292682927,-0.033203125,0.208984375,0.9482421875
591,1.981,IMU0,2.25609756097561,8.902439024390244,-9.695121951219512,-0.03515625,0.2177734375,0.947265625
592,1.981,IMU1,-0.1829268292682927,0.853658536585366,-0.06097560975609757,-0.0478515625,0.185546875,0.935546875
593,1.981,IMU2,-0.3658536585365854,0.1829268292682927,0.1829268292682927,-0.033203125,0.20703125,0.9482421875
594,1.991,IMU0,2.25609756097561,8.902439024390244,-9.695121951219512,-0.03515625,0.21875,0.9453125
595,1.991,IMU1,-0.1829268292682927,0.853658536585366,-0.06097560975609757,-0.048828125,0.185546875,0.935546875
596,1.991,IMU2,-0.426829268292683,0.12195121951219513,0.12195121951219513,-0.0341796875,0.2060546875,0.9482421875
597,2.001,IMU0,2.25609756097561,8.841463414634147,-9.695121951219512,-0.03515625,0.2197265625,0.943359375
598,2.001,IMU1,-0.1829268292682927,0.853658536585366,-0.06097560975609757,-0.0478515625,0.185546875,0.935546875
599,2.001,IMU2,-0.426829268292683,0.1829268292682927,0.1829268292682927,-0.0341796875,0.20703125,0.9482421875
600,2.011,IMU0,2.3170731707317076,8.902439024390244,-9.695121951219512,-0.03515625,0.21875,0.943359375
601,2.011,IMU1,-0.1829268292682927,0.853658536585366,-0.12195121951219513,-0.0478515625,0.1865234375,0.93359375
602,2.011,IMU2,-0.426829268292683,0.24390243902439027,0.1829268292682927,-0.0341796875,0.20703125,0.94921875
603,2.021,IMU0,2.3170731707317076,8.902439024390244,-9.634146341463415,-0.03515625,0.21875,0.9453125
604,2.021,IMU1,-0.1829268292682927,0.853658536585366,-0.06097560975609757,-0.0478515625,0.185546875,0.9345703125
605,2.021,IMU2,-0.426829268292683,0.1829268292682927,0.1829268292682927,-0.0341796875,0.2080078125,0.9482421875
606,2.031,IMU0,2.3170731707317076,8.902439024390244,-9.573170731707318,-0.033203125,0.21875,0.9443359375
607,2.031,IMU1,-0.1829268292682927,0.7926829268292683,-0.06097560975609757,-0.0478515625,0.185546875,0.9345703125
608,2.031,IMU2,-0.426829268292683,0.1829268292682927,0.12195121951219513,-0.03515625,0.2080078125,0.94921875
609,2.041,IMU0,2.25609756097561,8.902439024390244,-9.634146341463415,-0.0341796875,0.21875,0.9462890625
610,2.041,IMU1,-0.1829268292682927,0.7926829268292683,-0.06097560975609757,-0.048828125,0.185546875,0.935546875
611,2.041,IMU2,-0.426829268292683,0.1829268292682927,0.1829268292682927,-0.0341796875,0.20703125,0.9501953125
612,2.051,IMU0,2.1951219512195124,8.841463414634147,-9.756097560975611,-0.0341796875,0.21875,0.9453125
613,2.051,IMU1,-0.1829268292682927,0.7926829268292683,-0.06097560975609757,-0.048828125,0.1865234375,0.9365234375
614,2.051,IMU2,-0.3658536585365854,0.12195121951219513,0.1829268292682927,-0.0341796875,0.2080078125,0.94921875
615,2.061,IMU0,2.25609756097561,8.841463414634147,-9.756097560975611,-0.033203125,0.21875,0.9453125
616,2.061,IMU1,-0.1829268292682927,0.853658536585366,0.0,-0.048828125,0.1865234375,0.9345703125
617,2.061,IMU2,-0.3658536585365854,0.12195121951219513,0.1829268292682927,-0.0322265625,0.2080078125,0.9501953125
618,2.071,IMU0,2.25609756097561,8.841463414634147,-9.756097560975611,-0.033203125,0.21875,0.943359375
619,2.071,IMU1,-0.1829268292682927,0.7926829268292683,0.0,-0.0478515625,0.1875,0.9345703125
620,2.071,IMU2,-0.3658536585365854,0.1829268292682927,0.1829268292682927,-0.033203125,0.20703125,0.94921875
621,2.081,IMU0,2.25609756097561,8.902439024390244,-9.695121951219512,-0.03515625,0.2177734375,0.943359375
622,2.081,IMU1,-0.1829268292682927,0.7926829268292683,-0.06097560975609757,-0.0478515625,0.1865234375,0.935546875
623,2.081,IMU2,-0.3658536585365854,0.1829268292682927,0.1829268292682927,-0.0322265625,0.20703125,0.951171875
624,2.091,IMU0,2.3170731707317076,8.902439024390244,-9.695121951219512,-0.03515625,0.2177734375,0.9443359375
625,2.091,IMU1,-0.12195121951219513,0.853658536585366,-0.06097560975609757,-0.0478515625,0.185546875,0.9345703125
626,2.091,IMU2,-0.3658536585365854,0.1829268292682927,0.1829268292682927,-0.033203125,0.2080078125,0.94921875
627,2.101,IMU0,2.25609756097561,8.902439024390244,-9.695121951219512,-0.0341796875,0.2177734375,0.9443359375
628,2.101,IMU1,-0.1829268292682927,0.7926829268292683,-0.06097560975609757,-0.048828125,0.1845703125,0.9345703125
629,2.101,IMU2,-0.3658536585365854,0.1829268292682927,0.1829268292682927,-0.033203125,0.208984375,0.94921875
630,2.111,IMU0,2.3170731707317076,8.902439024390244,-9.634146341463415,-0.0341796875,0.21875,0.9443359375
631,2.111,IMU1,-0.12195121951219513,0.7926829268292683,-0.06097560975609757,-0.0498046875,0.1845703125,0.9345703125
632,2.111,IMU2,-0.426829268292683,0.1829268292682927,0.1829268292682927,-0.0341796875,0.208984375,0.9482421875
633,2.121,IMU0,2.3170731707317076,8.841463414634147,-9.756097560975611,-0.0341796875,0.2177734375,0.9453125
634,2.121,IMU1,-0.12195121951219513,0.7926829268292683,-0.06097560975609757,-0.048828125,0.1845703125,0.9345703125
635,2.121,IMU2,-0.3658536585365854,0.12195121951219513,0.1829268292682927,-0.0341796875,0.208984375,0.947265625
636,2.131,IMU0,2.25609756097561,8.902439024390244,-9.756097560975611,-0.03515625,0.216796875,0.943359375
637,2.131,IMU1,-0.1829268292682927,0.7926829268292683,-0.06097560975609757,-0.048828125,0.1845703125,0.93359375
638,2.131,IMU2,-0.426829268292683,0.1829268292682927,0.1829268292682927,-0.0341796875,0.208984375,0.947265625
639,2.141,IMU0,2.25609756097561,8.841463414634147,-9.817073170731708,-0.0341796875,0.216796875,0.9443359375
640,2.141,IMU1,-0.1829268292682927,0.7926829268292683,-0.06097560975609757,-0.046875,0.185546875,0.9326171875
641,2.141,IMU2,-0.426829268292683,0.1829268292682927,0.1829268292682927,-0.03515625,0.208984375,0.9482421875
642,2.151,IMU0,2.25609756097561,8.902439024390244,-9.878048780487806,-0.033203125,0.216796875,0.9443359375
643,2.151,IMU1,-0.1829268292682927,0.7926829268292683,-0.06097560975609757,-0.0478515625,0.185546875,0.93359375
644,2.151,IMU2,-0.426829268292683,0.12195121951219513,0.1829268292682927,-0.0341796875,0.208984375,0.9501953125
645,2.161,IMU0,2.1951219512195124,8.902439024390244,-9.817073170731708,-0.0341796875,0.216796875,0.9423828125
646,2.161,IMU1,-0.1829268292682927,0.7926829268292683,-0.06097560975609757,-0.0478515625,0.185546875,0.93359375
647,2.161,IMU2,-0.3658536585365854,0.12195121951219513,0.1829268292682927,-0.03515625,0.2080078125,0.9501953125
648,2.171,IMU0,2.25609756097561,8.902439024390244,-9.817073170731708,-0.03515625,0.2177734375,0.9423828125
649,2.171,IMU1,-0.24390243902439027,0.7317073170731708,-0.06097560975609757,-0.048828125,0.1845703125,0.935546875
650,2.171,IMU2,-0.30487804878048785,0.12195121951219513,0.1829268292682927,-0.03515625,0.208984375,0.9501953125
651,2.181,IMU0,2.25609756097561,8.902439024390244,-9.817073170731708,-0.0341796875,0.2158203125,0.9443359375
652,2.181,IMU1,-0.1829268292682927,0.6707317073170732,-0.06097560975609757,-0.048828125,0.1845703125,0.9345703125
653,2.181,IMU2,-0.30487804878048785,0.12195121951219513,0.1829268292682927,-0.03515625,0.2080078125,0.9501953125
654,2.191,IMU0,2.25609756097561,8.963414634146343,-9.756097560975611,-0.0341796875,0.216796875,0.9443359375
655,2.191,IMU1,-0.1829268292682927,0.7317073170731708,-0.06097560975609757,-0.046875,0.1865234375,0.93359375
656,2.191,IMU2,-0.3658536585365854,0.12195121951219513,0.1829268292682927,-0.0341796875,0.20703125,0.9501953125
657,2.201,IMU0,2.25609756097561,8.902439024390244,-9.817073170731708,-0.0322265625,0.216796875,0.9453125
658,2.201,IMU1,-0.24390243902439027,0.7926829268292683,-0.12195121951219513,-0.046875,0.185546875,0.9326171875
659,2.201,IMU2,-0.3658536585365854,0.12195121951219513,0.1829268292682927,-0.0341796875,0.208984375,0.94921875
660,2.211,IMU0,2.25609756097561,8.902439024390244,-9.756097560975611,-0.033203125,0.216796875,0.943359375
661,2.211,IMU1,-0.1829268292682927,0.7926829268292683,-0.12195121951219513,-0.0478515625,0.1865234375,0.9326171875
662,2.211,IMU2,-0.426829268292683,0.12195121951219513,0.1829268292682927,-0.0341796875,0.2080078125,0.94921875
663,2.221,IMU0,2.3170731707317076,8.902439024390244,-9.756097560975611,-0.0341796875,0.2177734375,0.943359375
664,2.221,IMU1,-0.1829268292682927,0.7926829268292683,-0.06097560975609757,-0.048828125,0.1875,0.9345703125
665,2.221,IMU2,-0.3658536585365854,0.1829268292682927,0.1829268292682927,-0.03515625,0.20703125,0.9501953125
666,2.231,IMU0,2.25609756097561,8.963414634146343,-9.756097560975611,-0.0341796875,0.2177734375,0.9443359375
667,2.231,IMU1,-0.1829268292682927,0.7926829268292683,-0.06097560975609757,-0.048828125,0.1865234375,0.9345703125
668,2.231,IMU2,-0.426829268292683,0.24390243902439027,0.1829268292682927,-0.0341796875,0.2080078125,0.9501953125
669,2.241,IMU0,2.25609756097561,8.963414634146343,-9.756097560975611,-0.0341796875,0.2177734375,0.9443359375
670,2.241,IMU1,-0.1829268292682927,0.7926829268292683,0.0,-0.0478515625,0.185546875,0.9345703125
671,2.241,IMU2,-0.3658536585365854,0.1829268292682927,0.1829268292682927,-0.0341796875,0.208984375,0.9501953125
672,2.251,IMU0,2.3170731707317076,8.963414634146343,-9.756097560975611,-0.033203125,0.216796875,0.9443359375
673,2.251,IMU1,-0.24390243902439027,0.7926829268292683,-0.06097560975609757,-0.0478515625,0.1845703125,0.935546875
674,2.251,IMU2,-0.426829268292683,0.1829268292682927,0.12195121951219513,-0.033203125,0.2080078125,0.9501953125
675,2.261,IMU0,2.25609756097561,8.963414634146343,-9.756097560975611,-0.0341796875,0.2177734375,0.9453125
676,2.261,IMU1,-0.1829268292682927,0.7317073170731708,-0.06097560975609757,-0.046875,0.1865234375,0.9345703125
677,2.261,IMU2,-0.426829268292683,0.12195121951219513,0.1829268292682927,-0.033203125,0.208984375,0.9501953125
678,2.271,IMU0,2.25609756097561,8.902439024390244,-9.756097560975611,-0.033203125,0.216796875,0.9443359375
679,2.271,IMU1,-0.12195121951219513,0.7926829268292683,-0.06097560975609757,-0.046875,0.1865234375,0.935546875
680,2.271,IMU2,-0.3658536585365854,0.1829268292682927,0.1829268292682927,-0.033203125,0.208984375,0.94921875
681,2.281,IMU0,2.3170731707317076,8.902439024390244,-9.695121951219512,-0.0322265625,0.216796875,0.9443359375
682,2.281,IMU1,-0.12195121951219513,0.7926829268292683,-0.06097560975609757,-0.0458984375,0.1865234375,0.9345703125
683,2.281,IMU2,-0.3658536585365854,0.12195121951219513,0.24390243902439027,-0.0322265625,0.2099609375,0.94921875
684,2.291,IMU0,2.3170731707317076,8.902439024390244,-9.756097560975611,-0.033203125,0.2177734375,0.9443359375
685,2.291,IMU1,-0.12195121951219513,0.7317073170731708,0.0,-0.046875,0.185546875,0.9345703125
686,2.291,IMU2,-0.426829268292683,0.1829268292682927,0.24390243902439027,-0.033203125,0.208984375,0.9501953125
687,2.301,IMU0,2.3170731707317076,8.902439024390244,-9.756097560975611,-0.03515625,0.21875,0.9443359375
688,2.301,IMU1,-0.12195121951219513,0.7317073170731708,0.0,-0.046875,0.1865234375,0.93359375
689,2.301,IMU2,-0.426829268292683,0.1829268292682927,0.1829268292682927,-0.033203125,0.208984375,0.951171875
690,2.311,IMU0,2.378048780487805,8.963414634146343,-9.756097560975611,-0.033203125,0.2177734375,0.943359375
691,2.311,IMU1,-0.12195121951219513,0.7926829268292683,-0.06097560975609757,-0.0478515625,0.1865234375,0.9345703125
692,2.311,IMU2,-0.426829268292683,0.1829268292682927,0.24390243902439027,-0.033203125,0.208984375,0.9501953125
693,2.321,IMU0,2.3170731707317076,8.963414634146343,-9.756097560975611,-0.033203125,0.21875,0.9443359375
694,2.321,IMU1,-0.1829268292682927,0.7926829268292683,-0.06097560975609757,-0.046875,0.1865234375,0.9345703125
695,2.321,IMU2,-0.426829268292683,0.1829268292682927,0.24390243902439027,-0.0341796875,0.208984375,0.9501953125
696,2.331,IMU0,2.3170731707317076,8.902439024390244,-9.817073170731708,-0.033203125,0.21875,0.9443359375
697,2.331,IMU1,-0.12195121951219513,0.7926829268292683,-0.06097560975609757,-0.0478515625,0.1865234375,0.9345703125
698,2.331,IMU2,-0.3658536585365854,0.24390243902439027,0.1829268292682927,-0.0341796875,0.208984375,0.951171875
699,2.341,IMU0,2.25609756097561,8.963414634146343,-9.817073170731708,-0.0341796875,0.2197265625,0.9453125
700,2.341,IMU1,-0.12195121951219513,0.853658536585366,-0.12195121951219513,-0.046875,0.1865234375,0.9345703125
701,2.341,IMU2,-0.426829268292683,0.1829268292682927,0.1829268292682927,-0.0341796875,0.2080078125,0.94921875
702,2.351,IMU0,2.25609756097561,8.902439024390244,-9.756097560975611,-0.033203125,0.2177734375,0.9453125
703,2.351,IMU1,-0.12195121951219513,0.7926829268292683,-0.12195121951219513,-0.0478515625,0.185546875,0.9345703125
704,2.351,IMU2,-0.426829268292683,0.1829268292682927,0.1829268292682927,-0.033203125,0.2080078125,0.947265625
705,2.361,IMU0,2.3170731707317076,8.902439024390244,-9.756097560975611,-0.0341796875,0.21875,0.943359375
706,2.361,IMU1,-0.1829268292682927,0.7926829268292683,-0.06097560975609757,-0.0478515625,0.185546875,0.9345703125
707,2.361,IMU2,-0.426829268292683,0.1829268292682927,0.12195121951219513,-0.0341796875,0.2080078125,0.947265625
708,2.371,IMU0,2.25609756097561,8.902439024390244,-9.817073170731708,-0.033203125,0.2177734375,0.943359375
709,2.371,IMU1,-0.1829268292682927,0.7926829268292683,-0.06097560975609757,-0.048828125,0.185546875,0.935546875
710,2.371,IMU2,-0.3658536585365854,0.1829268292682927,0.12195121951219513,-0.0341796875,0.20703125,0.9482421875
711,2.381,IMU0,2.3170731707317076,8.902439024390244,-9.756097560975611,-0.033203125,0.2177734375,0.943359375
712,2.381,IMU1,-0.1829268292682927,0.7926829268292683,-0.06097560975609757,-0.048828125,0.1865234375,0.93359375
713,2.381,IMU2,-0.30487804878048785,0.12195121951219513,0.12195121951219513,-0.0341796875,0.2080078125,0.9482421875
714,2.391,IMU0,2.25609756097561,8.902439024390244,-9.695121951219512,-0.033203125,0.21875,0.9443359375
715,2.391,IMU1,-0.12195121951219513,0.7926829268292683,-0.06097560975609757,-0.0498046875,0.1865234375,0.9345703125
716,2.391,IMU2,-0.3658536585365854,0.1829268292682927,0.1829268292682927,-0.033203125,0.20703125,0.9501953125
717,2.401,IMU0,2.25609756097561,8.902439024390244,-9.695121951219512,-0.0341796875,0.2177734375,0.9443359375
718,2.401,IMU1,-0.1829268292682927,0.853658536585366,-0.06097560975609757,-0.048828125,0.185546875,0.9345703125
719,2.401,IMU2,-0.3658536585365854,0.12195121951219513,0.12195121951219513,-0.0341796875,0.20703125,0.9501953125
720,2.411,IMU0,2.25609756097561,8.902439024390244,-9.756097560975611,-0.0341796875,0.2177734375,0.9453125
721,2.411,IMU1,-0.1829268292682927,0.853658536585366,0.0,-0.0478515625,0.185546875,0.935546875
722,2.411,IMU2,-0.3658536585365854,0.12195121951219513,0.1829268292682927,-0.03515625,0.20703125,0.9501953125
723,2.421,IMU0,2.25609756097561,8.963414634146343,-9.756097560975611,-0.033203125,0.216796875,0.9453125
724,2.421,IMU1,-0.1829268292682927,0.7926829268292683,-0.06097560975609757,-0.048828125,0.185546875,0.9345703125
725,2.421,IMU2,-0.3658536585365854,0.1829268292682927,0.1829268292682927,-0.03515625,0.20703125,0.951171875
726,2.431,IMU0,2.25609756097561,8.902439024390244,-9.695121951219512,-0.033203125,0.2158203125,0.9453125
727,2.431,IMU1,-0.1829268292682927,0.7926829268292683,-0.06097560975609757,-0.048828125,0.185546875,0.9345703125
728,2.431,IMU2,-0.3658536585365854,0.24390243902439027,0.1829268292682927,-0.0341796875,0.208984375,0.9501953125
729,2.441,IMU0,2.25609756097561,8.902439024390244,-9.634146341463415,-0.033203125,0.2158203125,0.9462890625
730,2.441,IMU1,-0.12195121951219513,0.853658536585366,-0.06097560975609757,-0.0478515625,0.185546875,0.93359375
731,2.441,IMU2,-0.3658536585365854,0.1829268292682927,0.24390243902439027,-0.033203125,0.2080078125,0.94921875
732,2.451,IMU0,2.3170731707317076,8.902439024390244,-9.695121951219512,-0.033203125,0.216796875,0.9453125
733,2.451,IMU1,-0.1829268292682927,0.853658536585366,-0.06097560975609757,-0.0478515625,0.185546875,0.935546875
734,2.451,IMU2,-0.3658536585365854,0.12195121951219513,0.1829268292682927,-0.033203125,0.2080078125,0.94921875
735,2.461,IMU0,2.3170731707317076,8.902439024390244,-9.756097560975611,-0.033203125,0.216796875,0.9453125
736,2.461,IMU1,-0.1829268292682927,0.853658536585366,-0.06097560975609757,-0.0478515625,0.185546875,0.9345703125
737,2.461,IMU2,-0.3658536585365854,0.12195121951219513,0.1829268292682927,-0.033203125,0.2080078125,0.9501953125
738,2.471,IMU0,2.3170731707317076,8.963414634146343,-9.817073170731708,-0.033203125,0.216796875,0.9423828125
739,2.471,IMU1,-0.1829268292682927,0.7926829268292683,-0.06097560975609757,-0.048828125,0.1845703125,0.935546875
740,2.471,IMU2,-0.426829268292683,0.12195121951219513,0.1829268292682927,-0.033203125,0.208984375,0.9501953125
741,2.481,IMU0,2.3170731707317076,8.963414634146343,-9.817073170731708,-0.033203125,0.21875,0.9453125
742,2.481,IMU1,-0.24390243902439027,0.7926829268292683,-0.06097560975609757,-0.0478515625,0.185546875,0.93359375
743,2.481,IMU2,-0.426829268292683,0.1829268292682927,0.1829268292682927,-0.0341796875,0.208984375,0.94921875
744,2.491,IMU0,2.25609756097561,8.963414634146343,-9.878048780487806,-0.033203125,0.2177734375,0.943359375
745,2.491,IMU1,-0.24390243902439027,0.7926829268292683,-0.06097560975609757,-0.048828125,0.1845703125,0.9326171875
746,2.491,IMU2,-0.3658536585365854,0.1829268292682927,0.24390243902439027,-0.033203125,0.208984375,0.9482421875
747,2.501,IMU0,2.25609756097561,8.902439024390244,-9.817073170731708,-0.033203125,0.21875,0.9443359375
748,2.501,IMU1,-0.1829268292682927,0.7926829268292683,-0.06097560975609757,-0.046875,0.1845703125,0.9326171875
749,2.501,IMU2,-0.3658536585365854,0.12195121951219513,0.1829268292682927,-0.0341796875,0.2080078125,0.94921875
750,2.511,IMU0,2.25609756097561,8.902439024390244,-9.756097560975611,-0.033203125,0.2177734375,0.9443359375
751,2.511,IMU1,-0.24390243902439027,0.7926829268292683,-0.12195121951219513,-0.0478515625,0.185546875,0.93359375
752,2.511,IMU2,-0.3658536585365854,0.12195121951219513,0.1829268292682927,-0.0341796875,0.2080078125,0.94921875
753,2.521,IMU0,2.25609756097561,8.902439024390244,-9.756097560975611,-0.033203125,0.216796875,0.943359375
754,2.521,IMU1,-0.24390243902439027,0.7317073170731708,-0.06097560975609757,-0.046875,0.1865234375,0.93359375
755,2.521,IMU2,-0.3658536585365854,0.1829268292682927,0.1829268292682927,-0.033203125,0.2080078125,0.9501953125
756,2.531,IMU0,2.25609756097561,8.902439024390244,-9.756097560975611,-0.033203125,0.2177734375,0.943359375
757,2.531,IMU1,-0.24390243902439027,0.7926829268292683,-0.06097560975609757,-0.046875,0.1865234375,0.9345703125
758,2.531,IMU2,-0.3658536585365854,0.1829268292682927,0.1829268292682927,-0.0341796875,0.208984375,0.9501953125
759,2.541,IMU0,2.25609756097561,8.902439024390244,-9.695121951219512,-0.033203125,0.21875,0.9423828125
760,2.541,IMU1,-0.24390243902439027,0.7317073170731708,0.0,-0.046875,0.185546875,0.935546875
761,2.541,IMU2,-0.3658536585365854,0.1829268292682927,0.24390243902439027,-0.0341796875,0.2080078125,0.951171875
762,2.551,IMU0,2.25609756097561,8.902439024390244,-9.573170731707318,-0.033203125,0.21875,0.943359375
763,2.551,IMU1,-0.1829268292682927,0.7926829268292683,-0.06097560975609757,-0.046875,0.185546875,0.9345703125
764,2.551,IMU2,-0.3658536585365854,0.12195121951219513,0.24390243902439027,-0.03515625,0.2080078125,0.951171875
765,2.561,IMU0,2.25609756097561,8.902439024390244,-9.51219512195122,-0.033203125,0.21875,0.9443359375
766,2.561,IMU1,-0.24390243902439027,0.7926829268292683,-0.06097560975609757,-0.0478515625,0.185546875,0.93359375
767,2.561,IMU2,-0.426829268292683,0.12195121951219513,0.24390243902439027,-0.0341796875,0.20703125,0.951171875
768,2.571,IMU0,2.1951219512195124,8.902439024390244,-9.573170731707318,-0.033203125,0.21875,0.9453125
769,2.571,IMU1,-0.24390243902439027,0.7926829268292683,-0.06097560975609757,-0.0478515625,0.1865234375,0.9345703125
770,2.571,IMU2,-0.426829268292683,0.12195121951219513,0.24390243902439027,-0.0341796875,0.2080078125,0.9501953125
771,2.581,IMU0,2.1951219512195124,8.963414634146343,-9.573170731707318,-0.0341796875,0.21875,0.9453125
772,2.581,IMU1,-0.12195121951219513,0.7926829268292683,-0.06097560975609757,-0.0478515625,0.185546875,0.935546875
773,2.581,IMU2,-0.426829268292683,0.12195121951219513,0.24390243902439027,-0.033203125,0.2080078125,0.9501953125
774,2.591,IMU0,2.25609756097561,8.902439024390244,-9.634146341463415,-0.03515625,0.2177734375,0.9453125
775,2.591,IMU1,-0.1829268292682927,0.7926829268292683,-0.06097560975609757,-0.0478515625,0.185546875,0.9345703125
776,2.591,IMU2,-0.426829268292683,0.12195121951219513,0.24390243902439027,-0.0341796875,0.2080078125,0.9501953125
777,2.601,IMU0,2.25609756097561,8.963414634146343,-9.695121951219512,-0.0341796875,0.2177734375,0.9443359375
778,2.601,IMU1,-0.1829268292682927,0.7317073170731708,-0.06097560975609757,-0.046875,0.185546875,0.9345703125
779,2.601,IMU2,-0.48780487804878053,0.12195121951219513,0.1829268292682927,-0.033203125,0.2080078125,0.951171875
780,2.611,IMU0,2.25609756097561,8.963414634146343,-9.695121951219512,-0.033203125,0.2177734375,0.9443359375
781,2.611,IMU1,-0.12195121951219513,0.7926829268292683,0.0,-0.046875,0.185546875,0.935546875
782,2.611,IMU2,-0.426829268292683,0.12195121951219513,0.1829268292682927,-0.033203125,0.2080078125,0.9501953125
783,2.621,IMU0,2.25609756097561,8.963414634146343,-9.695121951219512,-0.0322265625,0.2177734375,0.943359375
784,2.621,IMU1,-0.1829268292682927,0.7926829268292683,0.0,-0.0478515625,0.1865234375,0.935546875
785,2.621,IMU2,-0.3658536585365854,0.12195121951219513,0.12195121951219513,-0.033203125,0.208984375,0.9501953125
786,2.631,IMU0,2.1951219512195124,8.902439024390244,-9.756097560975611,-0.0341796875,0.216796875,0.943359375
787,2.631,IMU1,-0.1829268292682927,0.7926829268292683,0.0,-0.046875,0.1865234375,0.9345703125
788,2.631,IMU2,-0.3658536585365854,0.12195121951219513,0.1829268292682927,-0.0341796875,0.2099609375,0.9501953125
789,2.641,IMU0,2.25609756097561,8.841463414634147,-9.756097560975611,-0.033203125,0.2177734375,0.9443359375
790,2.641,IMU1,-0.12195121951219513,0.7926829268292683,0.0,-0.046875,0.185546875,0.935546875
791,2.641,IMU2,-0.30487804878048785,0.1829268292682927,0.1829268292682927,-0.0341796875,0.208984375,0.94921875
792,2.651,IMU0,2.3170731707317076,8.841463414634147,-9.695121951219512,-0.0341796875,0.216796875,0.9423828125
793,2.651,IMU1,-0.12195121951219513,0.7926829268292683,0.0,-0.0478515625,0.185546875,0.935546875
794,2.651,IMU2,-0.3658536585365854,0.12195121951219513,0.24390243902439027,-0.0341796875,0.20703125,0.9501953125
795,2.661,IMU0,2.25609756097561,8.902439024390244,-9.634146341463415,-0.03515625,0.2177734375,0.94140625
796,2.661,IMU1,-0.12195121951219513,0.7317073170731708,-0.06097560975609757,-0.048828125,0.185546875,0.935546875
797,2.661,IMU2,-0.3658536585365854,0.12195121951219513,0.1829268292682927,-0.033203125,0.20703125,0.94921875
798,2.671,IMU0,2.25609756097561,8.963414634146343,-9.695121951219512,-0.03515625,0.216796875,0.9443359375
799,2.671,IMU1,-0.12195121951219513,0.7926829268292683,-0.06097560975609757,-0.048828125,0.185546875,0.9365234375
800,2.671,IMU2,-0.3658536585365854,0.06097560975609757,0.24390243902439027,-0.0322265625,0.2080078125,0.94921875
801,2.681,IMU0,2.25609756097561,8.963414634146343,-9.695121951219512,-0.0341796875,0.216796875,0.9443359375
802,2.681,IMU1,-0.1829268292682927,0.7926829268292683,-0.06097560975609757,-0.048828125,0.1865234375,0.9365234375
803,2.681,IMU2,-0.3658536585365854,0.06097560975609757,0.24390243902439027,-0.033203125,0.2080078125,0.94921875
804,2.691,IMU0,2.25609756097561,8.902439024390244,-9.756097560975611,-0.0341796875,0.2177734375,0.943359375
805,2.691,IMU1,-0.1829268292682927,0.7926829268292683,-0.06097560975609757,-0.0478515625,0.1865234375,0.93359375
806,2.691,IMU2,-0.30487804878048785,0.12195121951219513,0.1829268292682927,-0.0341796875,0.2080078125,0.9482421875
807,2.701,IMU0,2.25609756097561,8.963414634146343,-9.695121951219512,-0.0341796875,0.2177734375,0.943359375
808,2.701,IMU1,-0.12195121951219513,0.7317073170731708,0.0,-0.048828125,0.1865234375,0.9326171875
809,2.701,IMU2,-0.30487804878048785,0.06097560975609757,0.1829268292682927,-0.0341796875,0.20703125,0.947265625
810,2.711,IMU0,2.25609756097561,8.963414634146343,-9.695121951219512,-0.0341796875,0.216796875,0.9423828125
811,2.711,IMU1,-0.1829268292682927,0.7317073170731708,-0.06097560975609757,-0.0478515625,0.1865234375,0.9326171875
812,2.711,IMU2,-0.426829268292683,0.12195121951219513,0.12195121951219513,-0.0341796875,0.208984375,0.9482421875
813,2.721,IMU0,2.25609756097561,8.963414634146343,-9.695121951219512,-0.033203125,0.216796875,0.9443359375
814,2.721,IMU1,-0.1829268292682927,0.7926829268292683,0.0,-0.048828125,0.185546875,0.93359375
815,2.721,IMU2,-0.426829268292683,0.12195121951219513,0.1829268292682927,-0.033203125,0.208984375,0.94921875
816,2.731,IMU0,2.3170731707317076,8.963414634146343,-9.756097560975611,-0.0341796875,0.2177734375,0.9453125
817,2.731,IMU1,-0.1829268292682927,0.7926829268292683,0.0,-0.048828125,0.1865234375,0.9345703125
818,2.731,IMU2,-0.3658536585365854,0.1829268292682927,0.12195121951219513,-0.033203125,0.2099609375,0.94921875
819,2.741,IMU0,2.3170731707317076,8.963414634146343,-9.634146341463415,-0.03515625,0.21875,0.943359375
820,2.741,IMU1,-0.1829268292682927,0.7317073170731708,-0.06097560975609757,-0.0498046875,0.185546875,0.935546875
821,2.741,IMU2,-0.3658536585365854,0.12195121951219513,0.1829268292682927,-0.033203125,0.208984375,0.9501953125
822,2.751,IMU0,2.3170731707317076,8.902439024390244,-9.634146341463415,-0.0361328125,0.21875,0.943359375
823,2.751,IMU1,-0.1829268292682927,0.7926829268292683,-0.06097560975609757,-0.048828125,0.185546875,0.9345703125
824,2.751,IMU2,-0.3658536585365854,0.12195121951219513,0.1829268292682927,-0.033203125,0.2080078125,0.9501953125
825,2.761,IMU0,2.25609756097561,8.902439024390244,-9.695121951219512,-0.03515625,0.2177734375,0.943359375
826,2.761,IMU1,-0.1829268292682927,0.7926829268292683,-0.06097560975609757,-0.048828125,0.1845703125,0.935546875
827,2.761,IMU2,-0.426829268292683,0.1829268292682927,0.1829268292682927,-0.0341796875,0.2080078125,0.94921875
828,2.771,IMU0,2.25609756097561,8.902439024390244,-9.756097560975611,-0.0341796875,0.21875,0.94140625
829,2.771,IMU1,-0.1829268292682927,0.7926829268292683,-0.06097560975609757,-0.048828125,0.1845703125,0.935546875
830,2.771,IMU2,-0.426829268292683,0.12195121951219513,0.1829268292682927,-0.0341796875,0.208984375,0.9482421875
831,2.781,IMU0,2.3170731707317076,8.902439024390244,-9.756097560975611,-0.0341796875,0.21875,0.943359375
832,2.781,IMU1,-0.1829268292682927,0.7926829268292683,-0.06097560975609757,-0.0478515625,0.185546875,0.935546875
833,2.781,IMU2,-0.3658536585365854,0.1829268292682927,0.24390243902439027,-0.0341796875,0.2080078125,0.9482421875
834,2.791,IMU0,2.3170731707317076,8.902439024390244,-9.756097560975611,-0.033203125,0.21875,0.9443359375
835,2.791,IMU1,-0.1829268292682927,0.7317073170731708,-0.12195121951219513,-0.048828125,0.1845703125,0.935546875
836,2.791,IMU2,-0.3658536585365854,0.12195121951219513,0.24390243902439027,-0.033203125,0.2080078125,0.9482421875
837,2.801,IMU0,2.3170731707317076,8.902439024390244,-9.695121951219512,-0.033203125,0.2177734375,0.9443359375
838,2.801,IMU1,-0.1829268292682927,0.7317073170731708,-0.12195121951219513,-0.0478515625,0.1845703125,0.93359375
839,2.801,IMU2,-0.3658536585365854,0.12195121951219513,0.24390243902439027,-0.0341796875,0.2080078125,0.94921875
840,2.811,IMU0,2.25609756097561,8.902439024390244,-9.695121951219512,-0.0341796875,0.21875,0.943359375
841,2.811,IMU1,-0.1829268292682927,0.7926829268292683,-0.06097560975609757,-0.0478515625,0.1845703125,0.9326171875
842,2.811,IMU2,-0.426829268292683,0.1829268292682927,0.1829268292682927,-0.033203125,0.2080078125,0.9501953125
843,2.821,IMU0,2.3170731707317076,8.841463414634147,-9.695121951219512,-0.0341796875,0.21875,0.9443359375
844,2.821,IMU1,-0.1829268292682927,0.7926829268292683,-0.06097560975609757,-0.0478515625,0.185546875,0.93359375
845,2.821,IMU2,-0.426829268292683,0.12195121951219513,0.24390243902439027,-0.03125,0.2080078125,0.951171875
846,2.831,IMU0,2.3170731707317076,8.902439024390244,-9.695121951219512,-0.0341796875,0.21875,0.9453125
847,2.831,IMU1,-0.1829268292682927,0.7317073170731708,-0.06097560975609757,-0.0478515625,0.1865234375,0.935546875
848,2.831,IMU2,-0.3658536585365854,0.12195121951219513,0.1829268292682927,-0.0322265625,0.2080078125,0.9501953125
849,2.841,IMU0,2.25609756097561,8.963414634146343,-9.756097560975611,-0.0341796875,0.2177734375,0.9423828125
850,2.841,IMU1,-0.1829268292682927,0.7317073170731708,-0.06097560975609757,-0.0478515625,0.185546875,0.93359375
851,2.841,IMU2,-0.3658536585365854,0.1829268292682927,0.1829268292682927,-0.033203125,0.2080078125,0.9501953125
852,2.851,IMU0,2.3170731707317076,8.902439024390244,-9.756097560975611,-0.0341796875,0.2177734375,0.943359375
853,2.851,IMU1,-0.1829268292682927,0.7317073170731708,0.0,-0.0478515625,0.1865234375,0.9326171875
854,2.851,IMU2,-0.3658536585365854,0.1829268292682927,0.1829268292682927,-0.033203125,0.2080078125,0.9501953125
855,2.861,IMU0,2.3170731707317076,8.963414634146343,-9.756097560975611,-0.0341796875,0.2177734375,0.943359375
856,2.861,IMU1,-0.12195121951219513,0.7926829268292683,0.0,-0.0478515625,0.1865234375,0.9345703125
857,2.861,IMU2,-0.3658536585365854,0.12195121951219513,0.1829268292682927,-0.033203125,0.208984375,0.94921875
858,2.871,IMU0,2.3170731707317076,8.841463414634147,-9.756097560975611,-0.0341796875,0.2177734375,0.9453125
859,2.871,IMU1,-0.1829268292682927,0.7926829268292683,0.0,-0.048828125,0.1865234375,0.9345703125
860,2.871,IMU2,-0.48780487804878053,0.12195121951219513,0.12195121951219513,-0.033203125,0.208984375,0.94921875
861,2.881,IMU0,2.25609756097561,8.841463414634147,-9.756097560975611,-0.0341796875,0.21875,0.9443359375
862,2.881,IMU1,-0.1829268292682927,0.7926829268292683,-0.06097560975609757,-0.048828125,0.185546875,0.93359375
863,2.881,IMU2,-0.426829268292683,0.12195121951219513,0.1829268292682927,-0.033203125,0.2080078125,0.94921875
864,2.891,IMU0,2.25609756097561,8.902439024390244,-9.695121951219512,-0.033203125,0.2177734375,0.943359375
865,2.891,IMU1,-0.1829268292682927,0.7926829268292683,-0.06097560975609757,-0.048828125,0.185546875,0.9345703125
866,2.891,IMU2,-0.3658536585365854,0.12195121951219513,0.1829268292682927,-0.033203125,0.20703125,0.9501953125
867,2.901,IMU0,2.25609756097561,8.902439024390244,-9.756097560975611,-0.033203125,0.2177734375,0.9423828125
868,2.901,IMU1,-0.12195121951219513,0.7317073170731708,-0.06097560975609757,-0.048828125,0.185546875,0.9345703125
869,2.901,IMU2,-0.3658536585365854,0.12195121951219513,0.1829268292682927,-0.0341796875,0.2080078125,0.94921875
870,2.911,IMU0,2.25609756097561,8.902439024390244,-9.756097560975611,-0.0341796875,0.216796875,0.943359375
871,2.911,IMU1,-0.12195121951219513,0.7926829268292683,-0.06097560975609757,-0.0478515625,0.185546875,0.9345703125
872,2.911,IMU2,-0.3658536585365854,0.12195121951219513,0.1829268292682927,-0.0341796875,0.20703125,0.951171875
873,2.921,IMU0,2.25609756097561,8.902439024390244,-9.756097560975611,-0.03515625,0.2177734375,0.9443359375
874,2.921,IMU1,-0.12195121951219513,0.7926829268292683,0.0,-0.048828125,0.185546875,0.935546875
875,2.921,IMU2,-0.3658536585365854,0.1829268292682927,0.12195121951219513,-0.0341796875,0.2080078125,0.9521484375
876,2.931,IMU0,2.3170731707317076,8.902439024390244,-9.756097560975611,-0.03515625,0.2177734375,0.9423828125
877,2.931,IMU1,-0.1829268292682927,0.7926829268292683,0.0,-0.048828125,0.1865234375,0.935546875
878,2.931,IMU2,-0.426829268292683,0.12195121951219513,0.1829268292682927,-0.0341796875,0.2080078125,0.951171875
879,2.941,IMU0,2.25609756097561,8.963414634146343,-9.634146341463415,-0.0341796875,0.21875,0.943359375
880,2.941,IMU1,-0.24390243902439027,0.7317073170731708,-0.06097560975609757,-0.048828125,0.185546875,0.9345703125
881,2.941,IMU2,-0.3658536585365854,0.1829268292682927,0.1829268292682927,-0.0341796875,0.2080078125,0.9501953125
882,2.951,IMU0,2.25609756097561,8.902439024390244,-9.634146341463415,-0.033203125,0.21875,0.9423828125
883,2.951,IMU1,-0.24390243902439027,0.7317073170731708,-0.06097560975609757,-0.048828125,0.185546875,0.9345703125
884,2.951,IMU2,-0.3658536585365854,0.24390243902439027,0.1829268292682927,-0.033203125,0.2080078125,0.9501953125
885,2.961,IMU0,2.25609756097561,8.902439024390244,-9.695121951219512,-0.033203125,0.2177734375,0.9423828125
886,2.961,IMU1,-0.24390243902439027,0.7926829268292683,0.0,-0.048828125,0.1845703125,0.9345703125
887,2.961,IMU2,-0.3658536585365854,0.12195121951219513,0.12195121951219513,-0.0341796875,0.2080078125,0.94921875
888,2.971,IMU0,2.25609756097561,8.902439024390244,-9.756097560975611,-0.033203125,0.216796875,0.943359375
889,2.971,IMU1,-0.24390243902439027,0.7926829268292683,0.0,-0.0478515625,0.1845703125,0.935546875
890,2.971,IMU2,-0.30487804878048785,0.12195121951219513,0.12195121951219513,-0.0341796875,0.208984375,0.951171875
891,2.981,IMU0,2.25609756097561,8.902439024390244,-9.695121951219512,-0.033203125,0.2177734375,0.9443359375
892,2.981,IMU1,-0.1829268292682927,0.7926829268292683,0.0,-0.0478515625,0.1845703125,0.9345703125
893,2.981,IMU2,-0.3658536585365854,0.1829268292682927,0.1829268292682927,-0.0341796875,0.2080078125,0.9501953125
894,2.991,IMU0,2.25609756097561,8.902439024390244,-9.756097560975611,-0.033203125,0.2177734375,0.9443359375
895,2.991,IMU1,-0.24390243902439027,0.7926829268292683,0.0,-0.046875,0.185546875,0.935546875
896,2.991,IMU2,-0.3658536585365854,0.12195121951219513,0.1829268292682927,-0.033203125,0.2080078125,0.94921875
897,3.001,IMU0,2.3170731707317076,8.902439024390244,-9.817073170731708,-0.033203125,0.216796875,0.9443359375
898,3.001,IMU1,-0.1829268292682927,0.7926829268292683,-0.06097560975609757,-0.046875,0.185546875,0.935546875
899,3.001,IMU2,-0.426829268292683,0.1829268292682927,0.1829268292682927,-0.0341796875,0.208984375,0.9501953125
900,3.011,IMU0,2.3170731707317076,8.963414634146343,-9.817073170731708,-0.0341796875,0.216796875,0.9443359375
901,3.011,IMU1,-0.1829268292682927,0.7926829268292683,-0.06097560975609757,-0.0478515625,0.185546875,0.9375
902,3.011,IMU2,-0.426829268292683,0.1829268292682927,0.1829268292682927,-0.033203125,0.2080078125,0.9501953125
903,3.021,IMU0,2.378048780487805,8.841463414634147,-9.695121951219512,-0.03515625,0.2177734375,0.9443359375
904,3.021,IMU1,-0.1829268292682927,0.7317073170731708,-0.06097560975609757,-0.0478515625,0.185546875,0.9345703125
905,3.021,IMU2,-0.426829268292683,0.12195121951219513,0.1829268292682927,-0.0341796875,0.2080078125,0.951171875
906,3.031,IMU0,2.3170731707317076,8.902439024390244,-9.634146341463415,-0.0341796875,0.2177734375,0.9443359375
907,3.031,IMU1,-0.1829268292682927,0.7926829268292683,-0.06097560975609757,-0.0478515625,0.185546875,0.935546875
908,3.031,IMU2,-0.426829268292683,0.12195121951219513,0.1829268292682927,-0.0341796875,0.2080078125,0.951171875
909,3.041,IMU0,2.3170731707317076,8.902439024390244,-9.634146341463415,-0.0341796875,0.2177734375,0.9453125
910,3.041,IMU1,-0.1829268292682927,0.7926829268292683,-0.06097560975609757,-0.0478515625,0.1845703125,0.935546875
911,3.041,IMU2,-0.3658536585365854,0.12195121951219513,0.1829268292682927,-0.03515625,0.208984375,0.94921875
912,3.051,IMU0,2.3170731707317076,8.902439024390244,-9.634146341463415,-0.0341796875,0.2177734375,0.9443359375
913,3.051,IMU1,-0.1829268292682927,0.7317073170731708,-0.06097560975609757,-0.046875,0.1845703125,0.935546875
914,3.051,IMU2,-0.30487804878048785,0.1829268292682927,0.1829268292682927,-0.0341796875,0.208984375,0.9501953125
915,3.061,IMU0,2.3170731707317076,8.841463414634147,-9.695121951219512,-0.03515625,0.216796875,0.943359375
916,3.061,IMU1,-0.1829268292682927,0.7317073170731708,-0.06097560975609757,-0.046875,0.185546875,0.935546875
917,3.061,IMU2,-0.30487804878048785,0.12195121951219513,0.1829268292682927,-0.0341796875,0.2080078125,0.94921875
918,3.071,IMU0,2.3170731707317076,8.902439024390244,-9.695121951219512,-0.0341796875,0.216796875,0.9423828125
919,3.071,IMU1,-0.1829268292682927,0.7317073170731708,-0.06097560975609757,-0.0478515625,0.185546875,0.9345703125
920,3.071,IMU2,-0.30487804878048785,0.12195121951219513,0.1829268292682927,-0.033203125,0.20703125,0.9501953125
921,3.081,IMU0,2.3170731707317076,8.902439024390244,-9.695121951219512,-0.0341796875,0.21875,0.9423828125
922,3.081,IMU1,-0.1829268292682927,0.7926829268292683,-0.12195121951219513,-0.048828125,0.185546875,0.93359375
923,3.081,IMU2,-0.3658536585365854,0.12195121951219513,0.1829268292682927,-0.0322265625,0.20703125,0.9482421875
924,3.091,IMU0,2.3170731707317076,8.963414634146343,-9.634146341463415,-0.0341796875,0.21875,0.943359375
925,3.091,IMU1,-0.1829268292682927,0.7926829268292683,-0.06097560975609757,-0.048828125,0.185546875,0.93359375
926,3.091,IMU2,-0.3658536585365854,0.12195121951219513,0.1829268292682927,-0.033203125,0.20703125,0.9482421875
927,3.101,IMU0,2.3170731707317076,8.902439024390244,-9.695121951219512,-0.03515625,0.2177734375,0.9443359375
928,3.101,IMU1,-0.1829268292682927,0.7926829268292683,-0.06097560975609757,-0.048828125,0.185546875,0.93359375
929,3.101,IMU2,-0.30487804878048785,0.12195121951219513,0.24390243902439027,-0.033203125,0.208984375,0.9482421875
930,3.111,IMU0,2.3170731707317076,8.902439024390244,-9.695121951219512,-0.03515625,0.2177734375,0.9443359375
931,3.111,IMU1,-0.1829268292682927,0.7926829268292683,-0.06097560975609757,-0.0478515625,0.1845703125,0.935546875
932,3.111,IMU2,-0.30487804878048785,0.12195121951219513,0.1829268292682927,-0.033203125,0.2099609375,0.9482421875
933,3.121,IMU0,2.25609756097561,8.902439024390244,-9.695121951219512,-0.03515625,0.21875,0.943359375
934,3.121,IMU1,-0.1829268292682927,0.7926829268292683,-0.06097560975609757,-0.048828125,0.1845703125,0.9345703125
935,3.121,IMU2,-0.426829268292683,0.1829268292682927,0.1829268292682927,-0.033203125,0.208984375,0.94921875
936,3.131,IMU0,2.25609756097561,8.963414634146343,-9.695121951219512,-0.0341796875,0.21875,0.9443359375
937,3.131,IMU1,-0.12195121951219513,0.7926829268292683,-0.06097560975609757,-0.048828125,0.1845703125,0.9345703125
938,3.131,IMU2,-0.3658536585365854,0.1829268292682927,0.1829268292682927,-0.0341796875,0.208984375,0.9501953125
939,3.141,IMU0,2.25609756097561,8.963414634146343,-9.695121951219512,-0.033203125,0.21875,0.9443359375
940,3.141,IMU1,-0.1829268292682927,0.7926829268292683,-0.06097560975609757,-0.048828125,0.1845703125,0.9345703125
941,3.141,IMU2,-0.3658536585365854,0.12195121951219513,0.1829268292682927,-0.033203125,0.208984375,0.94921875
942,3.151,IMU0,2.25609756097561,8.902439024390244,-9.756097560975611,-0.0341796875,0.2158203125,0.943359375
943,3.151,IMU1,-0.12195121951219513,0.7926829268292683,-0.06097560975609757,-0.048828125,0.1845703125,0.9345703125
944,3.151,IMU2,-0.426829268292683,0.12195121951219513,0.1829268292682927,-0.033203125,0.2080078125,0.9501953125
945,3.161,IMU0,2.25609756097561,8.902439024390244,-9.756097560975611,-0.033203125,0.216796875,0.943359375
946,3.161,IMU1,-0.12195121951219513,0.7926829268292683,-0.06097560975609757,-0.048828125,0.185546875,0.935546875
947,3.161,IMU2,-0.3658536585365854,0.06097560975609757,0.1829268292682927,-0.033203125,0.2080078125,0.9501953125
948,3.171,IMU0,2.25609756097561,8.963414634146343,-9.634146341463415,-0.0341796875,0.2177734375,0.9443359375
949,3.171,IMU1,-0.1829268292682927,0.7317073170731708,0.0,-0.0478515625,0.1865234375,0.93359375
950,3.171,IMU2,-0.3658536585365854,0.12195121951219513,0.1829268292682927,-0.033203125,0.208984375,0.94921875
951,3.181,IMU0,2.25609756097561,8.963414634146343,-9.634146341463415,-0.03515625,0.2177734375,0.9443359375
952,3.181,IMU1,-0.1829268292682927,0.7926829268292683,0.0,-0.0478515625,0.185546875,0.93359375
953,3.181,IMU2,-0.48780487804878053,0.06097560975609757,0.1829268292682927,-0.0341796875,0.208984375,0.9501953125
954,3.191,IMU0,2.3170731707317076,8.963414634146343,-9.695121951219512,-0.0341796875,0.2177734375,0.9423828125
955,3.191,IMU1,-0.1829268292682927,0.7926829268292683,0.0,-0.0478515625,0.185546875,0.93359375
956,3.191,IMU2,-0.426829268292683,0.06097560975609757,0.1829268292682927,-0.033203125,0.208984375,0.951171875
957,3.201,IMU0,2.3170731707317076,8.902439024390244,-9.695121951219512,-0.0341796875,0.21875,0.943359375
958,3.201,IMU1,-0.24390243902439027,0.7926829268292683,-0.12195121951219513,-0.0478515625,0.1865234375,0.935546875
959,3.201,IMU2,-0.426829268292683,0.1829268292682927,0.1829268292682927,-0.033203125,0.208984375,0.951171875
960,3.211,IMU0,2.25609756097561,8.902439024390244,-9.634146341463415,-0.0341796875,0.2177734375,0.943359375
961,3.211,IMU1,-0.24390243902439027,0.7317073170731708,-0.06097560975609757,-0.046875,0.185546875,0.9345703125
962,3.211,IMU2,-0.3658536585365854,0.12195121951219513,0.24390243902439027,-0.033203125,0.2080078125,0.9501953125
963,3.221,IMU0,2.3170731707317076,8.963414634146343,-9.573170731707318,-0.0341796875,0.21875,0.943359375
964,3.221,IMU1,-0.24390243902439027,0.7926829268292683,-0.06097560975609757,-0.0478515625,0.185546875,0.935546875
965,3.221,IMU2,-0.3658536585365854,0.12195121951219513,0.24390243902439027,-0.0341796875,0.208984375,0.94921875
966,3.231,IMU0,2.25609756097561,8.902439024390244,-9.634146341463415,-0.0341796875,0.2177734375,0.9423828125
967,3.231,IMU1,-0.24390243902439027,0.7926829268292683,-0.06097560975609757,-0.0478515625,0.1845703125,0.9326171875
968,3.231,IMU2,-0.3658536585365854,0.12195121951219513,0.24390243902439027,-0.0341796875,0.208984375,0.951171875
969,3.241,IMU0,2.25609756097561,8.841463414634147,-9.695121951219512,-0.033203125,0.21875,0.9423828125
970,3.241,IMU1,-0.1829268292682927,0.7317073170731708,-0.06097560975609757,-0.048828125,0.185546875,0.9345703125
971,3.241,IMU2,-0.3658536585365854,0.12195121951219513,0.1829268292682927,-0.0341796875,0.2080078125,0.9501953125
972,3.251,IMU0,2.3170731707317076,8.902439024390244,-9.756097560975611,-0.0341796875,0.216796875,0.943359375
973,3.251,IMU1,-0.1829268292682927,0.7317073170731708,-0.06097560975609757,-0.048828125,0.1845703125,0.9345703125
974,3.251,IMU2,-0.426829268292683,0.12195121951219513,0.1829268292682927,-0.033203125,0.2080078125,0.94921875
975,3.261,IMU0,2.3170731707317076,8.902439024390244,-9.695121951219512,-0.033203125,0.2177734375,0.9443359375
976,3.261,IMU1,-0.1829268292682927,0.7317073170731708,-0.06097560975609757,-0.0498046875,0.1845703125,0.935546875
977,3.261,IMU2,-0.3658536585365854,0.12195121951219513,0.1829268292682927,-0.033203125,0.2080078125,0.94921875
978,3.271,IMU0,2.25609756097561,8.963414634146343,-9.695121951219512,-0.0341796875,0.21875,0.9453125
979,3.271,IMU1,-0.1829268292682927,0.7926829268292683,-0.06097560975609757,-0.048828125,0.185546875,0.935546875
980,3.271,IMU2,-0.426829268292683,0.12195121951219513,0.1829268292682927,-0.033203125,0.2080078125,0.9501953125
981,3.281,IMU0,2.25609756097561,8.963414634146343,-9.634146341463415,-0.03515625,0.21875,0.9453125
982,3.281,IMU1,-0.1829268292682927,0.7317073170731708,-0.06097560975609757,-0.048828125,0.185546875,0.935546875
983,3.281,IMU2,-0.426829268292683,0.1829268292682927,0.12195121951219513,-0.033203125,0.208984375,0.9501953125
984,3.291,IMU0,2.25609756097561,8.963414634146343,-9.695121951219512,-0.0341796875,0.2177734375,0.9453125
985,3.291,IMU1,-0.1829268292682927,0.7317073170731708,0.0,-0.048828125,0.185546875,0.9345703125
986,3.291,IMU2,-0.3658536585365854,0.12195121951219513,0.12195121951219513,-0.0322265625,0.2080078125,0.951171875
987,3.301,IMU0,2.25609756097561,8.902439024390244,-9.695121951219512,-0.033203125,0.216796875,0.9443359375
988,3.301,IMU1,-0.1829268292682927,0.7317073170731708,0.0,-0.046875,0.185546875,0.93359375
989,3.301,IMU2,-0.3658536585365854,0.1829268292682927,0.12195121951219513,-0.033203125,0.2080078125,0.951171875
990,3.311,IMU0,2.25609756097561,8.902439024390244,-9.756097560975611,-0.0341796875,0.2177734375,0.9443359375
991,3.311,IMU1,-0.1829268292682927,0.7317073170731708,0.0,-0.0478515625,0.185546875,0.93359375
992,3.311,IMU2,-0.3658536585365854,0.12195121951219513,0.1829268292682927,-0.033203125,0.2080078125,0.951171875
993,3.321,IMU0,2.25609756097561,8.902439024390244,-9.756097560975611,-0.0361328125,0.2177734375,0.9453125
994,3.321,IMU1,-0.1829268292682927,0.7926829268292683,0.0,-0.046875,0.1845703125,0.9345703125
995,3.321,IMU2,-0.3658536585365854,0.12195121951219513,0.1829268292682927,-0.033203125,0.2080078125,0.94921875
996,3.331,IMU0,2.25609756097561,8.902439024390244,-9.756097560975611,-0.0361328125,0.2177734375,0.9423828125
997,3.331,IMU1,-0.1829268292682927,0.7317073170731708,0.0,-0.046875,0.185546875,0.9326171875
998,3.331,IMU2,-0.3658536585365854,0.12195121951219513,0.1829268292682927,-0.0341796875,0.20703125,0.94921875
999,3.341,IMU0,2.1951219512195124,8.841463414634147,-9.817073170731708,-0.03515625,0.2177734375,0.9443359375
1000,3.341,IMU1,-0.1829268292682927,0.7317073170731708,-0.06097560975609757,-0.0478515625,0.1845703125,0.9345703125
1001,3.341,IMU2,-0.3658536585365854,0.1829268292682927,0.24390243902439027,-0.033203125,0.208984375,0.94921875
1002,3.351,IMU0,2.1951219512195124,8.902439024390244,-9.756097560975611,-0.03515625,0.2177734375,0.9443359375
1003,3.351,IMU1,-0.1829268292682927,0.7317073170731708,-0.06097560975609757,-0.048828125,0.185546875,0.93359375
1004,3.351,IMU2,-0.3658536585365854,0.1829268292682927,0.1829268292682927,-0.0322265625,0.208984375,0.94921875
1005,3.361,IMU0,2.3170731707317076,8.902439024390244,-9.695121951219512,-0.0341796875,0.2177734375,0.9462890625
1006,3.361,IMU1,-0.1829268292682927,0.7317073170731708,-0.06097560975609757,-0.048828125,0.185546875,0.935546875
1007,3.361,IMU2,-0.30487804878048785,0.12195121951219513,0.1829268292682927,-0.03125,0.2080078125,0.94921875
1008,3.371,IMU0,2.3170731707317076,8.902439024390244,-9.756097560975611,-0.03515625,0.2177734375,0.943359375
1009,3.371,IMU1,-0.1829268292682927,0.7926829268292683,-0.06097560975609757,-0.048828125,0.185546875,0.935546875
1010,3.371,IMU2,-0.3658536585365854,0.12195121951219513,0.1829268292682927,-0.033203125,0.2080078125,0.9501953125
1011,3.381,IMU0,2.3170731707317076,8.902439024390244,-9.817073170731708,-0.0341796875,0.21875,0.9443359375
1012,3.381,IMU1,-0.24390243902439027,0.7926829268292683,-0.06097560975609757,-0.0478515625,0.1845703125,0.93359375
1013,3.381,IMU2,-0.426829268292683,0.1829268292682927,0.1829268292682927,-0.033203125,0.208984375,0.9501953125
1014,3.391,IMU0,2.3170731707317076,8.902439024390244,-9.878048780487806,-0.0341796875,0.2177734375,0.943359375
1015,3.391,IMU1,-0.1829268292682927,0.7317073170731708,-0.06097560975609757,-0.0478515625,0.185546875,0.9345703125
1016,3.391,IMU2,-0.3658536585365854,0.1829268292682927,0.1829268292682927,-0.033203125,0.208984375,0.9501953125
1017,3.401,IMU0,2.3170731707317076,8.902439024390244,-9.756097560975611,-0.0341796875,0.2177734375,0.943359375
1018,3.401,IMU1,-0.1829268292682927,0.853658536585366,-0.06097560975609757,-0.048828125,0.185546875,0.9345703125
1019,3.401,IMU2,-0.3658536585365854,0.12195121951219513,0.24390243902439027,-0.0341796875,0.2099609375,0.9501953125
1020,3.411,IMU0,2.25609756097561,8.902439024390244,-9.695121951219512,-0.03515625,0.2177734375,0.943359375
1021,3.411,IMU1,-0.1829268292682927,0.7926829268292683,0.0,-0.0498046875,0.185546875,0.9345703125
1022,3.411,IMU2,-0.30487804878048785,0.1829268292682927,0.24390243902439027,-0.033203125,0.208984375,0.9501953125
1023,3.421,IMU0,2.25609756097561,8.963414634146343,-9.756097560975611,-0.0341796875,0.2177734375,0.9462890625
1024,3.421,IMU1,-0.12195121951219513,0.7926829268292683,-0.06097560975609757,-0.048828125,0.185546875,0.935546875
1025,3.421,IMU2,-0.3658536585365854,0.1829268292682927,0.1829268292682927,-0.033203125,0.208984375,0.9501953125
1026,3.431,IMU0,2.25609756097561,8.902439024390244,-9.695121951219512,-0.0341796875,0.2177734375,0.9453125
1027,3.431,IMU1,-0.1829268292682927,0.7317073170731708,-0.06097560975609757,-0.048828125,0.1865234375,0.9345703125
1028,3.431,IMU2,-0.3658536585365854,0.12195121951219513,0.24390243902439027,-0.0341796875,0.208984375,0.951171875
1029,3.441,IMU0,2.25609756097561,8.902439024390244,-9.756097560975611,-0.0341796875,0.2177734375,0.943359375
1030,3.441,IMU1,-0.1829268292682927,0.7317073170731708,-0.06097560975609757,-0.0498046875,0.185546875,0.9345703125
1031,3.441,IMU2,-0.426829268292683,0.06097560975609757,0.24390243902439027,-0.033203125,0.2080078125,0.9501953125
1032,3.451,IMU0,2.25609756097561,8.902439024390244,-9.695121951219512,-0.03515625,0.21875,0.9443359375
1033,3.451,IMU1,-0.1829268292682927,0.7926829268292683,0.0,-0.0478515625,0.185546875,0.93359375
1034,3.451,IMU2,-0.48780487804878053,0.12195121951219513,0.24390243902439027,-0.0341796875,0.2080078125,0.9501953125
1035,3.461,IMU0,2.25609756097561,8.963414634146343,-9.695121951219512,-0.03515625,0.2177734375,0.9423828125
1036,3.461,IMU1,-0.1829268292682927,0.7317073170731708,-0.06097560975609757,-0.0478515625,0.185546875,0.9345703125
1037,3.461,IMU2,-0.426829268292683,0.12195121951219513,0.1829268292682927,-0.0341796875,0.2080078125,0.9501953125
1038,3.471,IMU0,2.25609756097561,8.963414634146343,-9.756097560975611,-0.0341796875,0.21875,0.9443359375
1039,3.471,IMU1,-0.1829268292682927,0.7926829268292683,-0.06097560975609757,-0.048828125,0.1865234375,0.9345703125
1040,3.471,IMU2,-0.426829268292683,0.24390243902439027,0.1829268292682927,-0.033203125,0.2080078125,0.9501953125
1041,3.481,IMU0,2.25609756097561,8.902439024390244,-9.695121951219512,-0.033203125,0.21875,0.9443359375
1042,3.481,IMU1,-0.12195121951219513,0.7926829268292683,0.0,-0.048828125,0.1865234375,0.93359375
1043,3.481,IMU2,-0.426829268292683,0.1829268292682927,0.1829268292682927,-0.0341796875,0.208984375,0.9501953125
1044,3.491,IMU0,2.25609756097561,8.841463414634147,-9.756097560975611,-0.033203125,0.21875,0.943359375
1045,3.491,IMU1,-0.12195121951219513,0.7926829268292683,-0.06097560975609757,-0.048828125,0.185546875,0.93359375
1046,3.491,IMU2,-0.48780487804878053,0.1829268292682927,0.12195121951219513,-0.033203125,0.2080078125,0.951171875
1047,3.501,IMU0,2.25609756097561,8.841463414634147,-9.817073170731708,-0.0341796875,0.2177734375,0.943359375
1048,3.501,IMU1,-0.12195121951219513,0.7926829268292683,-0.06097560975609757,-0.048828125,0.185546875,0.93359375
1049,3.501,IMU2,-0.48780487804878053,0.1829268292682927,0.12195121951219513,-0.033203125,0.2080078125,0.947265625
1050,3.511,IMU0,2.25609756097561,8.902439024390244,-9.878048780487806,-0.0341796875,0.2177734375,0.943359375
1051,3.511,IMU1,-0.12195121951219513,0.7926829268292683,-0.06097560975609757,-0.0478515625,0.1865234375,0.9326171875
1052,3.511,IMU2,-0.426829268292683,0.1829268292682927,0.1829268292682927,-0.033203125,0.2080078125,0.94921875
1053,3.521,IMU0,2.25609756097561,8.902439024390244,-9.817073170731708,-0.0341796875,0.2177734375,0.943359375
1054,3.521,IMU1,-0.12195121951219513,0.7926829268292683,-0.06097560975609757,-0.0478515625,0.185546875,0.93359375
1055,3.521,IMU2,-0.3658536585365854,0.12195121951219513,0.12195121951219513,-0.0341796875,0.2080078125,0.9501953125
1056,3.531,IMU0,2.3170731707317076,8.902439024390244,-9.756097560975611,-0.0341796875,0.2177734375,0.9443359375
1057,3.531,IMU1,-0.1829268292682927,0.7926829268292683,0.0,-0.048828125,0.1845703125,0.93359375
1058,3.531,IMU2,-0.426829268292683,0.1829268292682927,0.1829268292682927,-0.0341796875,0.208984375,0.9501953125
1059,3.541,IMU0,2.3170731707317076,8.902439024390244,-9.878048780487806,-0.0341796875,0.2177734375,0.9423828125
1060,3.541,IMU1,-0.1829268292682927,0.7926829268292683,0.0,-0.048828125,0.185546875,0.9326171875
1061,3.541,IMU2,-0.426829268292683,0.12195121951219513,0.1829268292682927,-0.03515625,0.208984375,0.9501953125
1062,3.551,IMU0,2.3170731707317076,8.902439024390244,-9.878048780487806,-0.03515625,0.2177734375,0.9423828125
1063,3.551,IMU1,-0.1829268292682927,0.7317073170731708,0.0,-0.0478515625,0.1845703125,0.931640625
1064,3.551,IMU2,-0.426829268292683,0.1829268292682927,0.1829268292682927,-0.03515625,0.208984375,0.951171875
1065,3.561,IMU0,2.3170731707317076,8.963414634146343,-9.939024390243903,-0.03515625,0.2177734375,0.9443359375
1066,3.561,IMU1,-0.1829268292682927,0.7317073170731708,0.0,-0.048828125,0.1845703125,0.9326171875
1067,3.561,IMU2,-0.426829268292683,0.1829268292682927,0.1829268292682927,-0.0341796875,0.208984375,0.951171875
1068,3.571,IMU0,2.25609756097561,8.963414634146343,-9.878048780487806,-0.0341796875,0.21875,0.943359375
1069,3.571,IMU1,-0.1829268292682927,0.6097560975609757,0.0,-0.048828125,0.1845703125,0.9326171875
1070,3.571,IMU2,-0.3658536585365854,0.1829268292682927,0.24390243902439027,-0.0341796875,0.208984375,0.951171875
1071,3.581,IMU0,2.3170731707317076,8.902439024390244,-9.756097560975611,-0.033203125,0.21875,0.9423828125
1072,3.581,IMU1,-0.1829268292682927,0.7317073170731708,-0.06097560975609757,-0.046875,0.1845703125,0.9345703125
1073,3.581,IMU2,-0.3658536585365854,0.12195121951219513,0.1829268292682927,-0.033203125,0.208984375,0.9501953125
1074,3.591,IMU0,2.3170731707317076,8.902439024390244,-9.756097560975611,-0.033203125,0.21875,0.9443359375
1075,3.591,IMU1,-0.1829268292682927,0.7317073170731708,-0.06097560975609757,-0.0478515625,0.1845703125,0.93359375
1076,3.591,IMU2,-0.426829268292683,0.12195121951219513,0.1829268292682927,-0.033203125,0.20703125,0.9501953125
1077,3.601,IMU0,2.3170731707317076,8.902439024390244,-9.756097560975611,-0.03515625,0.2177734375,0.943359375
1078,3.601,IMU1,-0.1829268292682927,0.7926829268292683,-0.06097560975609757,-0.0478515625,0.1845703125,0.93359375
1079,3.601,IMU2,-0.426829268292683,0.12195121951219513,0.1829268292682927,-0.033203125,0.20703125,0.9501953125
1080,3.611,IMU0,2.25609756097561,8.963414634146343,-9.817073170731708,-0.0341796875,0.2177734375,0.943359375
1081,3.611,IMU1,-0.1829268292682927,0.7317073170731708,-0.06097560975609757,-0.0478515625,0.185546875,0.9345703125
1082,3.611,IMU2,-0.426829268292683,0.12195121951219513,0.1829268292682927,-0.0341796875,0.2080078125,0.951171875
1083,3.621,IMU0,2.3170731707317076,8.902439024390244,-9.695121951219512,-0.0341796875,0.216796875,0.9453125
1084,3.621,IMU1,-0.1829268292682927,0.7317073170731708,-0.06097560975609757,-0.048828125,0.1845703125,0.93359375
1085,3.621,IMU2,-0.3658536585365854,0.12195121951219513,0.12195121951219513,-0.0341796875,0.208984375,0.951171875
1086,3.631,IMU0,2.3170731707317076,8.963414634146343,-9.695121951219512,-0.0341796875,0.216796875,0.9443359375
1087,3.631,IMU1,-0.1829268292682927,0.7317073170731708,-0.06097560975609757,-0.0498046875,0.185546875,0.9345703125
1088,3.631,IMU2,-0.3658536585365854,0.12195121951219513,0.12195121951219513,-0.0341796875,0.208984375,0.9501953125
1089,3.641,IMU0,2.3170731707317076,8.963414634146343,-9.756097560975611,-0.033203125,0.2177734375,0.9453125
1090,3.641,IMU1,-0.24390243902439027,0.7317073170731708,-0.06097560975609757,-0.048828125,0.185546875,0.9345703125
1091,3.641,IMU2,-0.3658536585365854,0.1829268292682927,0.12195121951219513,-0.0341796875,0.208984375,0.9501953125
1092,3.651,IMU0,2.25609756097561,8.963414634146343,-9.695121951219512,-0.033203125,0.2177734375,0.9423828125
1093,3.651,IMU1,-0.24390243902439027,0.7317073170731708,-0.06097560975609757,-0.048828125,0.185546875,0.9345703125
1094,3.651,IMU2,-0.3658536585365854,0.1829268292682927,0.12195121951219513,-0.033203125,0.2080078125,0.9501953125
1095,3.661,IMU0,2.3170731707317076,8.963414634146343,-9.695121951219512,-0.0341796875,0.216796875,0.94140625
1096,3.661,IMU1,-0.24390243902439027,0.7317073170731708,-0.06097560975609757,-0.0478515625,0.1845703125,0.9345703125
1097,3.661,IMU2,-0.426829268292683,0.1829268292682927,0.12195121951219513,-0.033203125,0.20703125,0.9501953125
1098,3.671,IMU0,2.3170731707317076,8.902439024390244,-9.817073170731708,-0.0341796875,0.2177734375,0.939453125
1099,3.671,IMU1,-0.24390243902439027,0.7926829268292683,-0.06097560975609757,-0.0478515625,0.1845703125,0.9345703125
