,ts,id,Ax,Ay,Az,Gx,Gy,Gz
0,-0.745,IMU0,-0.0048828125,0.48974609375,-0.0595703125,1.2605042016806722,-1.7507002801120448,-0.2801120448179272
1,-0.735,IMU0,-0.0048828125,0.48779296875,-0.06298828125,1.3305322128851542,-1.3305322128851542,-0.2801120448179272
2,-0.725,IMU0,0.0048828125,0.494140625,-0.06787109375,1.3305322128851542,-2.100840336134454,-0.2801120448179272
3,-0.715,IMU0,0.0107421875,0.48974609375,-0.064453125,1.1904761904761905,-2.100840336134454,-0.21008403361344538
4,-0.705,IMU0,-0.0126953125,0.5009765625,-0.0576171875,1.1204481792717087,-0.2801120448179272,-0.21008403361344538
5,-0.695,IMU0,0.0625,0.478515625,-0.07568359375,1.400560224089636,9.453781512605042,-0.21008403361344538
6,-0.685,IMU0,-0.0029296875,0.490234375,-0.0693359375,1.050420168067227,12.114845938375352,-0.0700280112044818
7,-0.675,IMU0,0.00732421875,0.505859375,-0.04931640625,1.1904761904761905,13.025210084033613,-0.4901960784313726
8,-0.665,IMU0,0.015625,0.4677734375,-0.0400390625,1.2605042016806722,7.773109243697479,-0.6302521008403361
9,-0.655,IMU0,0.017578125,0.46435546875,-0.03759765625,1.3305322128851542,1.5406162464985995,-0.8403361344537815
10,-0.645,IMU0,-0.01708984375,0.478515625,-0.09912109375,0.9103641456582633,-0.1400560224089636,-0.350140056022409
11,-0.635,IMU0,-0.0380859375,0.4921875,-0.03173828125,1.2605042016806722,0.350140056022409,-0.21008403361344538
12,-0.625,IMU0,0.04150390625,0.5048828125,-0.0537109375,1.2605042016806722,1.1904761904761905,-0.0700280112044818
13,-0.615,IMU0,-0.00341796875,0.4853515625,-0.07666015625,1.5406162464985995,-4.901960784313726,0.0
14,-0.605,IMU0,0.005859375,0.50439453125,-0.04541015625,0.9803921568627452,-7.072829131652662,-0.1400560224089636
15,-0.595,IMU0,-0.00537109375,0.4921875,-0.0341796875,1.400560224089636,-8.123249299719888,-0.1400560224089636
16,-0.585,IMU0,-0.00439453125,0.484375,-0.09033203125,1.400560224089636,-5.322128851540617,-0.0700280112044818
17,-0.575,IMU0,0.02197265625,0.49365234375,-0.05810546875,1.1204481792717087,-1.680672268907563,0.0
18,-0.565,IMU0,0.00732421875,0.486328125,-0.0537109375,1.3305322128851542,-0.9803921568627452,0.0
19,-0.555,IMU0,0.00537109375,0.4912109375,-0.056640625,1.2605042016806722,0.0,-0.1400560224089636
20,-0.545,IMU0,0.025390625,0.48681640625,-0.0595703125,1.1904761904761905,0.9803921568627452,-0.2801120448179272
21,-0.535,IMU0,-0.015625,0.4921875,-0.072265625,1.1904761904761905,2.170868347338936,-0.350140056022409
22,-0.525,IMU0,0.01611328125,0.494140625,-0.06005859375,1.1904761904761905,4.481792717086835,-0.42016806722689076
23,-0.515,IMU0,0.0185546875,0.49072265625,-0.05859375,1.1904761904761905,3.151260504201681,-0.350140056022409
24,-0.505,IMU0,-0.02685546875,0.4921875,-0.06640625,1.1204481792717087,2.8711484593837535,-0.2801120448179272
25,-0.495,IMU0,0.02001953125,0.4931640625,-0.03564453125,1.1204481792717087,4.551820728291316,-0.42016806722689076
26,-0.485,IMU0,-0.00830078125,0.49072265625,-0.06201171875,1.2605042016806722,1.4705882352941178,-0.350140056022409
27,-0.475,IMU0,0.015625,0.48974609375,-0.05517578125,1.1904761904761905,-0.350140056022409,-0.2801120448179272
28,-0.465,IMU0,0.00048828125,0.4892578125,-0.05859375,1.2605042016806722,-3.2913165266106446,-0.2801120448179272
29,-0.455,IMU0,-0.0107421875,0.49072265625,-0.0634765625,1.2605042016806722,-3.2913165266106446,-0.350140056022409
30,-0.445,IMU0,0.0126953125,0.49267578125,-0.06201171875,1.3305322128851542,-1.5406162464985995,-0.350140056022409
31,-0.435,IMU0,0.001953125,0.49169921875,-0.05029296875,1.2605042016806722,-0.9803921568627452,-0.1400560224089636
32,-0.425,IMU0,0.0107421875,0.4921875,-0.064453125,1.2605042016806722,-0.42016806722689076,-0.0700280112044818
33,-0.415,IMU0,0.00732421875,0.4921875,-0.0498046875,1.1904761904761905,-0.1400560224089636,-0.1400560224089636
34,-0.405,IMU0,0.009765625,0.48974609375,-0.06884765625,1.1904761904761905,0.9103641456582633,-0.350140056022409
35,-0.395,IMU0,0.013671875,0.48876953125,-0.05615234375,1.1904761904761905,1.1204481792717087,-0.42016806722689076
36,-0.385,IMU0,-0.0126953125,0.48828125,-0.05517578125,1.1204481792717087,1.050420168067227,-0.350140056022409
37,-0.375,IMU0,-0.00244140625,0.490234375,-0.0751953125,1.1904761904761905,4.341736694677872,-0.42016806722689076
38,-0.365,IMU0,0.0029296875,0.4921875,-0.05126953125,1.050420168067227,5.2521008403361344,-0.42016806722689076
39,-0.355,IMU0,-0.00390625,0.4912109375,-0.05126953125,1.1204481792717087,3.711484593837535,-0.4901960784313726
40,-0.345,IMU0,0.015625,0.4921875,-0.05908203125,1.2605042016806722,0.9103641456582633,-0.2801120448179272
41,-0.335,IMU0,-0.005859375,0.4912109375,-0.04931640625,1.2605042016806722,-2.801120448179272,-0.21008403361344538
42,-0.325,IMU0,0.00830078125,0.4931640625,-0.05615234375,1.3305322128851542,-4.341736694677872,-0.21008403361344538
43,-0.315,IMU0,0.00537109375,0.48974609375,-0.0634765625,1.3305322128851542,-4.341736694677872,-0.2801120448179272
44,-0.305,IMU0,0.00830078125,0.48583984375,-0.0517578125,1.2605042016806722,-3.081232492997199,-0.1400560224089636
45,-0.295,IMU0,0.009765625,0.49072265625,-0.06640625,1.3305322128851542,-1.2605042016806722,-0.1400560224089636
46,-0.285,IMU0,0.00634765625,0.4912109375,-0.0625,1.1904761904761905,1.400560224089636,-0.2801120448179272
47,-0.275,IMU0,0.01220703125,0.4921875,-0.06103515625,1.1904761904761905,3.5714285714285716,-0.42016806722689076
48,-0.265,IMU0,0.02099609375,0.49365234375,-0.060546875,1.1204481792717087,3.151260504201681,-0.4901960784313726
49,-0.255,IMU0,-0.01171875,0.4921875,-0.05615234375,1.2605042016806722,1.9607843137254903,-0.4901960784313726
50,-0.245,IMU0,0.00146484375,0.49267578125,-0.05517578125,1.1904761904761905,2.5910364145658265,-0.4901960784313726
51,-0.235,IMU0,0.00048828125,0.48828125,-0.05712890625,1.1904761904761905,2.2408963585434174,-0.4901960784313726
52,-0.225,IMU0,-0.009765625,0.4912109375,-0.05615234375,1.1204481792717087,1.9607843137254903,-0.350140056022409
53,-0.215,IMU0,0.021484375,0.49072265625,-0.06396484375,1.1904761904761905,1.1204481792717087,-0.2801120448179272
54,-0.205,IMU0,-0.00146484375,0.48974609375,-0.048828125,1.1904761904761905,-1.5406162464985995,-0.1400560224089636
55,-0.195,IMU0,-0.009765625,0.49169921875,-0.05322265625,1.2605042016806722,-2.8711484593837535,-0.21008403361344538
56,-0.185,IMU0,0.01611328125,0.4921875,-0.068359375,1.400560224089636,-2.030812324929972,-0.350140056022409
57,-0.175,IMU0,-0.0087890625,0.5,-0.056640625,0.9103641456582633,-2.450980392156863,-0.21008403361344538
58,-0.165,IMU0,0.0087890625,0.48388671875,-0.06298828125,0.9803921568627452,0.2801120448179272,-0.21008403361344538
59,-0.155,IMU0,0.01318359375,0.5068359375,-0.052734375,0.9803921568627452,1.4705882352941178,-0.1400560224089636
60,-0.145,IMU0,-0.01123046875,0.50244140625,-0.06689453125,1.3305322128851542,1.680672268907563,-0.21008403361344538
61,-0.135,IMU0,0.0224609375,0.6201171875,-0.0419921875,1.050420168067227,0.9103641456582633,-0.2801120448179272
62,-0.125,IMU0,0.0048828125,0.845703125,-0.07763671875,1.5406162464985995,-2.170868347338936,-0.350140056022409
63,-0.115,IMU0,-0.0078125,1.1513671875,-0.06884765625,0.7703081232492998,-3.641456582633053,-0.42016806722689076
64,-0.105,IMU0,0.0029296875,1.787109375,-0.0771484375,1.1904761904761905,1.680672268907563,-0.21008403361344538
65,-0.095,IMU0,-0.0107421875,2.0009765625,-0.01416015625,0.700280112044818,3.5014005602240896,-0.1400560224089636
66,-0.085,IMU0,0.00146484375,2.0546875,-0.0810546875,1.1204481792717087,-0.0700280112044818,-0.42016806722689076
67,-0.075,IMU0,-0.02880859375,2.0458984375,-0.09619140625,0.21008403361344538,-2.9411764705882355,-0.42016806722689076
68,-0.065,IMU0,-0.02294921875,2.04541015625,-0.08056640625,0.9103641456582633,0.7703081232492998,-0.42016806722689076
69,-0.055,IMU0,-0.00634765625,2.078125,-0.09521484375,1.4705882352941178,8.123249299719888,0.0
70,-0.045,IMU0,-0.00732421875,2.19677734375,-0.04443359375,1.2605042016806722,5.042016806722689,0.0700280112044818
71,-0.035,IMU0,-0.056640625,2.3173828125,-0.1044921875,0.9103641456582633,-0.350140056022409,0.0
72,-0.025,IMU0,-0.0146484375,2.46923828125,-0.05615234375,1.1204481792717087,5.6722689075630255,-0.1400560224089636
73,-0.015,IMU0,0.04052734375,2.63037109375,-0.07177734375,1.050420168067227,7.212885154061625,0.0
74,-0.005,IMU0,-0.0380859375,2.8232421875,-0.02734375,0.5602240896358543,-1.4705882352941178,0.2801120448179272
75,0.005,IMU0,-0.00732421875,3.16455078125,-0.0966796875,1.3305322128851542,-6.0924369747899165,0.42016806722689076
76,0.015,IMU0,-0.05908203125,3.4130859375,-0.09619140625,1.5406162464985995,-7.072829131652662,0.9803921568627452
77,0.025,IMU0,0.0087890625,3.44921875,-0.10546875,1.4705882352941178,-1.8907563025210086,0.350140056022409
78,0.035,IMU0,-0.046875,3.65087890625,-0.0615234375,1.1204481792717087,2.8711484593837535,0.1400560224089636
79,0.045,IMU0,0.01953125,3.8046875,-0.06201171875,1.5406162464985995,3.991596638655462,0.0
80,0.055,IMU0,-0.06005859375,3.873046875,-0.10498046875,1.400560224089636,-5.2521008403361344,0.2801120448179272
81,0.065,IMU0,-0.046875,3.81982421875,-0.13525390625,2.100840336134454,-1.8207282913165266,0.1400560224089636
82,0.075,IMU0,0.00537109375,3.71142578125,-0.11962890625,2.100840336134454,4.761904761904762,0.21008403361344538
83,0.085,IMU0,-0.02685546875,3.583984375,-0.06201171875,1.2605042016806722,2.030812324929972,0.4901960784313726
84,0.095,IMU0,-0.0078125,3.52490234375,-0.048828125,0.9803921568627452,1.5406162464985995,0.4901960784313726
85,0.105,IMU0,-0.06298828125,3.52880859375,-0.07275390625,1.3305322128851542,4.901960784313726,0.350140056022409
86,0.115,IMU0,-0.01611328125,3.60498046875,-0.05029296875,0.7703081232492998,4.621848739495799,0.350140056022409
87,0.125,IMU0,-0.0078125,3.65625,-0.119140625,0.9103641456582633,1.1904761904761905,0.42016806722689076
88,0.135,IMU0,0.04833984375,3.68994140625,-0.1171875,0.7703081232492998,-1.680672268907563,0.350140056022409
89,0.145,IMU0,-0.05712890625,3.70703125,-0.09130859375,0.6302521008403361,-3.781512605042017,0.0
90,0.155,IMU0,-0.029296875,3.67724609375,0.033203125,0.0,-1.5406162464985995,-0.4901960784313726
91,0.165,IMU0,-0.21435546875,3.5849609375,-0.09912109375,2.9411764705882355,-4.271708683473389,-0.700280112044818
92,0.175,IMU0,0.0263671875,3.5546875,-0.2919921875,-3.361344537815126,17.086834733893557,0.350140056022409
93,0.185,IMU0,0.0322265625,3.513671875,-0.05859375,-0.6302521008403361,12.46498599439776,1.5406162464985995
94,0.195,IMU0,-0.14501953125,3.70263671875,-0.103515625,-5.182072829131653,5.46218487394958,3.641456582633053
95,0.205,IMU0,0.02880859375,3.6650390625,-0.06103515625,-3.5714285714285716,2.9411764705882355,5.112044817927171
96,0.215,IMU0,-0.12646484375,3.89111328125,0.3388671875,-4.761904761904762,-0.0700280112044818,4.621848739495799
97,0.225,IMU0,0.12646484375,3.72509765625,-1.1162109375,-1.050420168067227,18.76750700280112,4.481792717086835
98,0.235,IMU0,-0.2431640625,3.74853515625,0.6240234375,-3.361344537815126,25.910364145658264,0.8403361344537815
99,0.245,IMU0,0.0478515625,3.79541015625,-0.8740234375,3.151260504201681,5.6722689075630255,-0.4901960784313726
100,0.255,IMU0,-0.20703125,3.89404296875,0.46435546875,-0.7703081232492998,-8.123249299719888,-1.3305322128851542
101,0.265,IMU0,0.052734375,3.77587890625,-0.52587890625,3.5014005602240896,-8.123249299719888,-1.1204481792717087
102,0.275,IMU0,-0.1396484375,3.7607421875,0.28271484375,-0.9103641456582633,-10.504201680672269,0.5602240896358543
103,0.285,IMU0,-0.04443359375,3.84130859375,-0.0712890625,1.050420168067227,-7.002801120448179,2.100840336134454
104,0.295,IMU0,-0.06005859375,3.84619140625,-0.2109375,0.0,-6.512605042016807,3.781512605042017
105,0.305,IMU0,0.015625,3.91650390625,-0.17041015625,0.0,-0.9103641456582633,3.781512605042017
106,0.315,IMU0,-0.0107421875,3.8759765625,0.06201171875,-0.9803921568627452,-4.481792717086835,3.8515406162464987
107,0.325,IMU0,-0.09619140625,3.79931640625,-0.470703125,-0.7703081232492998,-7.913165266106443,3.081232492997199
108,0.335,IMU0,0.0654296875,3.80859375,-0.22900390625,-11.69467787114846,-1.8907563025210086,1.4705882352941178
109,0.345,IMU0,-0.06103515625,3.8359375,0.017578125,-9.873949579831933,-15.19607843137255,-1.1204481792717087
110,0.355,IMU0,-0.07080078125,3.91064453125,-0.177734375,-16.106442577030812,-13.445378151260504,-0.8403361344537815
111,0.365,IMU0,0.16650390625,3.64697265625,-0.873046875,-3.5714285714285716,-28.50140056022409,-2.5910364145658265
112,0.375,IMU0,-0.0986328125,3.65966796875,0.81005859375,-1.680672268907563,-30.88235294117647,-2.2408963585434174
113,0.385,IMU0,-0.32373046875,3.7744140625,-1.20458984375,2.5210084033613445,-42.92717086834734,1.6106442577030813
114,0.395,IMU0,0.09619140625,3.62841796875,1.00537109375,0.5602240896358543,-4.621848739495799,2.450980392156863
115,0.405,IMU0,-0.19970703125,3.76611328125,-1.220703125,-4.621848739495799,-31.722689075630253,7.913165266106443
116,0.415,IMU0,-0.041015625,3.67724609375,0.306640625,-2.5910364145658265,31.372549019607845,5.392156862745098
117,0.425,IMU0,-0.17626953125,3.63427734375,-0.431640625,-1.1204481792717087,34.66386554621849,5.182072829131653
118,0.435,IMU0,0.14794921875,3.66162109375,0.005859375,1.9607843137254903,44.25770308123249,3.781512605042017
119,0.445,IMU0,-0.111328125,3.45361328125,-0.33349609375,4.901960784313726,42.50700280112045,2.170868347338936
120,0.455,IMU0,-0.27880859375,3.435546875,-0.00537109375,4.201680672268908,36.904761904761905,2.3109243697478994
121,0.465,IMU0,0.13818359375,3.3720703125,-0.18310546875,-1.1204481792717087,53.71148459383754,0.9803921568627452
122,0.475,IMU0,-0.126953125,3.36279296875,-0.20947265625,-6.0924369747899165,32.63305322128852,1.8907563025210086
123,0.485,IMU0,0.0595703125,3.54296875,-0.22412109375,-6.792717086834735,24.92997198879552,1.050420168067227
124,0.495,IMU0,-0.2275390625,3.4521484375,-0.33154296875,-5.602240896358544,3.011204481792717,0.42016806722689076
125,0.505,IMU0,-0.12109375,3.525390625,-0.0966796875,-3.361344537815126,-1.4705882352941178,0.9803921568627452
126,0.515,IMU0,0.01611328125,3.6142578125,-0.05029296875,0.2801120448179272,11.764705882352942,1.2605042016806722
127,0.525,IMU0,-0.0576171875,3.6650390625,-0.27392578125,2.100840336134454,11.554621848739496,1.8907563025210086
128,0.535,IMU0,-0.05517578125,3.64453125,0.06787109375,-1.3305322128851542,-3.011204481792717,1.8907563025210086
129,0.545,IMU0,0.06884765625,3.71435546875,0.1904296875,-1.4705882352941178,-7.703081232492997,1.400560224089636
130,0.555,IMU0,-0.07568359375,3.72509765625,-0.4013671875,-0.5602240896358543,-9.943977591036415,1.680672268907563
131,0.565,IMU0,-0.0205078125,3.71240234375,0.03125,-1.4705882352941178,-5.6722689075630255,1.050420168067227
132,0.575,IMU0,0.03955078125,3.71142578125,0.1611328125,-1.2605042016806722,-7.002801120448179,0.7703081232492998
133,0.585,IMU0,-0.0791015625,3.7236328125,-0.232421875,-1.2605042016806722,-9.243697478991598,0.7703081232492998
134,0.595,IMU0,-0.021484375,3.72998046875,-0.013671875,-2.3109243697478994,-6.862745098039216,0.2801120448179272
135,0.605,IMU0,0.01123046875,3.73095703125,0.0888671875,-1.8907563025210086,-8.473389355742297,0.1400560224089636
136,0.615,IMU0,-0.07177734375,3.732421875,-0.158203125,-1.680672268907563,-10.784313725490197,0.0700280112044818
137,0.625,IMU0,0.0078125,3.72802734375,-0.01953125,-2.2408963585434174,-9.313725490196079,-0.4901960784313726
138,0.635,IMU0,-0.01123046875,3.72705078125,0.03515625,-1.8907563025210086,-11.69467787114846,-0.5602240896358543
139,0.645,IMU0,-0.06591796875,3.728515625,-0.142578125,-1.6106442577030813,-14.075630252100842,-0.700280112044818
140,0.655,IMU0,-0.00244140625,3.72509765625,-0.00732421875,-2.100840336134454,-13.58543417366947,-1.2605042016806722
141,0.665,IMU0,-0.02294921875,3.73193359375,0.0205078125,-2.030812324929972,-15.756302521008404,-1.3305322128851542
142,0.675,IMU0,-0.03564453125,3.73193359375,-0.12548828125,-1.9607843137254903,-17.57703081232493,-1.5406162464985995
143,0.685,IMU0,-0.01611328125,3.73291015625,-0.00048828125,-2.2408963585434174,-17.647058823529413,-2.030812324929972
144,0.695,IMU0,-0.02392578125,3.7353515625,-0.00439453125,-2.100840336134454,-19.747899159663866,-2.3109243697478994
145,0.705,IMU0,-0.03857421875,3.73681640625,-0.11328125,-2.030812324929972,-21.35854341736695,-2.73109243697479
146,0.715,IMU0,-0.01220703125,3.73388671875,-0.00341796875,-2.3109243697478994,-21.42857142857143,-3.081232492997199
147,0.725,IMU0,-0.03271484375,3.7314453125,-0.0302734375,-2.030812324929972,-23.599439775910366,-3.2212885154061626
148,0.735,IMU0,-0.021484375,3.7333984375,-0.09521484375,-2.100840336134454,-24.159663865546218,-3.431372549019608
149,0.745,IMU0,-0.01611328125,3.73876953125,-0.001953125,-2.450980392156863,-24.369747899159666,-3.5714285714285716
150,0.755,IMU0,-0.03759765625,3.7373046875,-0.048828125,-2.170868347338936,-26.260504201680675,-3.781512605042017
151,0.765,IMU0,-0.0205078125,3.73388671875,-0.08349609375,-2.2408963585434174,-27.450980392156865,-4.201680672268908
152,0.775,IMU0,-0.01416015625,3.72802734375,-0.00634765625,-2.2408963585434174,-28.92156862745098,-4.481792717086835
153,0.785,IMU0,-0.03369140625,3.73046875,-0.0673828125,-1.9607843137254903,-31.442577030812327,-4.69187675070028
154,0.795,IMU0,-0.015625,3.73095703125,-0.0732421875,-1.9607843137254903,-32.42296918767507,-4.971988795518207
155,0.805,IMU0,-0.013671875,3.7236328125,-0.01416015625,-1.8207282913165266,-33.96358543417367,-5.112044817927171
156,0.815,IMU0,-0.02685546875,3.720703125,-0.07470703125,-1.6106442577030813,-36.484593837535016,-5.2521008403361344
157,0.825,IMU0,-0.0126953125,3.72119140625,-0.05859375,-1.4705882352941178,-37.81512605042017,-5.46218487394958
158,0.835,IMU0,-0.017578125,3.7236328125,-0.0205078125,-1.2605042016806722,-40.056022408963585,-5.602240896358544
159,0.845,IMU0,-0.01904296875,3.7255859375,-0.083984375,-0.9803921568627452,-42.577030812324935,-5.8123249299719895
160,0.855,IMU0,-0.01025390625,3.724609375,-0.05029296875,-0.8403361344537815,-44.46778711484594,-6.022408963585434
161,0.865,IMU0,-0.017578125,3.71826171875,-0.02880859375,-0.5602240896358543,-46.98879551820728,-6.162464985994398
162,0.875,IMU0,-0.00341796875,3.720703125,-0.0830078125,-0.42016806722689076,-49.36974789915966,-6.302521008403362
163,0.885,IMU0,-0.0107421875,3.71923828125,-0.0517578125,-0.2801120448179272,-51.19047619047619,-6.442577030812325
164,0.895,IMU0,-0.00927734375,3.720703125,-0.04638671875,0.0700280112044818,-53.57142857142858,-6.512605042016807
165,0.905,IMU0,-0.00146484375,3.724609375,-0.08056640625,0.350140056022409,-55.74229691876751,-6.582633053221289
166,0.915,IMU0,-0.001953125,3.7265625,-0.0419921875,0.5602240896358543,-57.42296918767507,-6.582633053221289
167,0.925,IMU0,0.00048828125,3.7275390625,-0.0625,0.9803921568627452,-59.733893557422974,-6.512605042016807
168,0.935,IMU0,0.0029296875,3.72509765625,-0.06982421875,1.2605042016806722,-61.20448179271709,-6.442577030812325
169,0.945,IMU0,0.00390625,3.72265625,-0.04052734375,1.3305322128851542,-63.02521008403362,-6.372549019607844
170,0.955,IMU0,0.0146484375,3.72119140625,-0.078125,1.680672268907563,-65.89635854341736,-6.23249299719888
171,0.965,IMU0,0.00830078125,3.72412109375,-0.0751953125,2.030812324929972,-68.0672268907563,-6.022408963585434
172,0.975,IMU0,0.00634765625,3.72509765625,-0.04296875,2.3109243697478994,-70.30812324929973,-5.742296918767507
173,0.985,IMU0,0.01611328125,3.73388671875,-0.087890625,2.73109243697479,-72.96918767507003,-5.5322128851540615
174,0.995,IMU0,0.00244140625,3.7314453125,-0.046875,3.2913165266106446,-78.36134453781513,-5.042016806722689
175,1.005,IMU0,0.01220703125,3.736328125,-0.08935546875,3.711484593837535,-81.58263305322129,-4.901960784313726
176,1.015,IMU0,0.00732421875,3.73583984375,-0.0576171875,4.131652661064426,-84.2436974789916,-4.761904761904762
177,1.025,IMU0,0.01171875,3.7353515625,-0.0546875,4.551820728291316,-87.04481792717087,-4.551820728291316
178,1.035,IMU0,0.01318359375,3.7294921875,-0.08837890625,4.971988795518207,-90.19607843137256,-4.271708683473389
179,1.045,IMU0,0.0009765625,3.724609375,-0.0546875,5.322128851540617,-92.85714285714286,-4.061624649859944
180,1.055,IMU0,0.0078125,3.7265625,-0.05322265625,5.8123249299719895,-96.1484593837535,-4.131652661064426
181,1.065,IMU0,0.0087890625,3.7255859375,-0.0830078125,6.022408963585434,-99.92997198879553,-4.201680672268908
182,1.075,IMU0,0.00927734375,3.72509765625,-0.0517578125,6.302521008403362,-103.15126050420169,-4.131652661064426
183,1.085,IMU0,0.01123046875,3.73291015625,-0.05517578125,6.792717086834735,-107.21288515406162,-4.131652661064426
184,1.095,IMU0,0.00341796875,3.74267578125,-0.0791015625,7.142857142857143,-111.48459383753502,-4.061624649859944
185,1.105,IMU0,0.01513671875,3.74462890625,-0.05029296875,7.563025210084034,-115.05602240896359,-4.131652661064426
186,1.115,IMU0,-0.00244140625,3.74072265625,-0.05810546875,7.843137254901961,-118.83753501400561,-4.061624649859944
187,1.125,IMU0,0.00634765625,3.7392578125,-0.068359375,8.19327731092437,-122.05882352941177,-4.131652661064426
188,1.135,IMU0,0.01904296875,3.74609375,-0.04296875,8.333333333333334,-125.77030812324931,-4.131652661064426
189,1.145,IMU0,-0.0048828125,3.74267578125,-0.0556640625,8.61344537815126,-129.6918767507003,-4.201680672268908
190,1.155,IMU0,0.0234375,3.73828125,-0.0673828125,8.893557422969188,-133.26330532212884,-4.341736694677872
191,1.165,IMU0,0.01953125,3.74658203125,-0.033203125,8.823529411764707,-135.7843137254902,-4.411764705882353
192,1.175,IMU0,0.0146484375,3.75048828125,-0.0595703125,9.173669467787116,-139.42577030812325,-4.481792717086835
193,1.185,IMU0,0.0478515625,3.75927734375,-0.08544921875,9.453781512605042,-142.57703081232495,-4.271708683473389
194,1.195,IMU0,0.01953125,3.7578125,-0.03125,9.663865546218489,-145.65826330532212,-3.8515406162464987
195,1.205,IMU0,0.015625,3.76025390625,-0.06005859375,9.943977591036415,-149.08963585434174,-3.5714285714285716
196,1.215,IMU0,0.025390625,3.759765625,-0.06201171875,10.014005602240896,-152.8011204481793,-3.431372549019608
197,1.225,IMU0,0.009765625,3.7626953125,-0.0400390625,10.084033613445378,-156.37254901960785,-3.361344537815126
198,1.235,IMU0,0.02001953125,3.759765625,-0.06494140625,10.224089635854343,-159.52380952380952,-3.361344537815126
199,1.245,IMU0,0.033203125,3.76123046875,-0.0849609375,10.294117647058824,-164.00560224089637,-3.361344537815126
200,1.255,IMU0,0.029296875,3.7685546875,-0.0615234375,10.644257703081234,-169.88795518207283,-3.151260504201681
201,1.265,IMU0,0.0048828125,3.7646484375,-0.08935546875,11.064425770308123,-176.33053221288517,-3.011204481792717
202,1.275,IMU0,0.04443359375,3.76611328125,-0.08837890625,11.554621848739496,-181.44257703081234,-2.801120448179272
203,1.285,IMU0,0.0263671875,3.775390625,-0.06982421875,11.834733893557424,-187.7450980392157,-2.5210084033613445
204,1.295,IMU0,-0.0185546875,3.78369140625,-0.09521484375,12.46498599439776,-194.6778711484594,-2.6610644257703084
205,1.305,IMU0,0.0576171875,3.78515625,-0.10205078125,13.025210084033613,-200.0,-2.8711484593837535
206,1.315,IMU0,0.01171875,3.783203125,-0.0810546875,13.65546218487395,-206.79271708683476,-2.6610644257703084
207,1.325,IMU0,-0.021484375,3.7802734375,-0.10986328125,14.565826330532213,-212.88515406162466,-2.73109243697479
208,1.335,IMU0,0.0537109375,3.78271484375,-0.08203125,15.056022408963585,-218.55742296918768,-3.011204481792717
209,1.345,IMU0,-0.0234375,3.78759765625,-0.08056640625,15.756302521008404,-224.78991596638656,-3.081232492997199
210,1.355,IMU0,0.00439453125,3.78662109375,-0.07421875,16.31652661064426,-228.71148459383755,-3.431372549019608
211,1.365,IMU0,0.01904296875,3.7861328125,-0.0859375,16.946778711484594,-233.75350140056022,-3.5714285714285716
212,1.375,IMU0,-0.0322265625,3.7900390625,-0.05810546875,17.016806722689076,-236.69467787114846,-3.8515406162464987
213,1.385,IMU0,-0.013671875,3.7841796875,-0.06884765625,17.15686274509804,-237.7450980392157,-4.551820728291316
214,1.395,IMU0,-0.00048828125,3.78759765625,-0.07275390625,17.647058823529413,-238.58543417366948,-5.112044817927171
215,1.405,IMU0,-0.01953125,3.7841796875,-0.05908203125,17.717086834733895,-239.35574229691878,-5.5322128851540615
216,1.415,IMU0,-0.005859375,3.79052734375,-0.0556640625,17.57703081232493,-240.0560224089636,-6.022408963585434
217,1.425,IMU0,-0.0205078125,3.78955078125,-0.06787109375,17.50700280112045,-241.10644257703083,-6.372549019607844
218,1.435,IMU0,-0.01416015625,3.7880859375,-0.0517578125,17.43697478991597,-242.0168067226891,-6.932773109243698
219,1.445,IMU0,-0.00830078125,3.7939453125,-0.05029296875,17.22689075630252,-242.64705882352942,-7.492997198879552
220,1.455,IMU0,-0.0107421875,3.79443359375,-0.048828125,17.086834733893557,-243.34733893557424,-7.983193277310924
221,1.465,IMU0,-0.00244140625,3.79833984375,-0.0380859375,16.80672268907563,-244.04761904761907,-8.403361344537815
222,1.475,IMU0,-0.00048828125,3.7978515625,-0.04833984375,16.526610644257705,-245.23809523809524,-8.823529411764707
223,1.485,IMU0,0.0048828125,3.7978515625,-0.0390625,16.176470588235293,-246.77871148459386,-9.033613445378151
224,1.495,IMU0,-0.00439453125,3.7998046875,-0.0283203125,15.686274509803923,-247.89915966386556,-9.173669467787116
225,1.505,IMU0,0.00341796875,3.802734375,-0.0439453125,15.406162464985995,-248.8795518207283,-9.313725490196079
226,1.515,IMU0,-0.00390625,3.8017578125,-0.033203125,14.915966386554622,-250.28011204481794,-9.523809523809524
227,1.525,IMU0,0.00830078125,3.8046875,-0.0234375,14.215686274509805,-251.82072829131653,-9.663865546218489
228,1.535,IMU0,0.0029296875,3.8115234375,-0.04833984375,13.935574229691877,-253.71148459383755,-9.73389355742297
229,1.545,IMU0,0.0263671875,3.8134765625,-0.01953125,13.025210084033613,-256.51260504201684,-9.803921568627452
230,1.555,IMU0,0.00732421875,3.8125,-0.05322265625,12.745098039215687,-258.5434173669468,-9.73389355742297
231,1.565,IMU0,0.02490234375,3.8134765625,-0.00634765625,12.044817927170868,-259.73389355742296,-9.73389355742297
232,1.575,IMU0,0.04296875,3.81884765625,-0.03857421875,11.414565826330533,-261.5546218487395,-9.523809523809524
233,1.585,IMU0,0.029296875,3.80859375,-0.04345703125,10.994397759103641,-263.375350140056,-9.033613445378151
234,1.595,IMU0,0.03857421875,3.80908203125,-0.0224609375,10.504201680672269,-265.0560224089636,-8.61344537815126
235,1.605,IMU0,0.02880859375,3.8017578125,-0.04541015625,10.154061624649861,-267.08683473389357,-8.19327731092437
236,1.615,IMU0,0.03369140625,3.80224609375,-0.02587890625,9.73389355742297,-267.99719887955183,-7.773109243697479
237,1.625,IMU0,0.0546875,3.80078125,-0.044921875,9.38375350140056,-269.467787114846,-7.282913165266106
238,1.635,IMU0,0.037109375,3.7978515625,-0.05224609375,8.96358543417367,-271.1484593837535,-6.582633053221289
239,1.645,IMU0,0.041015625,3.80517578125,-0.0390625,8.543417366946779,-272.3389355742297,-6.022408963585434
240,1.655,IMU0,0.0498046875,3.8046875,-0.0517578125,8.403361344537815,-273.9495798319328,-5.392156862745098
241,1.665,IMU0,0.04541015625,3.80419921875,-0.0654296875,8.333333333333334,-275.28011204481794,-4.761904761904762
242,1.675,IMU0,0.05322265625,3.79833984375,-0.04736328125,7.983193277310924,-276.890756302521,-4.131652661064426
243,1.685,IMU0,0.041015625,3.796875,-0.07080078125,8.123249299719888,-278.64145658263305,-3.5014005602240896
244,1.695,IMU0,0.04248046875,3.79052734375,-0.06103515625,7.983193277310924,-279.6218487394958,-2.9411764705882355
245,1.705,IMU0,0.064453125,3.7890625,-0.04931640625,8.053221288515406,-281.1624649859944,-2.380952380952381
246,1.715,IMU0,0.02490234375,3.78759765625,-0.0732421875,8.61344537815126,-282.91316526610643,-1.8207282913165266
247,1.725,IMU0,0.0673828125,3.79150390625,-0.0615234375,9.103641456582633,-283.1232492997199,-1.2605042016806722
248,1.735,IMU0,0.052734375,3.78662109375,-0.05029296875,9.103641456582633,-284.3837535014006,-0.5602240896358543
249,1.745,IMU0,0.0244140625,3.78076171875,-0.076171875,8.893557422969188,-285.5042016806723,0.21008403361344538
250,1.755,IMU0,0.0556640625,3.76806640625,-0.0458984375,8.893557422969188,-287.04481792717087,0.700280112044818
251,1.765,IMU0,0.00927734375,3.7666015625,-0.06005859375,9.523809523809524,-288.65546218487395,1.2605042016806722
252,1.775,IMU0,0.01416015625,3.76513671875,-0.08642578125,9.873949579831933,-289.07563025210084,1.5406162464985995
253,1.785,IMU0,0.03271484375,3.767578125,-0.05224609375,9.593837535014005,-289.14565826330534,1.8207282913165266
254,1.795,IMU0,-0.0078125,3.763671875,-0.0771484375,10.504201680672269,-290.546218487395,1.9607843137254903
255,1.805,IMU0,0.017578125,3.7578125,-0.0888671875,10.504201680672269,-290.96638655462186,1.9607843137254903
256,1.815,IMU0,-0.00341796875,3.75390625,-0.06884765625,10.714285714285715,-292.08683473389357,2.100840336134454
257,1.825,IMU0,-0.02880859375,3.75,-0.08203125,11.27450980392157,-293.2072829131653,2.030812324929972
258,1.835,IMU0,-0.013671875,3.74658203125,-0.087890625,11.764705882352942,-293.76750700280115,1.7507002801120448
259,1.845,IMU0,-0.02490234375,3.740234375,-0.0498046875,11.554621848739496,-294.5378151260504,1.400560224089636
260,1.855,IMU0,-0.03564453125,3.73291015625,-0.0751953125,12.184873949579833,-295.37815126050424,0.9103641456582633
261,1.865,IMU0,-0.02783203125,3.71923828125,-0.06640625,12.184873949579833,-295.7282913165266,0.42016806722689076
262,1.875,IMU0,-0.01953125,3.71337890625,-0.0458984375,12.53501400560224,-296.42857142857144,-0.0700280112044818
263,1.885,IMU0,-0.0478515625,3.70654296875,-0.05029296875,12.675070028011206,-297.47899159663865,-0.6302521008403361
264,1.895,IMU0,-0.015625,3.70068359375,-0.0439453125,12.675070028011206,-297.6890756302521,-1.2605042016806722
265,1.905,IMU0,-0.03271484375,3.69873046875,-0.033203125,12.324929971988796,-298.66946778711485,-1.7507002801120448
266,1.915,IMU0,-0.0322265625,3.69287109375,-0.0478515625,11.834733893557424,-299.5098039215686,-2.2408963585434174
267,1.925,IMU0,-0.01953125,3.6904296875,-0.03662109375,11.834733893557424,-300.140056022409,-2.6610644257703084
268,1.935,IMU0,-0.0390625,3.68505859375,-0.0166015625,11.344537815126051,-300.6302521008403,-3.081232492997199
269,1.945,IMU0,-0.0244140625,3.68017578125,-0.03466796875,11.27450980392157,-300.7703081232493,-3.5714285714285716
270,1.955,IMU0,-0.01904296875,3.6748046875,-0.01318359375,10.714285714285715,-300.8403361344538,-3.991596638655462
271,1.965,IMU0,-0.03271484375,3.658203125,-0.0234375,9.803921568627452,-301.05042016806726,-4.411764705882353
272,1.975,IMU0,0.0029296875,3.65087890625,-0.02880859375,9.523809523809524,-300.91036414565826,-4.761904761904762
273,1.985,IMU0,0.0,3.64306640625,-0.001953125,9.173669467787116,-301.33053221288515,-4.761904761904762
274,1.995,IMU0,-0.00927734375,3.63232421875,-0.01220703125,8.683473389355743,-302.3809523809524,-4.621848739495799
275,2.005,IMU0,0.00634765625,3.6220703125,-0.029296875,7.42296918767507,-303.4313725490196,-4.551820728291316
276,2.015,IMU0,-0.00634765625,3.6103515625,-0.00146484375,7.072829131652662,-304.3417366946779,-4.411764705882353
277,2.025,IMU0,0.0029296875,3.60595703125,-0.021484375,6.652661064425771,-305.6022408963586,-4.341736694677872
278,2.035,IMU0,0.00341796875,3.60400390625,-0.03759765625,6.0924369747899165,-306.3025210084034,-4.201680672268908
279,2.045,IMU0,0.01953125,3.6044921875,-0.0185546875,5.602240896358544,-306.5826330532213,-3.9215686274509807
280,2.055,IMU0,0.02099609375,3.59521484375,-0.0205078125,5.392156862745098,-307.49299719887955,-3.5014005602240896
281,2.065,IMU0,0.03662109375,3.5810546875,-0.0166015625,4.761904761904762,-308.1932773109244,-2.9411764705882355
282,2.075,IMU0,0.0322265625,3.560546875,-0.048828125,4.061624649859944,-309.80392156862746,-2.2408963585434174
283,2.085,IMU0,0.0302734375,3.5517578125,-0.06298828125,3.5014005602240896,-311.06442577030816,-1.5406162464985995
284,2.095,IMU0,0.033203125,3.52587890625,-0.076171875,4.201680672268908,-312.6750700280112,0.0700280112044818
285,2.105,IMU0,0.01318359375,3.5166015625,-0.0615234375,4.761904761904762,-313.2352941176471,0.8403361344537815
286,2.115,IMU0,0.04296875,3.51708984375,-0.05615234375,5.392156862745098,-313.4453781512605,1.1904761904761905
287,2.125,IMU0,0.0400390625,3.51806640625,-0.08349609375,5.742296918767507,-313.9355742296919,1.8207282913165266
288,2.135,IMU0,0.04052734375,3.5078125,-0.0859375,5.9523809523809526,-315.0560224089636,2.5210084033613445
289,2.145,IMU0,0.033203125,3.498046875,-0.07421875,6.23249299719888,-316.52661064425774,3.2913165266106446
290,2.155,IMU0,0.0224609375,3.486328125,-0.0869140625,6.932773109243698,-317.92717086834733,3.781512605042017
291,2.165,IMU0,0.037109375,3.4765625,-0.07861328125,7.703081232492997,-318.69747899159665,4.271708683473389
292,2.175,IMU0,0.0283203125,3.466796875,-0.0576171875,8.61344537815126,-319.6778711484594,4.831932773109244
293,2.185,IMU0,-0.00439453125,3.458984375,-0.07421875,8.61344537815126,-321.07843137254906,5.182072829131653
294,2.195,IMU0,0.029296875,3.44873046875,-0.0830078125,9.73389355742297,-322.05882352941177,5.322128851540617
295,2.205,IMU0,0.001953125,3.43994140625,-0.0634765625,10.084033613445378,-322.8291316526611,5.46218487394958
296,2.215,IMU0,0.0,3.4248046875,-0.0693359375,10.434173669467787,-323.8795518207283,5.602240896358544
297,2.225,IMU0,-0.009765625,3.41064453125,-0.06298828125,10.504201680672269,-325.7703081232493,5.6722689075630255
298,2.235,IMU0,-0.03466796875,3.39404296875,-0.0712890625,11.344537815126051,-326.8207282913165,5.392156862745098
299,2.245,IMU0,-0.01123046875,3.3896484375,-0.06103515625,12.184873949579833,-327.2408963585434,5.112044817927171
300,2.255,IMU0,-0.04248046875,3.38623046875,-0.06103515625,12.605042016806724,-327.8711484593838,4.761904761904762
301,2.265,IMU0,-0.03955078125,3.36962890625,-0.041015625,12.675070028011206,-328.3613445378151,4.131652661064426
302,2.275,IMU0,-0.01708984375,3.35986328125,-0.044921875,12.254901960784315,-328.1512605042017,3.5714285714285716
303,2.285,IMU0,-0.048828125,3.3564453125,-0.03515625,12.394957983193278,-328.64145658263305,3.151260504201681
304,2.295,IMU0,-0.04541015625,3.349609375,-0.02783203125,12.745098039215687,-329.20168067226894,2.5910364145658265
305,2.305,IMU0,-0.0341796875,3.3427734375,-0.02001953125,12.675070028011206,-329.4817927170869,1.8907563025210086
306,2.315,IMU0,-0.04248046875,3.330078125,-0.015625,12.815126050420169,-329.4817927170869,1.3305322128851542
307,2.325,IMU0,-0.0263671875,3.31982421875,-0.0078125,11.764705882352942,-329.4817927170869,0.9803921568627452
308,2.335,IMU0,-0.03564453125,3.3095703125,0.015625,11.27450980392157,-329.2717086834734,0.700280112044818
309,2.345,IMU0,-0.0205078125,3.29736328125,0.0185546875,10.294117647058824,-329.6218487394958,0.21008403361344538
310,2.355,IMU0,0.00830078125,3.2880859375,-0.00390625,9.38375350140056,-330.5322128851541,0.1400560224089636
311,2.365,IMU0,-0.033203125,3.27978515625,0.02734375,8.823529411764707,-330.95238095238096,0.2801120448179272
312,2.375,IMU0,0.0078125,3.2783203125,0.00732421875,8.543417366946779,-331.6526610644258,0.350140056022409
313,2.385,IMU0,-0.00146484375,3.2646484375,-0.0126953125,7.352941176470589,-332.21288515406167,0.700280112044818
314,2.395,IMU0,-0.01806640625,3.2587890625,0.02783203125,6.722689075630252,-333.05322128851543,0.9103641456582633
315,2.405,IMU0,0.0126953125,3.2607421875,-0.00927734375,7.142857142857143,-333.68347338935575,1.1204481792717087
316,2.415,IMU0,0.00439453125,3.24609375,-0.01171875,5.882352941176471,-334.4537815126051,1.5406162464985995
317,2.425,IMU0,0.01220703125,3.234375,0.01220703125,4.901960784313726,-335.4341736694678,2.030812324929972
318,2.435,IMU0,0.01025390625,3.228515625,-0.03515625,5.5322128851540615,-336.5546218487395,2.5910364145658265
319,2.445,IMU0,0.0087890625,3.220703125,0.00048828125,4.621848739495799,-337.11484593837537,3.151260504201681
320,2.455,IMU0,0.02978515625,3.21435546875,-0.0068359375,5.322128851540617,-337.53501400560225,3.781512605042017
321,2.465,IMU0,0.00927734375,3.20849609375,-0.04150390625,5.6722689075630255,-338.4453781512605,4.621848739495799
322,2.475,IMU0,-0.001953125,3.20166015625,-0.02880859375,5.322128851540617,-339.5658263305322,5.322128851540617
323,2.485,IMU0,-0.00732421875,3.19091796875,-0.01708984375,5.042016806722689,-340.19607843137254,5.742296918767507
324,2.495,IMU0,-0.02685546875,3.18505859375,-0.05029296875,4.901960784313726,-340.8263305322129,6.23249299719888
325,2.505,IMU0,-0.03857421875,3.18115234375,-0.0283203125,6.022408963585434,-340.1260504201681,6.442577030812325
326,2.515,IMU0,-0.02685546875,3.17529296875,-0.03662109375,5.882352941176471,-339.91596638655466,6.442577030812325
327,2.525,IMU0,-0.0361328125,3.1640625,-0.04541015625,6.162464985994398,-339.84593837535016,6.442577030812325
328,2.535,IMU0,-0.0439453125,3.1533203125,-0.04443359375,6.652661064425771,-339.6358543417367,6.512605042016807
329,2.545,IMU0,-0.04833984375,3.14501953125,-0.0380859375,6.932773109243698,-339.07563025210084,6.442577030812325
330,2.555,IMU0,-0.06396484375,3.12939453125,-0.037109375,7.282913165266106,-339.07563025210084,6.23249299719888
331,2.565,IMU0,-0.0625,3.12255859375,-0.04150390625,7.843137254901961,-338.30532212885157,5.9523809523809526
332,2.575,IMU0,-0.06787109375,3.11572265625,-0.0380859375,6.792717086834735,-337.3949579831933,5.46218487394958
333,2.585,IMU0,-0.07861328125,3.10791015625,-0.033203125,7.352941176470589,-336.1344537815126,4.971988795518207
334,2.595,IMU0,-0.0771484375,3.10205078125,-0.03515625,7.703081232492997,-335.0140056022409,4.411764705882353
335,2.605,IMU0,-0.0830078125,3.099609375,-0.03466796875,8.053221288515406,-333.8935574229692,3.8515406162464987
336,2.615,IMU0,-0.08935546875,3.09375,-0.0380859375,7.352941176470589,-332.843137254902,3.361344537815126
337,2.625,IMU0,-0.0927734375,3.09228515625,-0.033203125,7.142857142857143,-331.02240896358546,2.73109243697479
338,2.635,IMU0,-0.08056640625,3.08203125,-0.03173828125,7.633053221288516,-329.6218487394958,2.100840336134454
339,2.645,IMU0,-0.08447265625,3.0654296875,-0.01220703125,6.302521008403362,-327.59103641456585,0.9103641456582633
340,2.655,IMU0,-0.07958984375,3.0576171875,-0.02392578125,6.792717086834735,-325.91036414565826,0.4901960784313726
341,2.665,IMU0,-0.0849609375,3.05224609375,-0.009765625,6.442577030812325,-324.08963585434174,0.0
342,2.675,IMU0,-0.07763671875,3.0439453125,-0.01806640625,5.5322128851540615,-322.7591036414566,-0.42016806722689076
343,2.685,IMU0,-0.0693359375,3.03564453125,-0.01611328125,5.9523809523809526,-322.3389355742297,-0.700280112044818
344,2.695,IMU0,-0.06787109375,3.02685546875,-0.00634765625,4.761904761904762,-321.42857142857144,-0.9803921568627452
345,2.705,IMU0,-0.05908203125,3.02685546875,-0.0263671875,4.901960784313726,-320.4481792717087,-0.9103641456582633
346,2.715,IMU0,-0.072265625,3.02783203125,-0.01318359375,3.2913165266106446,-320.0980392156863,-0.9103641456582633
347,2.725,IMU0,-0.05712890625,3.01806640625,-0.02587890625,2.030812324929972,-319.6078431372549,-0.9103641456582633
348,2.735,IMU0,-0.05224609375,3.00244140625,-0.0205078125,1.7507002801120448,-318.8375350140056,-0.700280112044818
349,2.745,IMU0,-0.0625,2.99462890625,-0.01904296875,2.6610644257703084,-318.5574229691877,-0.4901960784313726
350,2.755,IMU0,-0.06005859375,2.986328125,-0.025390625,2.3109243697478994,-317.3669467787115,-0.21008403361344538
351,2.765,IMU0,-0.06982421875,2.98779296875,-0.04150390625,2.030812324929972,-316.9467787114846,-0.0700280112044818
352,2.775,IMU0,-0.05078125,2.98193359375,-0.03515625,0.7703081232492998,-315.89635854341736,0.0700280112044818
353,2.785,IMU0,-0.06396484375,2.98291015625,-0.0478515625,0.350140056022409,-314.9859943977591,0.350140056022409
354,2.795,IMU0,-0.0703125,2.97998046875,-0.0634765625,-0.6302521008403361,-314.14565826330534,0.6302521008403361
355,2.805,IMU0,-0.06201171875,2.96826171875,-0.0517578125,1.5406162464985995,-313.4453781512605,0.700280112044818
356,2.815,IMU0,-0.08544921875,2.96533203125,-0.05859375,1.1904761904761905,-313.09523809523813,0.700280112044818
357,2.825,IMU0,-0.076171875,2.95751953125,-0.0576171875,-0.2801120448179272,-313.1652661064426,0.5602240896358543
358,2.835,IMU0,-0.0625,2.9541015625,-0.05908203125,-0.6302521008403361,-311.9047619047619,0.5602240896358543
359,2.845,IMU0,-0.080078125,2.9453125,-0.05517578125,0.350140056022409,-312.11484593837537,0.6302521008403361
360,2.855,IMU0,-0.06689453125,2.9296875,-0.06494140625,1.3305322128851542,-310.85434173669466,0.6302521008403361
361,2.865,IMU0,-0.08349609375,2.9287109375,-0.052734375,0.0700280112044818,-310.5742296918768,0.6302521008403361
362,2.875,IMU0,-0.07080078125,2.9208984375,-0.04931640625,1.6106442577030813,-309.6638655462185,0.6302521008403361
363,2.885,IMU0,-0.07421875,2.91796875,-0.07177734375,-0.42016806722689076,-309.10364145658264,0.700280112044818
364,2.895,IMU0,-0.099609375,2.90771484375,-0.06103515625,0.0700280112044818,-308.5434173669468,0.5602240896358543
365,2.905,IMU0,-0.068359375,2.8974609375,-0.048828125,1.7507002801120448,-308.4033613445378,0.21008403361344538
366,2.915,IMU0,-0.07421875,2.8935546875,-0.07080078125,1.1204481792717087,-307.4229691876751,0.2801120448179272
367,2.925,IMU0,-0.08984375,2.88623046875,-0.05078125,0.1400560224089636,-306.7226890756303,0.0700280112044818
368,2.935,IMU0,-0.06640625,2.87890625,-0.052734375,0.700280112044818,-306.02240896358546,0.0
369,2.945,IMU0,-0.0966796875,2.87353515625,-0.072265625,1.400560224089636,-305.1120448179272,0.0
370,2.955,IMU0,-0.0693359375,2.876953125,-0.05029296875,0.8403361344537815,-303.8515406162465,-0.21008403361344538
371,2.965,IMU0,-0.07177734375,2.87060546875,-0.04931640625,0.21008403361344538,-304.4117647058824,-0.2801120448179272
372,2.975,IMU0,-0.08984375,2.86181640625,-0.072265625,0.21008403361344538,-304.13165266106444,-0.42016806722689076
373,2.985,IMU0,-0.0693359375,2.85302734375,-0.05615234375,-0.700280112044818,-303.5014005602241,-0.4901960784313726
374,2.995,IMU0,-0.0859375,2.85107421875,-0.060546875,-0.9103641456582633,-303.1512605042017,-0.5602240896358543
375,3.005,IMU0,-0.08642578125,2.8388671875,-0.0693359375,0.1400560224089636,-302.17086834733897,-0.6302521008403361
376,3.015,IMU0,-0.06298828125,2.82861328125,-0.0556640625,-0.8403361344537815,-301.8207282913165,-0.8403361344537815
377,3.025,IMU0,-0.07421875,2.8232421875,-0.05859375,-0.8403361344537815,-302.45098039215685,-0.9803921568627452
378,3.035,IMU0,-0.07861328125,2.82177734375,-0.06298828125,0.21008403361344538,-301.7507002801121,-0.9803921568627452
379,3.045,IMU0,-0.0654296875,2.81982421875,-0.06591796875,1.680672268907563,-300.8403361344538,-0.8403361344537815
380,3.055,IMU0,-0.07568359375,2.81640625,-0.0546875,0.350140056022409,-299.5098039215686,-0.7703081232492998
381,3.065,IMU0,-0.0751953125,2.8212890625,-0.07080078125,1.1904761904761905,-300.21008403361344,-0.7703081232492998
382,3.075,IMU0,-0.06103515625,2.81201171875,-0.072265625,-1.1904761904761905,-300.140056022409,-0.7703081232492998
383,3.085,IMU0,-0.06005859375,2.8017578125,-0.0478515625,-0.0700280112044818,-300.6302521008403,-0.700280112044818
384,3.095,IMU0,-0.064453125,2.7900390625,-0.0791015625,-1.1904761904761905,-301.6806722689076,-0.6302521008403361
385,3.105,IMU0,-0.0576171875,2.7822265625,-0.06591796875,-0.42016806722689076,-302.2408963585434,-0.4901960784313726
386,3.115,IMU0,-0.0634765625,2.78125,-0.0556640625,0.0700280112044818,-302.52100840336135,-0.21008403361344538
387,3.125,IMU0,-0.056640625,2.7802734375,-0.09033203125,0.9103641456582633,-302.2408963585434,-0.0700280112044818
388,3.135,IMU0,-0.048828125,2.771484375,-0.0771484375,-1.3305322128851542,-302.8011204481793,0.0700280112044818
389,3.145,IMU0,-0.0615234375,2.76953125,-0.078125,1.4705882352941178,-303.64145658263305,0.42016806722689076
390,3.155,IMU0,-0.04833984375,2.76123046875,-0.10498046875,-0.1400560224089636,-303.78151260504205,0.700280112044818
391,3.165,IMU0,-0.0498046875,2.75341796875,-0.08740234375,0.42016806722689076,-303.8515406162465,0.9103641456582633
392,3.175,IMU0,-0.056640625,2.7451171875,-0.09228515625,1.400560224089636,-304.5518207282913,1.1904761904761905
393,3.185,IMU0,-0.0576171875,2.74609375,-0.099609375,1.7507002801120448,-304.83193277310926,1.3305322128851542
394,3.195,IMU0,-0.05615234375,2.73388671875,-0.1005859375,4.341736694677872,-305.1120448179272,1.680672268907563
395,3.205,IMU0,-0.0546875,2.72216796875,-0.1044921875,3.5014005602240896,-305.672268907563,1.8207282913165266
396,3.215,IMU0,-0.056640625,2.72802734375,-0.087890625,1.680672268907563,-304.20168067226894,1.8907563025210086
397,3.225,IMU0,-0.07275390625,2.72509765625,-0.09619140625,5.2521008403361344,-303.5014005602241,1.8907563025210086
398,3.235,IMU0,-0.03515625,2.72265625,-0.1044921875,3.991596638655462,-301.8207282913165,1.9607843137254903
399,3.245,IMU0,-0.0771484375,2.72021484375,-0.07763671875,5.5322128851540615,-301.40056022408965,2.030812324929972
400,3.255,IMU0,-0.04638671875,2.7138671875,-0.103515625,5.9523809523809526,-301.6106442577031,1.9607843137254903
401,3.265,IMU0,-0.06201171875,2.7109375,-0.08544921875,6.442577030812325,-301.890756302521,1.8207282913165266
402,3.275,IMU0,-0.05517578125,2.7001953125,-0.07763671875,7.913165266106443,-301.5406162464986,1.7507002801120448
403,3.285,IMU0,-0.0556640625,2.7001953125,-0.091796875,5.742296918767507,-301.6806722689076,1.7507002801120448
404,3.295,IMU0,-0.0703125,2.6982421875,-0.052734375,6.722689075630252,-301.40056022408965,1.8207282913165266
405,3.305,IMU0,-0.03271484375,2.68994140625,-0.0673828125,7.703081232492997,-301.2605042016807,1.680672268907563
406,3.315,IMU0,-0.0546875,2.68310546875,-0.060546875,6.722689075630252,-303.3613445378151,1.6106442577030813
407,3.325,IMU0,-0.056640625,2.6728515625,-0.03369140625,5.392156862745098,-302.45098039215685,1.6106442577030813
408,3.335,IMU0,-0.0302734375,2.671875,-0.060546875,6.372549019607844,-302.94117647058823,1.680672268907563
409,3.345,IMU0,-0.05419921875,2.66943359375,-0.04150390625,6.442577030812325,-302.94117647058823,1.7507002801120448
410,3.355,IMU0,-0.02880859375,2.6640625,-0.0380859375,6.582633053221289,-303.1512605042017,1.8907563025210086
411,3.365,IMU0,-0.04052734375,2.6591796875,-0.06298828125,5.46218487394958,-303.2212885154062,2.170868347338936
412,3.375,IMU0,-0.0341796875,2.65478515625,-0.041015625,5.322128851540617,-302.66106442577035,2.450980392156863
413,3.385,IMU0,-0.025390625,2.64599609375,-0.0458984375,3.431372549019608,-302.59103641456585,2.8711484593837535
414,3.395,IMU0,-0.04638671875,2.6455078125,-0.0576171875,4.621848739495799,-304.6918767507003,3.081232492997199
415,3.405,IMU0,-0.03369140625,2.64404296875,-0.04248046875,4.901960784313726,-303.5014005602241,3.5014005602240896
416,3.415,IMU0,-0.03466796875,2.64013671875,-0.041015625,4.69187675070028,-303.78151260504205,3.8515406162464987
417,3.425,IMU0,-0.05029296875,2.63916015625,-0.06591796875,4.411764705882353,-305.32212885154064,4.131652661064426
418,3.435,IMU0,-0.041015625,2.630859375,-0.04541015625,4.761904761904762,-304.9719887955182,4.341736694677872
419,3.445,IMU0,-0.0498046875,2.62353515625,-0.05517578125,3.8515406162464987,-306.5826330532213,4.481792717086835
420,3.455,IMU0,-0.046875,2.61767578125,-0.06494140625,4.761904761904762,-306.3025210084034,4.761904761904762
421,3.465,IMU0,-0.06396484375,2.61279296875,-0.0517578125,3.781512605042017,-306.02240896358546,4.971988795518207
422,3.475,IMU0,-0.06591796875,2.603515625,-0.06494140625,4.061624649859944,-305.672268907563,4.971988795518207
423,3.485,IMU0,-0.0625,2.60498046875,-0.0537109375,4.131652661064426,-306.1624649859944,4.971988795518207
424,3.495,IMU0,-0.07080078125,2.60595703125,-0.0478515625,5.042016806722689,-306.1624649859944,4.831932773109244
425,3.505,IMU0,-0.0830078125,2.6025390625,-0.0556640625,5.46218487394958,-306.3025210084034,4.761904761904762
426,3.515,IMU0,-0.0673828125,2.60107421875,-0.0498046875,3.5714285714285716,-305.4621848739496,4.621848739495799
427,3.525,IMU0,-0.0859375,2.591796875,-0.03662109375,4.761904761904762,-305.88235294117646,4.481792717086835
428,3.535,IMU0,-0.0966796875,2.58544921875,-0.03662109375,3.2212885154061626,-305.1120448179272,4.201680672268908
429,3.545,IMU0,-0.08349609375,2.5830078125,-0.04296875,4.831932773109244,-304.76190476190476,3.9215686274509807
430,3.555,IMU0,-0.09521484375,2.578125,-0.01953125,2.450980392156863,-306.3025210084034,3.5714285714285716
431,3.565,IMU0,-0.099609375,2.5673828125,-0.03173828125,3.151260504201681,-305.7422969187675,3.2212885154061626
432,3.575,IMU0,-0.09228515625,2.56201171875,-0.025390625,3.5714285714285716,-304.6918767507003,3.011204481792717
433,3.585,IMU0,-0.0888671875,2.54833984375,-0.01025390625,2.380952380952381,-303.921568627451,2.801120448179272
434,3.595,IMU0,-0.0849609375,2.54833984375,-0.01318359375,1.8207282913165266,-303.3613445378151,2.5910364145658265
435,3.605,IMU0,-0.0986328125,2.55126953125,-0.0205078125,1.5406162464985995,-302.66106442577035,2.450980392156863
436,3.615,IMU0,-0.0771484375,2.548828125,-0.0166015625,1.2605042016806722,-301.890756302521,2.450980392156863
437,3.625,IMU0,-0.08740234375,2.5458984375,-0.0126953125,-0.21008403361344538,-302.3109243697479,2.380952380952381
438,3.635,IMU0,-0.0830078125,2.54443359375,-0.0205078125,0.1400560224089636,-300.91036414565826,2.5210084033613445
439,3.645,IMU0,-0.05712890625,2.52587890625,-0.04541015625,-0.700280112044818,-300.35014005602244,2.380952380952381
440,3.655,IMU0,-0.10400390625,2.58349609375,-0.025390625,-2.73109243697479,-293.1372549019608,2.5910364145658265
441,3.665,IMU0,-0.08349609375,2.5595703125,-0.02001953125,-1.8907563025210086,-293.9075630252101,2.6610644257703084
442,3.675,IMU0,-0.10595703125,2.5537109375,-0.0634765625,-2.9411764705882355,-294.6778711484594,2.9411764705882355
443,3.685,IMU0,-0.05419921875,2.5517578125,-0.01611328125,-3.011204481792717,-294.81792717086836,3.2212885154061626
444,3.695,IMU0,-0.08251953125,2.53955078125,-0.07421875,-2.9411764705882355,-296.1484593837535,3.5014005602240896
445,3.705,IMU0,-0.09619140625,2.53076171875,-0.08837890625,-3.2913165266106446,-296.00840336134456,3.8515406162464987
446,3.715,IMU0,-0.0732421875,2.5263671875,-0.0673828125,-3.081232492997199,-295.4481792717087,4.131652661064426
447,3.725,IMU0,-0.1064453125,2.5205078125,-0.0869140625,-3.431372549019608,-295.86834733893556,4.411764705882353
448,3.735,IMU0,-0.09423828125,2.52490234375,-0.09423828125,-4.341736694677872,-295.0280112044818,4.411764705882353
449,3.745,IMU0,-0.10791015625,2.5234375,-0.111328125,-2.2408963585434174,-296.35854341736695,4.481792717086835
450,3.755,IMU0,-0.1025390625,2.51171875,-0.11572265625,0.21008403361344538,-296.2885154061625,4.411764705882353
451,3.765,IMU0,-0.1171875,2.5107421875,-0.1044921875,2.801120448179272,-295.86834733893556,4.271708683473389
452,3.775,IMU0,-0.12646484375,2.5146484375,-0.12646484375,0.8403361344537815,-294.9579831932773,4.061624649859944
453,3.785,IMU0,-0.119140625,2.5068359375,-0.11181640625,1.2605042016806722,-294.88795518207286,3.641456582633053
454,3.795,IMU0,-0.12890625,2.5068359375,-0.11865234375,3.711484593837535,-295.30812324929974,3.151260504201681
455,3.805,IMU0,-0.134765625,2.50244140625,-0.11328125,3.2212885154061626,-295.37815126050424,2.5210084033613445
456,3.815,IMU0,-0.1279296875,2.5,-0.1064453125,2.801120448179272,-294.18767507002804,1.9607843137254903
457,3.825,IMU0,-0.1376953125,2.486328125,-0.11279296875,3.711484593837535,-294.467787114846,1.3305322128851542
458,3.835,IMU0,-0.12158203125,2.48193359375,-0.09716796875,4.061624649859944,-293.69747899159665,0.700280112044818
459,3.845,IMU0,-0.119140625,2.4794921875,-0.083984375,3.011204481792717,-292.64705882352945,0.1400560224089636
460,3.855,IMU0,-0.1240234375,2.4755859375,-0.099609375,3.151260504201681,-293.06722689075633,-0.350140056022409
461,3.865,IMU0,-0.111328125,2.47021484375,-0.083984375,2.170868347338936,-293.2072829131653,-0.7703081232492998
462,3.875,IMU0,-0.0966796875,2.4658203125,-0.095703125,4.201680672268908,-292.01680672268907,-1.050420168067227
463,3.885,IMU0,-0.107421875,2.4599609375,-0.09521484375,3.2913165266106446,-291.9467787114846,-1.2605042016806722
464,3.895,IMU0,-0.08740234375,2.453125,-0.06884765625,3.151260504201681,-291.45658263305324,-1.5406162464985995
465,3.905,IMU0,-0.08154296875,2.451171875,-0.08837890625,4.621848739495799,-292.08683473389357,-1.6106442577030813
466,3.915,IMU0,-0.0849609375,2.4482421875,-0.0712890625,4.271708683473389,-292.436974789916,-1.6106442577030813
467,3.925,IMU0,-0.05810546875,2.44091796875,-0.06884765625,4.69187675070028,-292.08683473389357,-1.400560224089636
468,3.935,IMU0,-0.0615234375,2.45263671875,-0.0830078125,2.9411764705882355,-293.5574229691877,-1.1204481792717087
469,3.945,IMU0,-0.06884765625,2.45849609375,-0.06298828125,0.7703081232492998,-292.7170868347339,-0.700280112044818
470,3.955,IMU0,-0.0341796875,2.4462890625,-0.0703125,0.6302521008403361,-292.99719887955183,-0.1400560224089636
471,3.965,IMU0,-0.044921875,2.43408203125,-0.07958984375,3.2212885154061626,-293.34733893557427,0.6302521008403361
472,3.975,IMU0,-0.056640625,2.431640625,-0.05029296875,2.170868347338936,-294.3977591036415,1.1204481792717087
473,3.985,IMU0,-0.02880859375,2.42138671875,-0.07373046875,2.73109243697479,-294.3977591036415,1.8907563025210086
474,3.995,IMU0,-0.04443359375,2.42333984375,-0.0712890625,1.2605042016806722,-294.9579831932773,2.6610644257703084
475,4.005,IMU0,-0.04248046875,2.41796875,-0.06103515625,1.680672268907563,-295.6582633053221,3.2913165266106446
476,4.015,IMU0,-0.04150390625,2.41552734375,-0.08642578125,2.5910364145658265,-296.8487394957983,3.8515406162464987
477,4.025,IMU0,-0.05517578125,2.408203125,-0.06494140625,4.831932773109244,-297.7591036414566,4.481792717086835
478,4.035,IMU0,-0.05078125,2.39794921875,-0.07177734375,3.5014005602240896,-297.61904761904765,4.971988795518207
479,4.045,IMU0,-0.0625,2.3994140625,-0.07470703125,5.322128851540617,-298.03921568627453,5.322128851540617
480,4.055,IMU0,-0.068359375,2.38916015625,-0.0732421875,4.411764705882353,-297.8291316526611,5.8123249299719895
481,4.065,IMU0,-0.08251953125,2.38720703125,-0.06884765625,4.831932773109244,-297.47899159663865,6.0924369747899165
482,4.075,IMU0,-0.08154296875,2.3828125,-0.06689453125,4.971988795518207,-298.03921568627453,6.162464985994398
483,4.085,IMU0,-0.10693359375,2.3779296875,-0.05419921875,3.991596638655462,-297.2689075630252,6.022408963585434
484,4.095,IMU0,-0.1103515625,2.375,-0.064453125,4.901960784313726,-295.0280112044818,5.8123249299719895
485,4.105,IMU0,-0.10595703125,2.37451171875,-0.044921875,4.481792717086835,-292.99719887955183,5.602240896358544
486,4.115,IMU0,-0.1142578125,2.3720703125,-0.03369140625,4.411764705882353,-291.7366946778712,5.2521008403361344
487,4.125,IMU0,-0.1123046875,2.36767578125,-0.04541015625,5.2521008403361344,-290.96638655462186,4.901960784313726
488,4.135,IMU0,-0.12890625,2.37109375,-0.041015625,4.831932773109244,-288.79551820728295,4.551820728291316
489,4.145,IMU0,-0.11962890625,2.375,-0.0302734375,3.081232492997199,-287.11484593837537,4.131652661064426
490,4.155,IMU0,-0.119140625,2.35546875,-0.0390625,2.73109243697479,-286.5546218487395,3.641456582633053
491,4.165,IMU0,-0.1279296875,2.33984375,-0.0390625,3.711484593837535,-284.9439775910364,3.431372549019608
492,4.175,IMU0,-0.10693359375,2.35009765625,-0.029296875,2.73109243697479,-282.91316526610643,3.2212885154061626
493,4.185,IMU0,-0.1220703125,2.34130859375,-0.041015625,-0.0700280112044818,-282.07282913165267,3.081232492997199
494,4.195,IMU0,-0.1220703125,2.3427734375,-0.04443359375,0.8403361344537815,-280.6022408963586,2.801120448179272
495,4.205,IMU0,-0.123046875,2.33642578125,-0.033203125,2.450980392156863,-278.08123249299723,2.6610644257703084
496,4.215,IMU0,-0.12939453125,2.32958984375,-0.06005859375,0.700280112044818,-278.5014005602241,2.3109243697478994
497,4.225,IMU0,-0.1181640625,2.32568359375,-0.0576171875,0.21008403361344538,-277.3809523809524,2.100840336134454
498,4.235,IMU0,-0.1142578125,2.328125,-0.0517578125,0.2801120448179272,-275.7703081232493,1.9607843137254903
499,4.245,IMU0,-0.12646484375,2.32763671875,-0.08056640625,-0.1400560224089636,-275.5602240896359,1.7507002801120448
500,4.255,IMU0,-0.11181640625,2.32080078125,-0.07470703125,-0.42016806722689076,-273.8795518207283,1.7507002801120448
501,4.265,IMU0,-0.11083984375,2.3125,-0.06396484375,0.8403361344537815,-271.7787114845938,1.680672268907563
502,4.275,IMU0,-0.1337890625,2.31591796875,-0.078125,-0.350140056022409,-271.1484593837535,1.400560224089636
503,4.285,IMU0,-0.1259765625,2.32421875,-0.0712890625,0.9803921568627452,-270.5182072829132,1.2605042016806722
504,4.295,IMU0,-0.11181640625,2.33056640625,-0.0947265625,0.21008403361344538,-268.06722689075633,1.4705882352941178
505,4.305,IMU0,-0.09423828125,2.29833984375,-0.09326171875,-0.5602240896358543,-267.57703081232495,1.3305322128851542
506,4.315,IMU0,-0.1240234375,2.2890625,-0.08447265625,0.9103641456582633,-267.57703081232495,1.2605042016806722
507,4.325,IMU0,-0.095703125,2.28466796875,-0.09423828125,0.5602240896358543,-265.6162464985994,1.3305322128851542
508,4.335,IMU0,-0.1142578125,2.29150390625,-0.087890625,1.6106442577030813,-263.09523809523813,1.400560224089636
509,4.345,IMU0,-0.1201171875,2.27685546875,-0.09814453125,1.050420168067227,-261.48459383753504,1.3305322128851542
510,4.355,IMU0,-0.0908203125,2.2734375,-0.07666015625,2.170868347338936,-260.36414565826334,1.2605042016806722
511,4.365,IMU0,-0.11572265625,2.26708984375,-0.09765625,1.1204481792717087,-259.9439775910364,1.2605042016806722
512,4.375,IMU0,-0.1103515625,2.271484375,-0.083984375,0.5602240896358543,-259.3837535014006,1.1904761904761905
513,4.385,IMU0,-0.10546875,2.27294921875,-0.08740234375,-0.6302521008403361,-257.14285714285717,1.1904761904761905
514,4.395,IMU0,-0.12353515625,2.27392578125,-0.0888671875,-0.6302521008403361,-256.8627450980392,1.1204481792717087
515,4.405,IMU0,-0.115234375,2.28173828125,-0.0869140625,0.21008403361344538,-256.0924369747899,0.8403361344537815
516,4.415,IMU0,-0.10205078125,2.27880859375,-0.08935546875,2.100840336134454,-254.90196078431373,0.9103641456582633
517,4.425,IMU0,-0.1259765625,2.26220703125,-0.0771484375,1.680672268907563,-254.2016806722689,0.7703081232492998
518,4.435,IMU0,-0.0927734375,2.25634765625,-0.09521484375,2.8711484593837535,-254.34173669467788,0.700280112044818
519,4.445,IMU0,-0.11279296875,2.248046875,-0.08056640625,3.361344537815126,-254.83193277310926,0.7703081232492998
520,4.455,IMU0,-0.1025390625,2.24609375,-0.07568359375,1.400560224089636,-253.71148459383755,0.700280112044818
521,4.465,IMU0,-0.0732421875,2.23828125,-0.0791015625,2.380952380952381,-251.05042016806723,0.8403361344537815
522,4.475,IMU0,-0.10595703125,2.2294921875,-0.064453125,3.2913165266106446,-252.3109243697479,0.9803921568627452
523,4.485,IMU0,-0.0625,2.2314453125,-0.08056640625,3.011204481792717,-252.7310924369748,1.2605042016806722
524,4.495,IMU0,-0.0810546875,2.244140625,-0.06640625,2.380952380952381,-252.8011204481793,1.680672268907563
525,4.505,IMU0,-0.08642578125,2.2431640625,-0.0703125,3.781512605042017,-252.45098039215688,2.030812324929972
526,4.515,IMU0,-0.07470703125,2.24267578125,-0.08154296875,2.9411764705882355,-251.40056022408965,2.380952380952381
527,4.525,IMU0,-0.0849609375,2.24462890625,-0.06689453125,1.1904761904761905,-251.89075630252103,2.5910364145658265
528,4.535,IMU0,-0.0869140625,2.228515625,-0.06640625,3.011204481792717,-251.26050420168067,2.9411764705882355
529,4.545,IMU0,-0.08056640625,2.21875,-0.08056640625,2.8711484593837535,-249.92997198879553,3.151260504201681
530,4.555,IMU0,-0.07177734375,2.20361328125,-0.05859375,2.5910364145658265,-250.14005602240897,3.5014005602240896
531,4.565,IMU0,-0.0888671875,2.19873046875,-0.06396484375,2.450980392156863,-250.28011204481794,3.781512605042017
532,4.575,IMU0,-0.07958984375,2.20263671875,-0.07421875,1.3305322128851542,-250.0,4.201680672268908
533,4.585,IMU0,-0.1015625,2.19873046875,-0.05078125,1.680672268907563,-249.2296918767507,4.551820728291316
534,4.595,IMU0,-0.09765625,2.2001953125,-0.0791015625,0.9803921568627452,-249.2296918767507,4.761904761904762
535,4.605,IMU0,-0.10400390625,2.2001953125,-0.07373046875,3.081232492997199,-248.8795518207283,4.761904761904762
536,4.615,IMU0,-0.11474609375,2.19580078125,-0.05419921875,0.700280112044818,-248.73949579831933,4.831932773109244
537,4.625,IMU0,-0.1123046875,2.19384765625,-0.0849609375,1.1904761904761905,-248.03921568627453,4.831932773109244
538,4.635,IMU0,-0.11962890625,2.18994140625,-0.06396484375,2.801120448179272,-247.3389355742297,4.69187675070028
539,4.645,IMU0,-0.12548828125,2.1875,-0.0654296875,2.450980392156863,-246.56862745098042,4.551820728291316
540,4.655,IMU0,-0.14208984375,2.18310546875,-0.09033203125,3.5014005602240896,-248.24929971988797,4.131652661064426
541,4.665,IMU0,-0.13134765625,2.17919921875,-0.06884765625,1.1204481792717087,-247.61904761904762,3.9215686274509807
542,4.675,IMU0,-0.14013671875,2.18115234375,-0.0576171875,0.42016806722689076,-246.6386554621849,3.5714285714285716
543,4.685,IMU0,-0.15673828125,2.17236328125,-0.08056640625,0.1400560224089636,-245.8683473389356,3.011204481792717
544,4.695,IMU0,-0.11572265625,2.16748046875,-0.0654296875,2.8711484593837535,-246.35854341736695,2.5910364145658265
545,4.705,IMU0,-0.1552734375,2.16455078125,-0.07080078125,1.1904761904761905,-246.42857142857144,2.170868347338936
546,4.715,IMU0,-0.12255859375,2.1591796875,-0.07861328125,-0.0700280112044818,-245.23809523809524,1.9607843137254903
547,4.725,IMU0,-0.14306640625,2.1611328125,-0.0712890625,2.3109243697478994,-242.296918767507,1.8207282913165266
548,4.735,IMU0,-0.13623046875,2.16015625,-0.07275390625,2.8711484593837535,-241.10644257703083,1.5406162464985995
549,4.745,IMU0,-0.1103515625,2.158203125,-0.083984375,1.8207282913165266,-241.03641456582633,1.1204481792717087
550,4.755,IMU0,-0.1455078125,2.15283203125,-0.0673828125,2.73109243697479,-239.56582633053222,1.050420168067227
551,4.765,IMU0,-0.1103515625,2.146484375,-0.0927734375,3.781512605042017,-237.88515406162466,0.9803921568627452
552,4.775,IMU0,-0.12548828125,2.14990234375,-0.0888671875,1.7507002801120448,-238.0952380952381,0.8403361344537815
553,4.785,IMU0,-0.10888671875,2.14111328125,-0.07958984375,2.73109243697479,-235.64425770308125,0.9103641456582633
554,4.795,IMU0,-0.10498046875,2.142578125,-0.091796875,1.3305322128851542,-234.52380952380955,0.9803921568627452
555,4.805,IMU0,-0.10498046875,2.13818359375,-0.1015625,2.3109243697478994,-234.6638655462185,1.1204481792717087
556,4.815,IMU0,-0.10888671875,2.1416015625,-0.08837890625,0.7703081232492998,-233.75350140056022,1.2605042016806722
557,4.825,IMU0,-0.0859375,2.169921875,-0.1044921875,1.9607843137254903,-233.75350140056022,1.3305322128851542
558,4.835,IMU0,-0.06982421875,2.12841796875,-0.0888671875,-0.5602240896358543,-234.38375350140058,1.5406162464985995
559,4.845,IMU0,-0.0908203125,2.1123046875,-0.09814453125,2.9411764705882355,-232.3529411764706,2.3109243697478994
560,4.855,IMU0,-0.1025390625,2.1083984375,-0.1025390625,2.8711484593837535,-231.44257703081234,2.6610644257703084
561,4.865,IMU0,-0.08203125,2.1005859375,-0.10205078125,4.69187675070028,-232.14285714285717,2.73109243697479
562,4.875,IMU0,-0.09814453125,2.09912109375,-0.095703125,1.7507002801120448,-231.02240896358543,3.011204481792717
563,4.885,IMU0,-0.0888671875,2.09619140625,-0.07666015625,3.081232492997199,-231.02240896358543,3.2913165266106446
564,4.895,IMU0,-0.0888671875,2.09228515625,-0.09765625,3.361344537815126,-232.42296918767508,3.5714285714285716
565,4.905,IMU0,-0.13525390625,2.08984375,-0.06494140625,4.621848739495799,-229.6918767507003,3.781512605042017
566,4.915,IMU0,-0.0869140625,2.0888671875,-0.0869140625,3.781512605042017,-228.5014005602241,3.781512605042017
567,4.925,IMU0,-0.14013671875,2.0908203125,-0.05029296875,4.271708683473389,-229.13165266106444,3.781512605042017
568,4.935,IMU0,-0.12451171875,2.0859375,-0.06005859375,4.481792717086835,-226.1904761904762,3.641456582633053
569,4.945,IMU0,-0.10205078125,2.07763671875,-0.07373046875,4.69187675070028,-223.73949579831933,3.711484593837535
570,4.955,IMU0,-0.14697265625,2.07080078125,-0.03271484375,3.2913165266106446,-224.15966386554624,3.5714285714285716
571,4.965,IMU0,-0.13330078125,2.0634765625,-0.0673828125,3.011204481792717,-221.9887955182073,3.361344537815126
572,4.975,IMU0,-0.12548828125,2.056640625,-0.056640625,1.8907563025210086,-221.42857142857144,3.081232492997199
573,4.985,IMU0,-0.1806640625,2.04931640625,-0.0283203125,0.9803921568627452,-218.20728291316527,2.9411764705882355
574,4.995,IMU0,-0.12109375,2.04052734375,-0.0625,0.350140056022409,-215.26610644257704,2.5210084033613445
575,5.005,IMU0,-0.1455078125,2.0390625,-0.04345703125,0.42016806722689076,-215.3361344537815,2.170868347338936
576,5.015,IMU0,-0.15283203125,2.03759765625,-0.03955078125,1.2605042016806722,-214.56582633053222,1.8207282913165266
577,5.025,IMU0,-0.11962890625,2.04833984375,-0.05615234375,2.030812324929972,-214.91596638655463,1.6106442577030813
578,5.035,IMU0,-0.13427734375,2.04931640625,-0.06005859375,-0.5602240896358543,-213.4453781512605,1.6106442577030813
579,5.045,IMU0,-0.1328125,2.0517578125,-0.05029296875,-0.7703081232492998,-210.92436974789916,1.6106442577030813
580,5.055,IMU0,-0.12548828125,2.05908203125,-0.05078125,-0.42016806722689076,-209.733893557423,1.5406162464985995
581,5.065,IMU0,-0.1220703125,2.0576171875,-0.0634765625,-1.6106442577030813,-210.0840336134454,1.5406162464985995
582,5.075,IMU0,-0.1181640625,2.0576171875,-0.07470703125,-1.1904761904761905,-208.19327731092437,1.7507002801120448
583,5.085,IMU0,-0.1240234375,2.05517578125,-0.076171875,0.42016806722689076,-207.70308123249302,1.8907563025210086
584,5.095,IMU0,-0.1201171875,2.04345703125,-0.07763671875,0.21008403361344538,-205.60224089635855,2.030812324929972
585,5.105,IMU0,-0.1357421875,2.01708984375,-0.10205078125,-0.7703081232492998,-203.36134453781514,2.170868347338936
586,5.115,IMU0,-0.14111328125,1.99365234375,-0.08349609375,0.21008403361344538,-203.0812324929972,2.170868347338936
587,5.125,IMU0,-0.14306640625,1.96533203125,-0.08642578125,-0.42016806722689076,-199.92997198879553,2.030812324929972
588,5.135,IMU0,-0.142578125,1.9384765625,-0.087890625,0.4901960784313726,-199.36974789915968,1.7507002801120448
589,5.145,IMU0,-0.13671875,1.89990234375,-0.11181640625,-0.1400560224089636,-198.59943977591038,1.4705882352941178
590,5.155,IMU0,-0.14453125,1.87548828125,-0.11083984375,0.42016806722689076,-196.35854341736695,1.2605042016806722
591,5.165,IMU0,-0.13427734375,1.8349609375,-0.1123046875,-0.5602240896358543,-195.65826330532215,1.050420168067227
592,5.175,IMU0,-0.1181640625,1.80029296875,-0.11474609375,3.2212885154061626,-192.22689075630254,1.050420168067227
593,5.185,IMU0,-0.14208984375,1.7646484375,-0.1083984375,3.2913165266106446,-192.57703081232495,0.8403361344537815
594,5.195,IMU0,-0.12158203125,1.72607421875,-0.12548828125,5.392156862745098,-189.9859943977591,0.6302521008403361
595,5.205,IMU0,-0.11962890625,1.6962890625,-0.12548828125,1.6106442577030813,-190.61624649859945,0.350140056022409
596,5.215,IMU0,-0.10546875,1.6650390625,-0.13037109375,2.380952380952381,-189.84593837535016,0.2801120448179272
597,5.225,IMU0,-0.10205078125,1.63427734375,-0.12060546875,2.030812324929972,-187.3249299719888,0.5602240896358543
598,5.235,IMU0,-0.12646484375,1.6083984375,-0.0869140625,2.73109243697479,-188.51540616246498,0.42016806722689076
599,5.245,IMU0,-0.08251953125,1.57861328125,-0.1015625,6.022408963585434,-187.53501400560225,0.4901960784313726
600,5.255,IMU0,-0.099609375,1.55517578125,-0.0927734375,6.23249299719888,-187.2549019607843,0.5602240896358543
601,5.265,IMU0,-0.08056640625,1.52783203125,-0.0703125,7.563025210084034,-187.7450980392157,0.700280112044818
602,5.275,IMU0,-0.037109375,1.5048828125,-0.1103515625,5.882352941176471,-188.02521008403363,1.1204481792717087
603,5.285,IMU0,-0.0771484375,1.48388671875,-0.06005859375,4.201680672268908,-186.624649859944,1.9607843137254903
604,5.295,IMU0,-0.09619140625,1.4560546875,-0.07958984375,3.431372549019608,-188.9355742296919,2.3109243697478994
605,5.305,IMU0,-0.05419921875,1.4306640625,-0.1103515625,4.551820728291316,-188.65546218487395,2.6610644257703084
606,5.315,IMU0,-0.10009765625,1.4033203125,-0.04736328125,6.302521008403362,-190.0560224089636,2.8711484593837535
607,5.325,IMU0,-0.09375,1.37158203125,-0.06005859375,8.263305322128852,-188.8655462184874,3.011204481792717
608,5.335,IMU0,-0.1064453125,1.3369140625,-0.03466796875,6.23249299719888,-188.30532212885154,3.081232492997199
609,5.345,IMU0,-0.099609375,1.30078125,-0.0615234375,3.8515406162464987,-188.58543417366948,2.8711484593837535
610,5.355,IMU0,-0.08935546875,1.263671875,-0.048828125,6.512605042016807,-188.37535014005604,2.9411764705882355
611,5.365,IMU0,-0.09130859375,1.22998046875,-0.021484375,8.473389355742297,-187.88515406162466,2.9411764705882355
612,5.375,IMU0,-0.10791015625,1.19287109375,-0.017578125,5.6722689075630255,-189.2857142857143,2.9411764705882355
613,5.385,IMU0,-0.091796875,1.130859375,-0.0166015625,6.23249299719888,-186.55462184873952,2.9411764705882355
614,5.395,IMU0,-0.1171875,1.0888671875,-0.00341796875,2.3109243697478994,-184.733893557423,3.151260504201681
615,5.405,IMU0,-0.1025390625,1.0556640625,0.00390625,5.46218487394958,-185.43417366946778,3.151260504201681
616,5.415,IMU0,-0.12646484375,1.0283203125,-0.00244140625,3.991596638655462,-184.45378151260505,3.081232492997199
617,5.425,IMU0,-0.109375,0.99169921875,-0.0390625,1.2605042016806722,-184.45378151260505,3.081232492997199
618,5.435,IMU0,-0.1181640625,0.9560546875,0.00634765625,0.42016806722689076,-183.33333333333334,3.081232492997199
619,5.445,IMU0,-0.12158203125,0.9169921875,-0.02685546875,2.5210084033613445,-182.2829131652661,2.9411764705882355
620,5.455,IMU0,-0.111328125,0.88134765625,-0.05322265625,-2.5910364145658265,-181.5826330532213,2.8711484593837535
621,5.465,IMU0,-0.1064453125,0.841796875,-0.02294921875,-3.781512605042017,-180.74229691876752,2.9411764705882355
622,5.475,IMU0,-0.10498046875,0.80615234375,-0.052734375,1.050420168067227,-182.98319327731093,2.73109243697479
623,5.485,IMU0,-0.111328125,0.76708984375,-0.087890625,-1.1904761904761905,-181.1624649859944,2.8711484593837535
624,5.495,IMU0,-0.1162109375,0.7216796875,-0.0263671875,-2.170868347338936,-180.53221288515408,3.011204481792717
625,5.505,IMU0,-0.13330078125,0.67578125,-0.0439453125,0.1400560224089636,-181.09243697478993,3.011204481792717
626,5.515,IMU0,-0.13623046875,0.6318359375,-0.0966796875,-2.170868347338936,-180.60224089635855,2.5910364145658265
627,5.525,IMU0,-0.12548828125,0.599609375,-0.05615234375,1.050420168067227,-179.83193277310926,2.170868347338936
628,5.535,IMU0,-0.17724609375,0.55078125,-0.0859375,1.4705882352941178,-180.3221288515406,1.8207282913165266
629,5.545,IMU0,-0.1298828125,0.50732421875,-0.07958984375,-1.1904761904761905,-179.97198879551823,1.2605042016806722
630,5.555,IMU0,-0.130859375,0.46630859375,-0.0732421875,-0.7703081232492998,-180.18207282913167,0.9103641456582633
631,5.565,IMU0,-0.14208984375,0.4248046875,-0.1025390625,2.5910364145658265,-178.99159663865547,0.6302521008403361
632,5.575,IMU0,-0.10302734375,0.38330078125,-0.0791015625,-1.1204481792717087,-179.55182072829132,0.42016806722689076
633,5.585,IMU0,-0.130859375,0.34033203125,-0.08056640625,3.011204481792717,-179.34173669467788,0.4901960784313726
634,5.595,IMU0,-0.12939453125,0.30078125,-0.09130859375,-0.9803921568627452,-179.2717086834734,0.350140056022409
635,5.605,IMU0,-0.1064453125,0.263671875,-0.0791015625,-1.680672268907563,-179.2016806722689,0.1400560224089636
636,5.615,IMU0,-0.14208984375,0.22705078125,-0.07861328125,-1.1904761904761905,-179.90196078431373,-0.1400560224089636
637,5.625,IMU0,-0.13818359375,0.1923828125,-0.1005859375,-0.7703081232492998,-179.90196078431373,-0.6302521008403361
638,5.635,IMU0,-0.1005859375,0.16259765625,-0.09130859375,2.100840336134454,-179.48179271708685,-1.1904761904761905
639,5.645,IMU0,-0.12939453125,0.1298828125,-0.06787109375,3.361344537815126,-182.42296918767508,-1.680672268907563
640,5.655,IMU0,-0.11181640625,0.10009765625,-0.08251953125,1.400560224089636,-180.25210084033614,-2.100840336134454
641,5.665,IMU0,-0.0673828125,0.0693359375,-0.083984375,1.2605042016806722,-181.65266106442579,-2.450980392156863
642,5.675,IMU0,-0.07177734375,0.04638671875,-0.07275390625,-1.1904761904761905,-180.53221288515408,-2.100840336134454
643,5.685,IMU0,-0.0703125,0.0234375,-0.06787109375,0.1400560224089636,-183.54341736694678,-2.380952380952381
644,5.695,IMU0,-0.0458984375,0.0087890625,-0.0712890625,2.6610644257703084,-183.1232492997199,-2.030812324929972
645,5.705,IMU0,-0.0341796875,-0.00830078125,-0.078125,5.322128851540617,-185.71428571428572,-1.680672268907563
646,5.715,IMU0,-0.0322265625,-0.02783203125,-0.07373046875,3.991596638655462,-187.8151260504202,-1.1904761904761905
647,5.725,IMU0,-0.0380859375,-0.04296875,-0.06787109375,2.6610644257703084,-190.406162464986,-0.5602240896358543
648,5.735,IMU0,-0.03857421875,-0.05615234375,-0.07666015625,3.431372549019608,-189.7058823529412,0.21008403361344538
649,5.745,IMU0,-0.0087890625,-0.06689453125,-0.07470703125,1.5406162464985995,-191.38655462184875,1.050420168067227
650,5.755,IMU0,-0.02783203125,-0.07958984375,-0.072265625,2.9411764705882355,-195.09803921568627,1.6106442577030813
651,5.765,IMU0,-0.04736328125,-0.091796875,-0.05322265625,4.901960784313726,-198.03921568627453,2.2408963585434174
652,5.775,IMU0,-0.05224609375,-0.1005859375,-0.05810546875,5.5322128851540615,-199.7198879551821,2.380952380952381
653,5.785,IMU0,-0.0498046875,-0.10595703125,-0.05712890625,4.411764705882353,-201.40056022408965,2.450980392156863
654,5.795,IMU0,-0.07275390625,-0.115234375,-0.052734375,5.882352941176471,-202.45098039215688,2.450980392156863
655,5.805,IMU0,-0.0576171875,-0.119140625,-0.02099609375,2.6610644257703084,-204.41176470588235,2.170868347338936
656,5.815,IMU0,-0.06787109375,-0.126953125,-0.033203125,1.8907563025210086,-207.91316526610646,2.030812324929972
657,5.825,IMU0,-0.0576171875,-0.1279296875,-0.01220703125,1.3305322128851542,-209.59383753501402,1.680672268907563
658,5.835,IMU0,-0.0517578125,-0.13818359375,-0.0146484375,2.450980392156863,-211.27450980392157,1.5406162464985995
659,5.845,IMU0,-0.044921875,-0.14013671875,-0.01025390625,2.73109243697479,-213.65546218487395,1.400560224089636
660,5.855,IMU0,-0.0595703125,-0.14501953125,-0.0185546875,2.9411764705882355,-216.24649859943978,1.2605042016806722
661,5.865,IMU0,-0.0263671875,-0.14404296875,-0.021484375,1.680672268907563,-220.09803921568627,1.1204481792717087
662,5.875,IMU0,-0.0693359375,-0.14794921875,-0.02099609375,3.991596638655462,-222.89915966386556,1.4705882352941178
663,5.885,IMU0,0.03759765625,-0.1552734375,0.279296875,4.131652661064426,-236.55462184873952,0.42016806722689076
664,5.895,IMU0,-0.08642578125,-0.166015625,-0.37158203125,1.1904761904761905,-248.9495798319328,2.030812324929972
665,5.905,IMU0,-0.0849609375,-0.1611328125,0.03466796875,-0.1400560224089636,-241.66666666666669,1.7507002801120448
666,5.915,IMU0,0.001953125,-0.19140625,-0.1103515625,2.9411764705882355,-244.95798319327733,1.5406162464985995
667,5.925,IMU0,-0.01513671875,-0.17333984375,0.0107421875,1.2605042016806722,-245.51820728291318,2.450980392156863
668,5.935,IMU0,-0.01708984375,-0.21484375,-0.0908203125,2.380952380952381,-243.1372549019608,2.801120448179272
669,5.945,IMU0,-0.0283203125,-0.21630859375,-0.09033203125,2.2408963585434174,-245.8683473389356,3.2913165266106446
670,5.955,IMU0,0.00732421875,-0.22607421875,-0.06884765625,2.030812324929972,-245.58823529411765,3.991596638655462
671,5.965,IMU0,-0.009765625,-0.24853515625,-0.07080078125,1.8907563025210086,-247.7591036414566,4.971988795518207
672,5.975,IMU0,-0.06591796875,-0.26123046875,-0.07958984375,0.8403361344537815,-245.58823529411765,5.882352941176471
673,5.985,IMU0,-0.03759765625,-0.2705078125,-0.08642578125,2.380952380952381,-245.93837535014006,5.742296918767507
674,5.995,IMU0,-0.00732421875,-0.28515625,-0.1083984375,5.5322128851540615,-248.17927170868347,6.162464985994398
675,6.005,IMU0,-0.0771484375,-0.30517578125,0.02392578125,5.042016806722689,-245.16806722689077,6.302521008403362
676,6.015,IMU0,-0.08984375,-0.3251953125,0.060546875,3.5714285714285716,-243.27731092436977,5.9523809523809526
677,6.025,IMU0,-0.07763671875,-0.3369140625,0.00244140625,9.663865546218489,-245.93837535014006,5.182072829131653
678,6.035,IMU0,-0.11328125,-0.35009765625,-0.03271484375,2.8711484593837535,-245.23809523809524,4.69187675070028
679,6.045,IMU0,-0.07373046875,-0.3681640625,0.001953125,2.030812324929972,-242.92717086834736,4.201680672268908
680,6.055,IMU0,-0.07177734375,-0.38232421875,0.0732421875,8.123249299719888,-243.55742296918768,3.5014005602240896
681,6.065,IMU0,-0.12939453125,-0.39111328125,0.02685546875,1.1204481792717087,-243.97759103641457,2.8711484593837535
682,6.075,IMU0,-0.0048828125,-0.39794921875,0.02294921875,1.4705882352941178,-239.00560224089637,3.151260504201681
683,6.085,IMU0,0.0087890625,-0.39794921875,0.0107421875,1.8207282913165266,-241.80672268907563,3.991596638655462
684,6.095,IMU0,-0.07861328125,-0.4150390625,-0.03125,2.100840336134454,-244.81792717086836,4.761904761904762
685,6.105,IMU0,-0.052734375,-0.416015625,0.00439453125,-3.9215686274509807,-244.53781512605042,5.322128851540617
686,6.115,IMU0,-0.06298828125,-0.431640625,-0.0029296875,-1.050420168067227,-243.62745098039215,5.742296918767507
687,6.125,IMU0,-0.107421875,-0.43798828125,0.00830078125,-1.2605042016806722,-243.9075630252101,5.6722689075630255
688,6.135,IMU0,-0.1005859375,-0.44580078125,-0.02734375,1.5406162464985995,-242.99719887955183,5.042016806722689
689,6.145,IMU0,-0.0986328125,-0.45947265625,-0.01953125,-1.6106442577030813,-245.3781512605042,4.411764705882353
690,6.155,IMU0,-0.13134765625,-0.46923828125,-0.0224609375,-1.4705882352941178,-247.3389355742297,3.5714285714285716
691,6.165,IMU0,-0.12451171875,-0.474609375,-0.0302734375,2.73109243697479,-246.49859943977592,2.2408963585434174
692,6.175,IMU0,-0.08447265625,-0.47412109375,-0.0673828125,2.8711484593837535,-246.77871148459386,1.400560224089636
693,6.185,IMU0,-0.05810546875,-0.4677734375,0.00927734375,-0.350140056022409,-244.6778711484594,0.9103641456582633
694,6.195,IMU0,-0.103515625,-0.4814453125,-0.04052734375,1.7507002801120448,-246.56862745098042,0.0
695,6.205,IMU0,-0.0634765625,-0.4814453125,-0.08154296875,0.7703081232492998,-245.72829131652662,-0.2801120448179272
696,6.215,IMU0,-0.04345703125,-0.48046875,-0.0751953125,1.3305322128851542,-244.46778711484595,-0.42016806722689076
697,6.225,IMU0,-0.052734375,-0.4892578125,-0.064453125,1.8907563025210086,-243.76750700280112,-0.350140056022409
698,6.235,IMU0,-0.03515625,-0.47900390625,-0.10205078125,-5.5322128851540615,-244.18767507002804,-0.1400560224089636
699,6.245,IMU0,-0.029296875,-0.4833984375,-0.1142578125,-0.2801120448179272,-243.69747899159665,-0.0700280112044818
700,6.255,IMU0,-0.01513671875,-0.47998046875,-0.05810546875,0.0700280112044818,-244.39775910364148,0.2801120448179272
701,6.265,IMU0,-0.01806640625,-0.47900390625,-0.08544921875,-0.6302521008403361,-244.53781512605042,0.5602240896358543
702,6.275,IMU0,-0.02197265625,-0.4775390625,-0.08447265625,0.9803921568627452,-244.18767507002804,0.9803921568627452
703,6.285,IMU0,-0.02001953125,-0.486328125,-0.08251953125,2.5210084033613445,-248.4593837535014,1.2605042016806722
704,6.295,IMU0,-0.01416015625,-0.4814453125,-0.06982421875,5.2521008403361344,-249.36974789915968,1.6106442577030813
705,6.305,IMU0,0.009765625,-0.48095703125,-0.1015625,2.5210084033613445,-251.89075630252103,2.030812324929972
706,6.315,IMU0,-0.01904296875,-0.4833984375,-0.07861328125,5.322128851540617,-252.17086834733894,2.801120448179272
707,6.325,IMU0,-0.01416015625,-0.48828125,-0.0751953125,9.943977591036415,-254.2016806722689,2.8711484593837535
708,6.335,IMU0,-0.02197265625,-0.4873046875,-0.103515625,8.61344537815126,-254.41176470588238,3.781512605042017
709,6.345,IMU0,-0.02392578125,-0.4921875,-0.05517578125,8.823529411764707,-255.812324929972,3.5014005602240896
710,6.355,IMU0,0.0,-0.48876953125,-0.046875,6.512605042016807,-256.2324929971989,3.5714285714285716
711,6.365,IMU0,-0.0302734375,-0.49853515625,-0.03759765625,10.294117647058824,-259.73389355742296,3.991596638655462
712,6.375,IMU0,-0.03125,-0.4990234375,-0.02490234375,4.061624649859944,-259.593837535014,4.271708683473389
713,6.385,IMU0,-0.0185546875,-0.4990234375,0.0107421875,10.224089635854343,-262.8151260504202,3.991596638655462
714,6.395,IMU0,0.00048828125,-0.50244140625,0.0078125,10.714285714285715,-262.46498599439775,4.621848739495799
715,6.405,IMU0,-0.025390625,-0.51708984375,0.001953125,8.403361344537815,-260.0140056022409,4.971988795518207
716,6.415,IMU0,-0.025390625,-0.51220703125,0.0322265625,7.352941176470589,-260.7142857142857,5.46218487394958
717,6.425,IMU0,-0.01025390625,-0.51953125,0.03173828125,8.683473389355743,-262.2549019607843,5.742296918767507
718,6.435,IMU0,-0.01708984375,-0.5185546875,0.03466796875,7.142857142857143,-263.30532212885157,6.162464985994398
719,6.445,IMU0,-0.03271484375,-0.51708984375,0.03125,4.971988795518207,-264.5658263305322,6.582633053221289
720,6.455,IMU0,-0.03955078125,-0.513671875,0.04296875,4.831932773109244,-267.99719887955183,7.002801120448179
721,6.465,IMU0,-0.04052734375,-0.5146484375,0.02880859375,3.431372549019608,-267.15686274509807,7.282913165266106
722,6.475,IMU0,-0.0546875,-0.5166015625,0.03271484375,-2.170868347338936,-267.08683473389357,7.352941176470589
723,6.485,IMU0,-0.0693359375,-0.513671875,0.00634765625,-0.7703081232492998,-267.43697478991595,7.633053221288516
724,6.495,IMU0,-0.064453125,-0.509765625,0.01708984375,1.5406162464985995,-270.7282913165266,7.42296918767507
725,6.505,IMU0,-0.0634765625,-0.513671875,0.0048828125,0.4901960784313726,-268.1372549019608,7.563025210084034
726,6.515,IMU0,-0.072265625,-0.50927734375,-0.01513671875,2.2408963585434174,-267.8571428571429,7.352941176470589
727,6.525,IMU0,-0.08203125,-0.5126953125,-0.0185546875,-2.6610644257703084,-269.2577030812325,7.352941176470589
728,6.535,IMU0,-0.0888671875,-0.5087890625,-0.0078125,2.8711484593837535,-268.4873949579832,7.282913165266106
729,6.545,IMU0,-0.10107421875,-0.50634765625,-0.0166015625,5.042016806722689,-267.64705882352945,6.652661064425771
730,6.555,IMU0,-0.1240234375,-0.51171875,-0.03466796875,1.5406162464985995,-269.3977591036415,6.372549019607844
731,6.565,IMU0,-0.1025390625,-0.5048828125,-0.02783203125,0.6302521008403361,-268.9075630252101,5.8123249299719895
732,6.575,IMU0,-0.115234375,-0.5107421875,-0.02685546875,-0.700280112044818,-271.49859943977594,5.042016806722689
733,6.585,IMU0,-0.1201171875,-0.5029296875,-0.02880859375,-1.5406162464985995,-271.218487394958,4.481792717086835
734,6.595,IMU0,-0.1103515625,-0.49951171875,-0.048828125,0.4901960784313726,-265.546218487395,3.8515406162464987
735,6.605,IMU0,-0.1083984375,-0.501953125,-0.03125,-1.6106442577030813,-267.43697478991595,3.2913165266106446
736,6.615,IMU0,-0.11865234375,-0.50439453125,-0.0380859375,3.2212885154061626,-268.62745098039215,2.450980392156863
737,6.625,IMU0,-0.107421875,-0.50048828125,-0.02978515625,2.6610644257703084,-266.8767507002801,1.6106442577030813
738,6.635,IMU0,-0.0869140625,-0.49853515625,-0.0361328125,0.9103641456582633,-268.3473389355742,1.400560224089636
739,6.645,IMU0,-0.09375,-0.49951171875,-0.03125,3.781512605042017,-268.9775910364146,1.1204481792717087
740,6.655,IMU0,-0.06982421875,-0.48828125,-0.03759765625,2.3109243697478994,-267.15686274509807,0.700280112044818
741,6.665,IMU0,-0.05810546875,-0.48779296875,-0.04443359375,1.8207282913165266,-269.6778711484594,0.4901960784313726
742,6.675,IMU0,-0.07470703125,-0.482421875,-0.01513671875,4.69187675070028,-267.99719887955183,0.42016806722689076
743,6.685,IMU0,-0.0458984375,-0.4921875,-0.0498046875,0.7703081232492998,-265.1260504201681,0.9103641456582633
744,6.695,IMU0,-0.0654296875,-0.49609375,-0.0517578125,3.5014005602240896,-262.3949579831933,0.7703081232492998
745,6.705,IMU0,-0.0380859375,-0.4931640625,-0.01904296875,2.170868347338936,-262.8151260504202,1.050420168067227
746,6.715,IMU0,-0.03955078125,-0.498046875,-0.02490234375,6.162464985994398,-263.515406162465,1.050420168067227
747,6.725,IMU0,-0.046875,-0.49462890625,-0.04443359375,0.42016806722689076,-263.515406162465,1.8207282913165266
748,6.735,IMU0,-0.0322265625,-0.49462890625,-0.0546875,1.050420168067227,-264.07563025210084,2.170868347338936
749,6.745,IMU0,-0.04248046875,-0.49609375,-0.03125,0.5602240896358543,-265.26610644257704,2.100840336134454
750,6.755,IMU0,-0.02978515625,-0.494140625,-0.0478515625,5.46218487394958,-266.8767507002801,2.3109243697478994
751,6.765,IMU0,-0.02978515625,-0.49560546875,-0.05078125,6.0924369747899165,-266.9467787114846,2.73109243697479
752,6.775,IMU0,-0.029296875,-0.48974609375,-0.044921875,5.392156862745098,-265.4761904761905,3.2913165266106446
753,6.785,IMU0,-0.0283203125,-0.48828125,-0.03466796875,3.5014005602240896,-265.7563025210084,3.5714285714285716
754,6.795,IMU0,-0.04296875,-0.4912109375,-0.05322265625,1.050420168067227,-266.6666666666667,3.9215686274509807
755,6.805,IMU0,-0.0419921875,-0.49267578125,-0.04052734375,3.011204481792717,-270.23809523809524,3.711484593837535
756,6.815,IMU0,-0.02783203125,-0.49267578125,-0.05615234375,5.742296918767507,-266.45658263305324,4.201680672268908
757,6.825,IMU0,-0.048828125,-0.498046875,-0.06494140625,4.271708683473389,-267.64705882352945,4.69187675070028
758,6.835,IMU0,-0.0546875,-0.49169921875,-0.037109375,3.5014005602240896,-270.7983193277311,4.341736694677872
759,6.845,IMU0,-0.04736328125,-0.49755859375,-0.0390625,2.5910364145658265,-269.2577030812325,4.271708683473389
760,6.855,IMU0,-0.0712890625,-0.4990234375,-0.04052734375,5.9523809523809526,-268.8375350140056,4.481792717086835
761,6.865,IMU0,-0.06787109375,-0.501953125,-0.02734375,5.392156862745098,-269.5378151260504,4.621848739495799
762,6.875,IMU0,-0.0673828125,-0.50146484375,-0.009765625,4.201680672268908,-267.7871148459384,4.271708683473389
763,6.885,IMU0,-0.0732421875,-0.4951171875,-0.00439453125,5.042016806722689,-270.30812324929974,3.991596638655462
764,6.895,IMU0,-0.06884765625,-0.4951171875,0.01123046875,3.081232492997199,-269.18767507002804,3.641456582633053
765,6.905,IMU0,-0.0625,-0.49951171875,0.00244140625,1.400560224089636,-268.3473389355742,3.5714285714285716
766,6.915,IMU0,-0.064453125,-0.50146484375,0.00830078125,1.6106442577030813,-267.08683473389357,3.5014005602240896
767,6.925,IMU0,-0.0625,-0.50146484375,-0.001953125,5.322128851540617,-267.296918767507,3.5714285714285716
768,6.935,IMU0,-0.05712890625,-0.5068359375,0.0126953125,0.6302521008403361,-266.03641456582636,3.781512605042017
769,6.945,IMU0,-0.0703125,-0.51220703125,-0.001953125,-1.680672268907563,-265.4761904761905,3.711484593837535
770,6.955,IMU0,-0.06494140625,-0.51220703125,0.013671875,-1.4705882352941178,-266.1764705882353,3.781512605042017
771,6.965,IMU0,-0.04736328125,-0.51220703125,0.00439453125,0.1400560224089636,-264.6358543417367,4.061624649859944
772,6.975,IMU0,-0.06689453125,-0.5166015625,0.00634765625,1.1904761904761905,-262.6750700280112,4.271708683473389
773,6.985,IMU0,-0.06494140625,-0.517578125,0.0068359375,4.271708683473389,-266.7366946778712,4.131652661064426
774,6.995,IMU0,-0.06396484375,-0.51708984375,0.0087890625,2.100840336134454,-265.546218487395,4.201680672268908
775,7.005,IMU0,-0.06787109375,-0.52197265625,-0.01220703125,1.5406162464985995,-264.2857142857143,4.131652661064426
776,7.015,IMU0,-0.07568359375,-0.51611328125,0.0068359375,1.680672268907563,-265.0560224089636,4.201680672268908
777,7.025,IMU0,-0.06689453125,-0.521484375,-0.00634765625,3.011204481792717,-263.09523809523813,4.271708683473389
778,7.035,IMU0,-0.0791015625,-0.52001953125,-0.013671875,-0.0700280112044818,-258.8235294117647,4.201680672268908
779,7.045,IMU0,-0.0693359375,-0.521484375,-0.01025390625,-0.4901960784313726,-259.03361344537814,4.201680672268908
780,7.055,IMU0,-0.10302734375,-0.51708984375,-0.015625,2.3109243697478994,-262.3949579831933,3.8515406162464987
781,7.065,IMU0,-0.08056640625,-0.525390625,-0.01904296875,-1.1204481792717087,-258.8235294117647,3.711484593837535
782,7.075,IMU0,-0.08056640625,-0.52294921875,-0.02197265625,1.3305322128851542,-260.7843137254902,3.5714285714285716
783,7.085,IMU0,-0.1015625,-0.52783203125,-0.03125,6.302521008403362,-262.8151260504202,3.361344537815126
784,7.095,IMU0,-0.0830078125,-0.52978515625,-0.0498046875,3.9215686274509807,-260.7843137254902,3.2212885154061626
785,7.105,IMU0,-0.0712890625,-0.52392578125,-0.03369140625,0.700280112044818,-258.8235294117647,2.9411764705882355
786,7.115,IMU0,-0.08349609375,-0.54052734375,-0.048828125,0.9803921568627452,-258.33333333333337,2.73109243697479
787,7.125,IMU0,-0.107421875,-0.5419921875,-0.0458984375,2.2408963585434174,-258.68347338935575,2.380952380952381
788,7.135,IMU0,-0.08203125,-0.5341796875,-0.03515625,1.3305322128851542,-259.03361344537814,1.7507002801120448
789,7.145,IMU0,-0.08447265625,-0.5322265625,-0.03515625,-1.2605042016806722,-257.63305322128855,1.1204481792717087
790,7.155,IMU0,-0.0849609375,-0.54052734375,-0.00390625,-3.641456582633053,-256.5826330532213,0.9103641456582633
791,7.165,IMU0,-0.09228515625,-0.5458984375,-0.05322265625,0.7703081232492998,-258.9635854341737,0.0700280112044818
792,7.175,IMU0,-0.0322265625,-0.5625,-0.05517578125,4.761904761904762,-259.87394957983196,-0.0700280112044818
793,7.185,IMU0,-0.06689453125,-0.572265625,0.00244140625,-1.400560224089636,-257.56302521008405,0.1400560224089636
794,7.195,IMU0,-0.07373046875,-0.591796875,-0.0263671875,0.7703081232492998,-258.75350140056025,0.0
795,7.205,IMU0,-0.04736328125,-0.580078125,-0.0888671875,-1.050420168067227,-257.63305322128855,-0.4901960784313726
796,7.215,IMU0,-0.0458984375,-0.587890625,-0.0419921875,-0.4901960784313726,-257.7731092436975,-0.21008403361344538
797,7.225,IMU0,-0.02685546875,-0.58251953125,-0.02099609375,1.5406162464985995,-258.5434173669468,-0.2801120448179272
798,7.235,IMU0,-0.06005859375,-0.56884765625,-0.041015625,-0.42016806722689076,-259.5238095238095,-0.1400560224089636
799,7.245,IMU0,-0.02099609375,-0.583984375,-0.03369140625,2.5210084033613445,-260.7142857142857,0.21008403361344538
800,7.255,IMU0,0.0234375,-0.576171875,-0.0302734375,-0.4901960784313726,-259.6638655462185,0.42016806722689076
801,7.265,IMU0,-0.0595703125,-0.57421875,-0.05810546875,1.4705882352941178,-264.77591036414566,0.5602240896358543
802,7.275,IMU0,-0.0283203125,-0.5673828125,-0.02197265625,2.8711484593837535,-263.30532212885157,0.6302521008403361
803,7.285,IMU0,0.01611328125,-0.5673828125,-0.00732421875,3.151260504201681,-263.9355742296919,0.700280112044818
804,7.295,IMU0,-0.05419921875,-0.5625,-0.07958984375,4.831932773109244,-264.91596638655466,1.1204481792717087
805,7.305,IMU0,-0.033203125,-0.56689453125,-0.00048828125,4.201680672268908,-263.79551820728295,1.2605042016806722
806,7.315,IMU0,0.09521484375,-0.57080078125,-0.0693359375,1.050420168067227,-267.08683473389357,1.8907563025210086
807,7.325,IMU0,-0.02490234375,-0.5634765625,-0.078125,6.372549019607844,-268.8375350140056,3.2212885154061626
808,7.335,IMU0,-0.052734375,-0.57373046875,-0.02392578125,5.2521008403361344,-269.3977591036415,3.5014005602240896
809,7.345,IMU0,0.01806640625,-0.564453125,-0.02734375,7.002801120448179,-270.7282913165266,3.431372549019608
810,7.355,IMU0,-0.00146484375,-0.5576171875,-0.0615234375,6.302521008403362,-271.9187675070028,4.061624649859944
811,7.365,IMU0,-0.0908203125,-0.56103515625,0.017578125,3.711484593837535,-270.0980392156863,4.201680672268908
812,7.375,IMU0,0.02392578125,-0.5712890625,-0.025390625,3.2212885154061626,-271.49859943977594,3.711484593837535
813,7.385,IMU0,0.01171875,-0.55615234375,-0.052734375,6.23249299719888,-273.10924369747903,4.131652661064426
814,7.395,IMU0,-0.099609375,-0.564453125,0.02978515625,9.103641456582633,-275.7002801120448,4.411764705882353
815,7.405,IMU0,-0.01904296875,-0.56494140625,-0.0234375,6.372549019607844,-274.2997198879552,3.991596638655462
816,7.415,IMU0,-0.0087890625,-0.55859375,-0.021484375,1.7507002801120448,-272.54901960784315,3.9215686274509807
817,7.425,IMU0,-0.06298828125,-0.56689453125,-0.021484375,2.8711484593837535,-272.7591036414566,4.061624649859944
818,7.435,IMU0,-0.00244140625,-0.564453125,-0.0029296875,3.431372549019608,-273.1792717086835,4.341736694677872
819,7.445,IMU0,0.00244140625,-0.55810546875,-0.02490234375,7.492997198879552,-276.5406162464986,4.131652661064426
820,7.455,IMU0,-0.0830078125,-0.5703125,-0.0048828125,6.022408963585434,-275.7002801120448,4.621848739495799
821,7.465,IMU0,-0.03857421875,-0.5576171875,0.0,7.983193277310924,-275.91036414565826,4.271708683473389
822,7.475,IMU0,-0.00439453125,-0.55615234375,-0.02783203125,4.061624649859944,-273.5294117647059,4.481792717086835
823,7.485,IMU0,-0.1220703125,-0.5546875,0.01611328125,2.8711484593837535,-278.64145658263305,4.061624649859944
824,7.495,IMU0,-0.0361328125,-0.55078125,0.0380859375,4.831932773109244,-278.2913165266107,3.431372549019608
825,7.505,IMU0,-0.0234375,-0.55126953125,-0.0654296875,4.271708683473389,-277.17086834733897,3.2212885154061626
826,7.515,IMU0,-0.10302734375,-0.548828125,0.02685546875,6.582633053221289,-279.4817927170869,2.6610644257703084
827,7.525,IMU0,0.0068359375,-0.55126953125,0.0078125,5.602240896358544,-277.52100840336135,2.5910364145658265
828,7.535,IMU0,-0.0302734375,-0.54345703125,-0.05224609375,4.271708683473389,-277.8011204481793,3.2913165266106446
829,7.545,IMU0,-0.07958984375,-0.55126953125,-0.00341796875,2.100840336134454,-277.94117647058823,3.2212885154061626
830,7.555,IMU0,-0.04541015625,-0.54345703125,0.0185546875,1.4705882352941178,-277.2408963585434,2.8711484593837535
831,7.565,IMU0,-0.04541015625,-0.5458984375,-0.05078125,3.2913165266106446,-278.5714285714286,2.170868347338936
832,7.575,IMU0,-0.01123046875,-0.55078125,-0.056640625,4.271708683473389,-277.7310924369748,2.3109243697478994
833,7.585,IMU0,-0.02294921875,-0.5546875,-0.10205078125,2.100840336134454,-278.5014005602241,2.801120448179272
834,7.595,IMU0,-0.02978515625,-0.5341796875,-0.0146484375,0.8403361344537815,-280.25210084033614,2.801120448179272
835,7.605,IMU0,0.00830078125,-0.53955078125,0.02978515625,-0.6302521008403361,-278.1512605042017,3.361344537815126
836,7.615,IMU0,-0.03369140625,-0.54833984375,-0.08447265625,0.350140056022409,-281.7927170868347,3.5014005602240896
837,7.625,IMU0,-0.0478515625,-0.53173828125,-0.060546875,0.21008403361344538,-282.49299719887955,3.9215686274509807
838,7.635,IMU0,-0.05810546875,-0.53173828125,-0.02783203125,1.7507002801120448,-281.5826330532213,3.431372549019608
839,7.645,IMU0,-0.0400390625,-0.5439453125,-0.0732421875,9.033613445378151,-282.4229691876751,2.6610644257703084
840,7.655,IMU0,-0.029296875,-0.541015625,-0.0498046875,8.823529411764707,-283.1232492997199,2.3109243697478994
841,7.665,IMU0,-0.03857421875,-0.54638671875,0.0009765625,3.2913165266106446,-283.68347338935575,2.170868347338936
842,7.675,IMU0,-0.01220703125,-0.5478515625,-0.06103515625,4.341736694677872,-286.2044817927171,2.5910364145658265
843,7.685,IMU0,-0.07080078125,-0.5234375,-0.037109375,4.761904761904762,-285.99439775910366,2.5210084033613445
844,7.695,IMU0,0.01123046875,-0.52783203125,-0.0263671875,3.361344537815126,-283.4033613445378,2.450980392156863
845,7.705,IMU0,-0.00439453125,-0.53271484375,0.00146484375,6.0924369747899165,-285.36414565826334,2.5910364145658265
846,7.715,IMU0,-0.064453125,-0.53466796875,-0.0322265625,5.602240896358544,-286.9047619047619,2.5210084033613445
847,7.725,IMU0,0.03515625,-0.5224609375,-0.03759765625,5.182072829131653,-283.5434173669468,2.73109243697479
848,7.735,IMU0,-0.01171875,-0.52783203125,0.02685546875,9.243697478991598,-286.9747899159664,2.8711484593837535
849,7.745,IMU0,-0.00634765625,-0.529296875,0.03076171875,3.9215686274509807,-289.14565826330534,3.431372549019608
850,7.755,IMU0,-0.04052734375,-0.52685546875,-0.10595703125,4.201680672268908,-289.4957983193277,3.711484593837535
851,7.765,IMU0,-0.02880859375,-0.52880859375,0.06103515625,4.411764705882353,-289.77591036414566,3.641456582633053
852,7.775,IMU0,-0.00830078125,-0.52734375,0.00390625,4.271708683473389,-290.19607843137254,3.5714285714285716
853,7.785,IMU0,-0.00732421875,-0.52294921875,-0.1171875,6.162464985994398,-291.9467787114846,3.991596638655462
854,7.795,IMU0,-0.02197265625,-0.529296875,0.0537109375,5.46218487394958,-293.69747899159665,4.271708683473389
855,7.805,IMU0,-0.00634765625,-0.5244140625,-0.04443359375,7.983193277310924,-293.62745098039215,4.481792717086835
856,7.815,IMU0,-0.06103515625,-0.52392578125,-0.0341796875,4.551820728291316,-296.218487394958,4.341736694677872
857,7.825,IMU0,-0.00048828125,-0.52001953125,-0.03076171875,3.641456582633053,-296.8487394957983,4.201680672268908
858,7.835,IMU0,-0.01953125,-0.5283203125,0.02880859375,4.761904761904762,-297.6890756302521,4.271708683473389
859,7.845,IMU0,-0.08984375,-0.51708984375,-0.013671875,4.971988795518207,-298.59943977591035,3.991596638655462
860,7.855,IMU0,0.0283203125,-0.525390625,-0.10595703125,4.831932773109244,-300.0,3.991596638655462
861,7.865,IMU0,-0.01904296875,-0.5224609375,0.0439453125,4.481792717086835,-298.4593837535014,4.201680672268908
862,7.875,IMU0,-0.05712890625,-0.50927734375,-0.01611328125,5.46218487394958,-299.78991596638656,4.131652661064426
863,7.885,IMU0,-0.01806640625,-0.517578125,-0.0810546875,4.411764705882353,-300.91036414565826,4.201680672268908
864,7.895,IMU0,-0.0693359375,-0.50732421875,-0.025390625,5.6722689075630255,-299.22969187675073,3.991596638655462
865,7.905,IMU0,-0.033203125,-0.5146484375,-0.00537109375,6.23249299719888,-299.4397759103642,3.431372549019608
866,7.915,IMU0,-0.0029296875,-0.52001953125,-0.0244140625,6.722689075630252,-298.66946778711485,3.361344537815126
867,7.925,IMU0,-0.04345703125,-0.5048828125,-0.0068359375,7.773109243697479,-299.3697478991597,3.711484593837535
868,7.935,IMU0,-0.0322265625,-0.50732421875,0.00732421875,6.932773109243698,-299.5098039215686,3.5014005602240896
869,7.945,IMU0,-0.01611328125,-0.513671875,-0.029296875,5.46218487394958,-297.4089635854342,3.431372549019608
870,7.955,IMU0,-0.0654296875,-0.50390625,-0.0166015625,4.131652661064426,-299.5798319327731,3.151260504201681
871,7.965,IMU0,0.0166015625,-0.51513671875,-0.02001953125,3.151260504201681,-296.7086834733894,3.2212885154061626
872,7.975,IMU0,-0.025390625,-0.50634765625,0.005859375,1.1904761904761905,-299.15966386554624,3.431372549019608
873,7.985,IMU0,-0.068359375,-0.51513671875,-0.041015625,5.112044817927171,-300.6302521008403,3.361344537815126
874,7.995,IMU0,-0.04052734375,-0.50537109375,0.03125,4.411764705882353,-300.140056022409,2.6610644257703084
875,8.005,IMU0,0.02978515625,-0.50634765625,-0.0361328125,4.901960784313726,-301.47058823529414,2.9411764705882355
876,8.015,IMU0,-0.08056640625,-0.50146484375,-0.015625,6.442577030812325,-301.8207282913165,3.081232492997199
877,8.025,IMU0,0.015625,-0.50830078125,0.0185546875,3.8515406162464987,-303.2212885154062,3.011204481792717
878,8.035,IMU0,-0.080078125,-0.50244140625,-0.05712890625,4.131652661064426,-305.6022408963586,2.801120448179272
879,8.045,IMU0,0.00341796875,-0.48876953125,-0.037109375,5.9523809523809526,-303.5714285714286,2.8711484593837535
880,8.055,IMU0,0.00537109375,-0.50341796875,0.00244140625,5.882352941176471,-304.13165266106444,3.081232492997199
881,8.065,IMU0,-0.1162109375,-0.4951171875,0.04248046875,4.551820728291316,-305.39215686274514,2.8711484593837535
882,8.075,IMU0,0.00830078125,-0.48828125,-0.0234375,4.971988795518207,-305.25210084033614,2.2408963585434174
883,8.085,IMU0,-0.01806640625,-0.4931640625,-0.01318359375,5.112044817927171,-305.5322128851541,2.5210084033613445
884,8.095,IMU0,-0.033203125,-0.498046875,-0.0615234375,5.112044817927171,-306.1624649859944,2.8711484593837535
885,8.105,IMU0,-0.029296875,-0.5009765625,-0.0087890625,4.481792717086835,-306.51260504201684,2.6610644257703084
886,8.115,IMU0,-0.05810546875,-0.49951171875,-0.025390625,4.201680672268908,-306.9327731092437,2.5210084033613445
887,8.125,IMU0,-0.02490234375,-0.49072265625,-0.01416015625,4.201680672268908,-305.672268907563,2.3109243697478994
888,8.135,IMU0,-0.12548828125,-0.50244140625,-0.0283203125,5.8123249299719895,-307.56302521008405,2.5210084033613445
889,8.145,IMU0,0.03564453125,-0.48583984375,0.0107421875,7.42296918767507,-305.25210084033614,2.3109243697478994
890,8.155,IMU0,-0.0673828125,-0.49853515625,-0.03857421875,9.453781512605042,-307.4229691876751,2.100840336134454
891,8.165,IMU0,-0.07958984375,-0.49169921875,-0.02099609375,6.652661064425771,-305.18207282913164,1.680672268907563
892,8.175,IMU0,0.0546875,-0.478515625,-0.0439453125,4.061624649859944,-305.812324929972,1.6106442577030813
893,8.185,IMU0,-0.06103515625,-0.490234375,0.041015625,4.621848739495799,-306.3025210084034,1.9607843137254903
894,8.195,IMU0,-0.07568359375,-0.49267578125,-0.03662109375,3.711484593837535,-307.2829131652661,1.6106442577030813
895,8.205,IMU0,-0.00927734375,-0.48291015625,-0.09521484375,1.1904761904761905,-307.07282913165267,0.9103641456582633
896,8.215,IMU0,-0.0107421875,-0.47900390625,0.060546875,2.801120448179272,-309.03361344537814,0.8403361344537815
897,8.225,IMU0,-0.0185546875,-0.494140625,-0.02099609375,2.73109243697479,-307.07282913165267,1.3305322128851542
898,8.235,IMU0,-0.03857421875,-0.48046875,-0.0224609375,2.73109243697479,-306.8627450980392,1.6106442577030813
899,8.245,IMU0,0.013671875,-0.486328125,-0.02099609375,2.9411764705882355,-307.63305322128855,1.7507002801120448
900,8.255,IMU0,-0.076171875,-0.486328125,0.025390625,0.0700280112044818,-308.61344537815125,1.7507002801120448
901,8.265,IMU0,0.0361328125,-0.4814453125,-0.05810546875,2.5910364145658265,-308.75350140056025,1.8207282913165266
902,8.275,IMU0,-0.08154296875,-0.48828125,0.0048828125,5.46218487394958,-310.0140056022409,1.680672268907563
903,8.285,IMU0,-0.0341796875,-0.4853515625,-0.00341796875,4.971988795518207,-309.73389355742296,1.400560224089636
904,8.295,IMU0,0.06884765625,-0.4814453125,-0.0234375,3.431372549019608,-308.33333333333337,1.680672268907563
905,8.305,IMU0,-0.12158203125,-0.4716796875,0.01318359375,3.5714285714285716,-311.2745098039216,1.8207282913165266
906,8.315,IMU0,0.03662109375,-0.474609375,0.01220703125,3.781512605042017,-311.1344537815126,1.680672268907563
907,8.325,IMU0,0.02978515625,-0.46337890625,-0.04248046875,4.411764705882353,-311.41456582633054,2.170868347338936
908,8.335,IMU0,-0.07421875,-0.478515625,0.0224609375,5.46218487394958,-313.09523809523813,2.6610644257703084
909,8.345,IMU0,-0.060546875,-0.474609375,-0.0263671875,4.411764705882353,-314.84593837535016,2.100840336134454
910,8.355,IMU0,0.00634765625,-0.47216796875,-0.07470703125,6.862745098039216,-314.21568627450984,1.9607843137254903
911,8.365,IMU0,-0.00146484375,-0.46826171875,0.013671875,3.2212885154061626,-315.0560224089636,2.030812324929972
912,8.375,IMU0,0.01123046875,-0.47705078125,0.0576171875,2.9411764705882355,-315.7563025210084,2.5910364145658265
913,8.385,IMU0,-0.05029296875,-0.470703125,-0.04150390625,2.450980392156863,-316.8067226890756,2.9411764705882355
914,8.395,IMU0,-0.01318359375,-0.4658203125,-0.04638671875,4.761904761904762,-315.6162464985995,3.011204481792717
915,8.405,IMU0,0.0048828125,-0.4677734375,0.017578125,3.711484593837535,-314.4257703081233,3.081232492997199
916,8.415,IMU0,-0.06494140625,-0.47119140625,0.00537109375,2.801120448179272,-317.296918767507,3.2212885154061626
917,8.425,IMU0,0.0,-0.4697265625,-0.0546875,3.8515406162464987,-315.0560224089636,3.2212885154061626
918,8.435,IMU0,0.02734375,-0.46826171875,-0.02294921875,5.112044817927171,-317.8571428571429,3.5714285714285716
919,8.445,IMU0,-0.0927734375,-0.4599609375,0.02587890625,4.481792717086835,-318.4873949579832,3.641456582633053
920,8.455,IMU0,-0.03515625,-0.4697265625,0.001953125,4.551820728291316,-317.92717086834733,3.151260504201681
921,8.465,IMU0,0.02685546875,-0.4599609375,-0.0888671875,5.2521008403361344,-316.9467787114846,3.151260504201681
922,8.475,IMU0,-0.06396484375,-0.4697265625,0.06689453125,5.8123249299719895,-317.50700280112045,3.431372549019608
923,8.485,IMU0,-0.02490234375,-0.46826171875,0.03955078125,1.7507002801120448,-317.2268907563025,3.081232492997199
924,8.495,IMU0,0.02734375,-0.4658203125,-0.09130859375,2.5210084033613445,-319.5378151260504,3.641456582633053
925,8.505,IMU0,-0.06982421875,-0.4677734375,0.01220703125,3.5014005602240896,-320.4481792717087,3.5714285714285716
926,8.515,IMU0,-0.0126953125,-0.46728515625,0.02978515625,3.431372549019608,-319.11764705882354,3.431372549019608
927,8.525,IMU0,-0.02880859375,-0.45654296875,-0.06884765625,1.400560224089636,-320.0980392156863,3.431372549019608
928,8.535,IMU0,-0.0390625,-0.4599609375,0.04345703125,2.9411764705882355,-320.37815126050424,3.711484593837535
929,8.545,IMU0,-0.03759765625,-0.45263671875,-0.037109375,1.9607843137254903,-319.18767507002804,3.361344537815126
930,8.555,IMU0,-0.01025390625,-0.45947265625,0.00732421875,4.621848739495799,-319.74789915966386,3.2913165266106446
931,8.565,IMU0,-0.05224609375,-0.45849609375,0.00390625,2.380952380952381,-318.4173669467787,3.361344537815126
932,8.575,IMU0,-0.015625,-0.45654296875,-0.02294921875,2.2408963585434174,-318.4173669467787,3.2913165266106446
933,8.585,IMU0,-0.04052734375,-0.45361328125,-0.04541015625,5.602240896358544,-319.18767507002804,3.2913165266106446
934,8.595,IMU0,-0.029296875,-0.451171875,0.02001953125,2.5910364145658265,-318.62745098039215,3.2913165266106446
935,8.605,IMU0,-0.03662109375,-0.45703125,0.04150390625,3.781512605042017,-319.04761904761904,2.8711484593837535
936,8.615,IMU0,0.03173828125,-0.45556640625,-0.07568359375,4.551820728291316,-321.42857142857144,3.431372549019608
937,8.625,IMU0,-0.07568359375,-0.455078125,0.01171875,1.9607843137254903,-321.218487394958,3.5714285714285716
938,8.635,IMU0,-0.033203125,-0.453125,0.0390625,1.9607843137254903,-321.9887955182073,3.431372549019608
939,8.645,IMU0,0.0087890625,-0.4501953125,-0.046875,3.2913165266106446,-320.86834733893556,3.641456582633053
940,8.655,IMU0,-0.03857421875,-0.4443359375,-0.0693359375,2.6610644257703084,-319.74789915966386,3.991596638655462
941,8.665,IMU0,-0.087890625,-0.45068359375,0.0634765625,3.5714285714285716,-320.4481792717087,3.711484593837535
942,8.675,IMU0,0.02099609375,-0.44775390625,-0.01513671875,4.69187675070028,-319.25770308123253,3.2913165266106446
943,8.685,IMU0,-0.0263671875,-0.4560546875,0.08203125,3.2212885154061626,-321.7787114845938,3.5014005602240896
944,8.695,IMU0,-0.02294921875,-0.4462890625,0.0,5.2521008403361344,-322.89915966386553,3.2913165266106446
945,8.705,IMU0,-0.04541015625,-0.4453125,-0.0712890625,4.411764705882353,-322.7591036414566,3.2212885154061626
946,8.715,IMU0,-0.087890625,-0.4501953125,0.0380859375,2.73109243697479,-323.249299719888,2.5210084033613445
947,8.725,IMU0,0.046875,-0.4384765625,0.0029296875,6.0924369747899165,-322.19887955182077,2.380952380952381
948,8.735,IMU0,-0.0302734375,-0.4423828125,-0.03515625,4.271708683473389,-325.0700280112045,2.9411764705882355
949,8.745,IMU0,-0.06298828125,-0.43603515625,0.04052734375,3.9215686274509807,-324.0196078431373,2.73109243697479
950,8.755,IMU0,0.0166015625,-0.43896484375,-0.00244140625,3.641456582633053,-325.91036414565826,2.5910364145658265
951,8.765,IMU0,-0.0234375,-0.4365234375,-0.02978515625,4.201680672268908,-326.05042016806726,2.801120448179272
952,8.775,IMU0,-0.041015625,-0.43896484375,0.04833984375,3.991596638655462,-327.10084033613447,2.9411764705882355
953,8.785,IMU0,0.02783203125,-0.43798828125,-0.0439453125,3.781512605042017,-324.85994397759106,3.2212885154061626
954,8.795,IMU0,-0.05712890625,-0.43603515625,0.0078125,2.170868347338936,-327.66106442577035,3.5014005602240896
955,8.805,IMU0,-0.0107421875,-0.44091796875,-0.02001953125,0.9803921568627452,-326.890756302521,3.5714285714285716
956,8.815,IMU0,0.02783203125,-0.43701171875,0.015625,2.030812324929972,-328.3613445378151,3.711484593837535
957,8.825,IMU0,-0.06591796875,-0.43017578125,-0.0146484375,3.9215686274509807,-327.94117647058823,3.991596638655462
958,8.835,IMU0,-0.01904296875,-0.4375,-0.0478515625,5.182072829131653,-328.5714285714286,3.991596638655462
959,8.845,IMU0,-0.05615234375,-0.43896484375,-0.00244140625,5.392156862745098,-328.2212885154062,3.711484593837535
960,8.855,IMU0,-0.0029296875,-0.43798828125,-0.01123046875,5.8123249299719895,-328.1512605042017,3.5014005602240896
961,8.865,IMU0,-0.01416015625,-0.43701171875,-0.0234375,3.431372549019608,-328.64145658263305,3.641456582633053
962,8.875,IMU0,-0.03466796875,-0.43310546875,-0.0205078125,4.481792717086835,-329.6918767507003,3.9215686274509807
963,8.885,IMU0,-0.009765625,-0.4267578125,-0.0029296875,5.042016806722689,-329.4817927170869,3.781512605042017
964,8.895,IMU0,-0.01806640625,-0.43359375,-0.02001953125,1.9607843137254903,-329.9719887955182,4.061624649859944
965,8.905,IMU0,-0.0888671875,-0.4326171875,0.013671875,5.9523809523809526,-331.2324929971989,3.8515406162464987
966,8.915,IMU0,0.00244140625,-0.43212890625,-0.0302734375,4.831932773109244,-330.4621848739496,3.431372549019608
967,8.925,IMU0,-0.00927734375,-0.42431640625,-0.01025390625,4.411764705882353,-330.5322128851541,3.781512605042017
968,8.935,IMU0,-0.06689453125,-0.4267578125,0.015625,6.0924369747899165,-331.44257703081234,3.781512605042017
969,8.945,IMU0,-0.005859375,-0.4248046875,0.00048828125,4.901960784313726,-329.9719887955182,3.641456582633053
970,8.955,IMU0,-0.01123046875,-0.4140625,-0.0556640625,3.081232492997199,-329.6918767507003,3.711484593837535
971,8.965,IMU0,-0.11572265625,-0.43310546875,0.02587890625,4.341736694677872,-329.3417366946779,3.2212885154061626
972,8.975,IMU0,0.01708984375,-0.42138671875,0.013671875,4.761904761904762,-328.71148459383755,2.6610644257703084
973,8.985,IMU0,0.021484375,-0.4228515625,-0.099609375,6.022408963585434,-328.78151260504205,3.011204481792717
974,8.995,IMU0,-0.12255859375,-0.43310546875,0.05224609375,5.5322128851540615,-331.1624649859944,3.151260504201681
975,9.005,IMU0,0.0185546875,-0.4248046875,0.01513671875,5.602240896358544,-329.4817927170869,2.5910364145658265
976,9.015,IMU0,0.02734375,-0.4140625,-0.02783203125,3.9215686274509807,-330.95238095238096,2.9411764705882355
977,9.025,IMU0,-0.13671875,-0.42822265625,0.03515625,2.6610644257703084,-332.703081232493,2.73109243697479
978,9.035,IMU0,0.06201171875,-0.41552734375,-0.046875,4.901960784313726,-329.9719887955182,2.450980392156863
979,9.045,IMU0,-0.02490234375,-0.42138671875,-0.01904296875,4.971988795518207,-333.8235294117647,2.9411764705882355
980,9.055,IMU0,-0.04638671875,-0.421875,0.03076171875,4.901960784313726,-333.05322128851543,3.2212885154061626
981,9.065,IMU0,-0.0126953125,-0.41650390625,-0.00927734375,5.602240896358544,-334.593837535014,3.011204481792717
982,9.075,IMU0,0.0068359375,-0.40869140625,-0.06982421875,3.361344537815126,-334.80392156862746,3.361344537815126
983,9.085,IMU0,-0.068359375,-0.4169921875,0.052734375,6.442577030812325,-333.5434173669468,3.2913165266106446
984,9.095,IMU0,-0.00634765625,-0.416015625,-0.029296875,5.602240896358544,-332.49299719887955,2.8711484593837535
985,9.105,IMU0,0.0068359375,-0.41357421875,-0.025390625,4.901960784313726,-333.2633053221289,3.081232492997199
986,9.115,IMU0,-0.06591796875,-0.4140625,-0.00341796875,5.5322128851540615,-334.24369747899163,3.081232492997199
987,9.125,IMU0,0.0361328125,-0.41259765625,-0.0107421875,5.392156862745098,-335.4341736694678,3.081232492997199
988,9.135,IMU0,-0.05908203125,-0.4111328125,-0.0361328125,5.5322128851540615,-337.11484593837537,3.081232492997199
989,9.145,IMU0,-0.0390625,-0.4111328125,0.01318359375,4.831932773109244,-335.22408963585434,3.081232492997199
990,9.155,IMU0,0.04443359375,-0.41650390625,-0.0009765625,2.5210084033613445,-334.87394957983196,3.151260504201681
991,9.165,IMU0,-0.05322265625,-0.41162109375,-0.01806640625,4.621848739495799,-335.7142857142857,3.361344537815126
992,9.175,IMU0,-0.046875,-0.40673828125,-0.0107421875,4.621848739495799,-335.8543417366947,3.2212885154061626
993,9.185,IMU0,0.015625,-0.40673828125,-0.00146484375,6.302521008403362,-335.1540616246499,3.011204481792717
994,9.195,IMU0,-0.05810546875,-0.4111328125,-0.0244140625,5.882352941176471,-336.624649859944,3.081232492997199
995,9.205,IMU0,-0.0439453125,-0.40771484375,-0.01953125,6.372549019607844,-335.22408963585434,2.9411764705882355
996,9.215,IMU0,-0.017578125,-0.4091796875,-0.02978515625,4.341736694677872,-334.17366946778714,2.5210084033613445
997,9.225,IMU0,-0.0263671875,-0.40673828125,0.00927734375,5.6722689075630255,-333.75350140056025,2.5210084033613445
998,9.235,IMU0,0.0068359375,-0.40966796875,-0.060546875,3.5714285714285716,-335.6442577030812,1.9607843137254903
999,9.245,IMU0,-0.021484375,-0.39697265625,-0.01416015625,3.2212885154061626,-335.1540616246499,2.030812324929972
1000,9.255,IMU0,-0.08544921875,-0.40576171875,0.04248046875,4.271708683473389,-335.7843137254902,1.680672268907563
1001,9.265,IMU0,0.01708984375,-0.40185546875,-0.041015625,4.551820728291316,-335.29411764705884,1.4705882352941178
1002,9.275,IMU0,-0.01953125,-0.39697265625,-0.015625,6.162464985994398,-336.9747899159664,1.4705882352941178
1003,9.285,IMU0,-0.0361328125,-0.40576171875,-0.00244140625,4.551820728291316,-335.4341736694678,1.680672268907563
1004,9.295,IMU0,-0.03125,-0.396484375,-0.0390625,4.131652661064426,-335.22408963585434,1.680672268907563
1005,9.305,IMU0,-0.00537109375,-0.39892578125,0.02001953125,6.372549019607844,-334.5238095238095,1.7507002801120448
1006,9.315,IMU0,-0.03564453125,-0.39599609375,0.04052734375,4.761904761904762,-336.2745098039216,1.6106442577030813
1007,9.325,IMU0,0.0009765625,-0.39892578125,-0.07666015625,5.392156862745098,-336.764705882353,1.5406162464985995
1008,9.335,IMU0,-0.0302734375,-0.39892578125,-0.0029296875,5.112044817927171,-337.3949579831933,1.8207282913165266
1009,9.345,IMU0,-0.06396484375,-0.4013671875,0.021484375,5.9523809523809526,-335.7142857142857,1.6106442577030813
1010,9.355,IMU0,0.04638671875,-0.39404296875,-0.0068359375,4.201680672268908,-335.92436974789916,1.6106442577030813
1011,9.365,IMU0,-0.0615234375,-0.392578125,-0.0283203125,5.2521008403361344,-337.8851540616247,1.7507002801120448
1012,9.375,IMU0,0.02294921875,-0.3916015625,0.01220703125,4.551820728291316,-338.2352941176471,2.030812324929972
1013,9.385,IMU0,-0.0439453125,-0.3984375,0.0087890625,4.621848739495799,-339.6358543417367,2.170868347338936
1014,9.395,IMU0,-0.0166015625,-0.39404296875,-0.04052734375,5.112044817927171,-338.4453781512605,2.5210084033613445
1015,9.405,IMU0,-0.0029296875,-0.3876953125,-0.0185546875,4.201680672268908,-337.8851540616247,2.6610644257703084
1016,9.415,IMU0,-0.00927734375,-0.39697265625,0.044921875,6.0924369747899165,-339.4957983193277,2.8711484593837535
1017,9.425,IMU0,-0.0517578125,-0.39501953125,-0.04052734375,6.0924369747899165,-340.96638655462186,2.9411764705882355
1018,9.435,IMU0,-0.02978515625,-0.39306640625,-0.0263671875,7.773109243697479,-339.6358543417367,2.5910364145658265
1019,9.445,IMU0,-0.01513671875,-0.3916015625,0.03515625,4.971988795518207,-340.6862745098039,2.3109243697478994
1020,9.455,IMU0,-0.02978515625,-0.39404296875,-0.06005859375,4.621848739495799,-339.3557422969188,2.6610644257703084
1021,9.465,IMU0,-0.06640625,-0.3916015625,0.013671875,4.761904761904762,-338.4453781512605,2.3109243697478994
1022,9.475,IMU0,0.0205078125,-0.39111328125,0.0107421875,3.081232492997199,-338.65546218487395,2.170868347338936
1023,9.485,IMU0,-0.06884765625,-0.39404296875,0.0224609375,5.112044817927171,-339.6358543417367,2.170868347338936
1024,9.495,IMU0,0.0126953125,-0.38623046875,-0.02587890625,4.551820728291316,-339.7058823529412,2.170868347338936
1025,9.505,IMU0,-0.0556640625,-0.3837890625,0.021484375,4.201680672268908,-340.89635854341736,1.8207282913165266
1026,9.515,IMU0,0.02978515625,-0.38134765625,-0.013671875,4.69187675070028,-339.07563025210084,2.030812324929972
1027,9.525,IMU0,-0.06298828125,-0.38525390625,-0.01416015625,4.621848739495799,-340.546218487395,2.030812324929972
1028,9.535,IMU0,-0.02294921875,-0.3837890625,0.0283203125,4.551820728291316,-339.77591036414566,2.2408963585434174
1029,9.545,IMU0,-0.02880859375,-0.384765625,-0.02099609375,5.112044817927171,-339.3557422969188,2.030812324929972
1030,9.555,IMU0,-0.07373046875,-0.38623046875,-0.0029296875,4.341736694677872,-338.8655462184874,1.5406162464985995
1031,9.565,IMU0,0.04638671875,-0.3837890625,0.044921875,4.761904761904762,-339.14565826330534,1.400560224089636
1032,9.575,IMU0,-0.04833984375,-0.38623046875,0.001953125,3.9215686274509807,-340.0560224089636,1.6106442577030813
1033,9.585,IMU0,-0.02197265625,-0.38037109375,-0.03271484375,2.5210084033613445,-339.6358543417367,1.8207282913165266
1034,9.595,IMU0,0.00341796875,-0.375,0.0107421875,3.9215686274509807,-340.26610644257704,1.9607843137254903
1035,9.605,IMU0,-0.068359375,-0.38134765625,0.015625,2.6610644257703084,-339.21568627450984,2.030812324929972
1036,9.615,IMU0,-0.01123046875,-0.37158203125,-0.033203125,3.151260504201681,-338.09523809523813,1.6106442577030813
1037,9.625,IMU0,0.0322265625,-0.3701171875,0.037109375,3.991596638655462,-337.8151260504202,2.030812324929972
1038,9.635,IMU0,-0.05517578125,-0.37744140625,-0.01416015625,3.991596638655462,-339.14565826330534,2.450980392156863
1039,9.645,IMU0,-0.04833984375,-0.3818359375,-0.0537109375,4.69187675070028,-337.8851540616247,2.100840336134454
1040,9.655,IMU0,0.0654296875,-0.37109375,0.06103515625,4.201680672268908,-339.0056022408964,2.380952380952381
1041,9.665,IMU0,-0.04736328125,-0.37451171875,-0.0322265625,4.201680672268908,-339.84593837535016,2.8711484593837535
1042,9.675,IMU0,-0.0478515625,-0.3837890625,-0.0224609375,6.23249299719888,-338.515406162465,2.801120448179272
1043,9.685,IMU0,0.05908203125,-0.37060546875,0.02294921875,4.341736694677872,-338.1652661064426,2.9411764705882355
1044,9.695,IMU0,-0.01025390625,-0.37060546875,-0.01171875,2.9411764705882355,-338.09523809523813,3.711484593837535
1045,9.705,IMU0,-0.04931640625,-0.37255859375,-0.01611328125,4.341736694677872,-338.72549019607845,3.9215686274509807
1046,9.715,IMU0,-0.0390625,-0.37353515625,0.00244140625,3.151260504201681,-338.58543417366946,3.5014005602240896
1047,9.725,IMU0,0.03466796875,-0.3671875,0.021484375,2.73109243697479,-337.95518207282913,3.431372549019608
1048,9.735,IMU0,-0.01318359375,-0.37255859375,-0.02685546875,3.991596638655462,-338.9355742296919,3.9215686274509807
1049,9.745,IMU0,-0.0556640625,-0.36474609375,0.0087890625,4.411764705882353,-338.9355742296919,3.9215686274509807
1050,9.755,IMU0,0.01220703125,-0.37158203125,-0.029296875,5.2521008403361344,-339.5658263305322,3.781512605042017
1051,9.765,IMU0,-0.02685546875,-0.35888671875,-0.02197265625,5.6722689075630255,-339.84593837535016,3.991596638655462
1052,9.775,IMU0,-0.0029296875,-0.36767578125,0.052734375,5.112044817927171,-339.5658263305322,4.131652661064426
1053,9.785,IMU0,-0.02587890625,-0.36962890625,-0.00341796875,5.602240896358544,-339.7058823529412,4.481792717086835
1054,9.795,IMU0,-0.021484375,-0.36669921875,0.046875,5.112044817927171,-338.79551820728295,4.201680672268908
1055,9.805,IMU0,-0.0068359375,-0.37255859375,-0.0625,5.5322128851540615,-339.91596638655466,4.341736694677872
1056,9.815,IMU0,-0.06884765625,-0.36962890625,0.01220703125,4.271708683473389,-339.84593837535016,4.271708683473389
1057,9.825,IMU0,0.0302734375,-0.3603515625,0.05615234375,5.2521008403361344,-340.6862745098039,4.061624649859944
1058,9.835,IMU0,-0.0400390625,-0.365234375,-0.0439453125,6.512605042016807,-340.8263305322129,4.271708683473389
1059,9.845,IMU0,-0.05908203125,-0.36181640625,0.00146484375,6.722689075630252,-339.5658263305322,4.131652661064426
1060,9.855,IMU0,-0.01513671875,-0.35791015625,0.02392578125,5.182072829131653,-341.5966386554622,3.641456582633053
1061,9.865,IMU0,-0.04833984375,-0.36376953125,-0.001953125,5.112044817927171,-342.50700280112045,3.361344537815126
1062,9.875,IMU0,-0.0009765625,-0.35546875,0.01708984375,6.652661064425771,-341.2464985994398,3.2212885154061626
1063,9.885,IMU0,-0.02880859375,-0.3603515625,-0.00244140625,5.182072829131653,-339.2857142857143,3.5014005602240896
1064,9.895,IMU0,-0.06884765625,-0.35986328125,-0.025390625,6.862745098039216,-339.5658263305322,3.431372549019608
1065,9.905,IMU0,-0.05615234375,-0.3671875,0.06103515625,6.022408963585434,-338.79551820728295,2.73109243697479
