,ts,id,Gx,Gy,Gz,Ax,Ay,Az
0,-0.324,IMU1,1.707317073170732,-1.0975609756097562,-0.1829268292682927,-0.94921875,0.064453125,0.2724609375
1,-0.324,IMU2,0.48780487804878053,0.24390243902439027,-0.7317073170731708,-0.9677734375,0.064453125,0.2568359375
2,-0.314,IMU0,-0.7317073170731708,0.3658536585365854,-0.3658536585365854,-0.953125,0.0654296875,0.263671875
3,-0.314,IMU1,1.707317073170732,-0.853658536585366,-0.12195121951219513,-0.9482421875,0.0654296875,0.275390625
4,-0.314,IMU2,0.48780487804878053,0.48780487804878053,-0.7317073170731708,-0.966796875,0.06640625,0.2607421875
5,-0.304,IMU0,-0.7317073170731708,0.1829268292682927,-0.1829268292682927,-0.9541015625,0.0634765625,0.2578125
6,-0.304,IMU1,1.707317073170732,-1.0365853658536586,0.12195121951219513,-0.9501953125,0.0615234375,0.2685546875
7,-0.304,IMU2,0.48780487804878053,0.24390243902439027,-0.48780487804878053,-0.9697265625,0.0634765625,0.255859375
8,-0.294,IMU0,-0.7926829268292683,0.1829268292682927,-0.3658536585365854,-0.953125,0.0673828125,0.26171875
9,-0.294,IMU1,1.7682926829268295,-1.0975609756097562,-0.12195121951219513,-0.9462890625,0.0634765625,0.271484375
10,-0.294,IMU2,0.48780487804878053,0.24390243902439027,-0.6707317073170732,-0.9658203125,0.064453125,0.259765625
11,-0.284,IMU0,-0.6707317073170732,0.426829268292683,-0.30487804878048785,-0.955078125,0.064453125,0.26171875
12,-0.284,IMU1,1.7682926829268295,-0.853658536585366,0.0,-0.9482421875,0.0615234375,0.271484375
13,-0.284,IMU2,0.6097560975609757,0.48780487804878053,-0.5487804878048781,-0.96875,0.0625,0.2578125
14,-0.274,IMU0,-0.7317073170731708,0.24390243902439027,-0.30487804878048785,-0.955078125,0.0712890625,0.2587890625
15,-0.274,IMU1,1.707317073170732,-0.9756097560975611,0.06097560975609757,-0.9501953125,0.068359375,0.26953125
16,-0.274,IMU2,0.426829268292683,0.30487804878048785,-0.5487804878048781,-0.970703125,0.068359375,0.2529296875
17,-0.264,IMU0,-0.7317073170731708,0.24390243902439027,-0.426829268292683,-0.9521484375,0.0673828125,0.2666015625
18,-0.264,IMU1,1.707317073170732,-1.0365853658536586,-0.12195121951219513,-0.9462890625,0.0634765625,0.2763671875
19,-0.264,IMU2,0.426829268292683,0.3658536585365854,-0.6707317073170732,-0.966796875,0.0634765625,0.2607421875
20,-0.254,IMU0,-0.6707317073170732,0.3658536585365854,-0.1829268292682927,-0.9541015625,0.0654296875,0.2626953125
21,-0.254,IMU1,1.829268292682927,-0.853658536585366,0.12195121951219513,-0.9501953125,0.0625,0.2724609375
22,-0.254,IMU2,0.5487804878048781,0.426829268292683,-0.426829268292683,-0.9677734375,0.0625,0.2568359375
23,-0.244,IMU0,-0.6707317073170732,0.1829268292682927,-0.30487804878048785,-0.955078125,0.0712890625,0.2578125
24,-0.244,IMU1,1.829268292682927,-0.9146341463414634,0.0,-0.951171875,0.068359375,0.2685546875
25,-0.244,IMU2,0.48780487804878053,0.3658536585365854,-0.5487804878048781,-0.970703125,0.068359375,0.2578125
26,-0.234,IMU0,-0.7317073170731708,0.1829268292682927,-0.30487804878048785,-0.951171875,0.0693359375,0.26171875
27,-0.234,IMU1,1.707317073170732,-1.0365853658536586,-0.06097560975609757,-0.947265625,0.064453125,0.2705078125
28,-0.234,IMU2,0.426829268292683,0.30487804878048785,-0.6707317073170732,-0.966796875,0.064453125,0.2607421875
29,-0.224,IMU0,-0.6097560975609757,0.426829268292683,-0.12195121951219513,-0.9560546875,0.06640625,0.2607421875
30,-0.224,IMU1,1.8902439024390245,-0.853658536585366,0.1829268292682927,-0.9521484375,0.0615234375,0.271484375
31,-0.224,IMU2,0.6097560975609757,0.48780487804878053,-0.426829268292683,-0.970703125,0.0625,0.2607421875
32,-0.214,IMU0,-0.48780487804878053,0.426829268292683,-0.24390243902439027,-0.955078125,0.068359375,0.26171875
33,-0.214,IMU1,1.9512195121951221,-0.7317073170731708,0.12195121951219513,-0.9521484375,0.0634765625,0.2724609375
34,-0.214,IMU2,0.6097560975609757,0.48780487804878053,-0.5487804878048781,-0.97265625,0.0654296875,0.2587890625
35,-0.204,IMU0,-0.7317073170731708,0.426829268292683,-0.24390243902439027,-0.955078125,0.0654296875,0.2646484375
36,-0.204,IMU1,1.7682926829268295,-0.7926829268292683,0.0,-0.951171875,0.060546875,0.275390625
37,-0.204,IMU2,0.48780487804878053,0.5487804878048781,-0.6097560975609757,-0.9716796875,0.060546875,0.2587890625
38,-0.194,IMU0,-0.5487804878048781,0.426829268292683,-0.1829268292682927,-0.9580078125,0.0654296875,0.26171875
39,-0.194,IMU1,1.829268292682927,-0.7317073170731708,0.06097560975609757,-0.9541015625,0.0615234375,0.2685546875
40,-0.194,IMU2,0.6097560975609757,0.5487804878048781,-0.5487804878048781,-0.9736328125,0.0625,0.25390625
41,-0.184,IMU0,-0.6707317073170732,0.3658536585365854,-0.12195121951219513,-0.953125,0.0693359375,0.263671875
42,-0.184,IMU1,1.829268292682927,-0.7926829268292683,0.12195121951219513,-0.9501953125,0.06640625,0.271484375
43,-0.184,IMU2,0.5487804878048781,0.5487804878048781,-0.48780487804878053,-0.9697265625,0.0654296875,0.2587890625
44,-0.174,IMU0,-0.7926829268292683,0.3658536585365854,-0.24390243902439027,-0.9541015625,0.0654296875,0.263671875
45,-0.174,IMU1,1.707317073170732,-0.853658536585366,0.06097560975609757,-0.951171875,0.0615234375,0.271484375
46,-0.174,IMU2,0.426829268292683,0.48780487804878053,-0.6097560975609757,-0.96875,0.0615234375,0.2578125
47,-0.164,IMU0,-0.6097560975609757,0.30487804878048785,-0.3658536585365854,-0.9541015625,0.064453125,0.259765625
48,-0.164,IMU1,1.829268292682927,-0.853658536585366,-0.06097560975609757,-0.951171875,0.0615234375,0.2685546875
49,-0.164,IMU2,0.5487804878048781,0.48780487804878053,-0.6097560975609757,-0.96875,0.05859375,0.2578125
50,-0.154,IMU0,-0.7317073170731708,0.12195121951219513,-0.12195121951219513,-0.9541015625,0.072265625,0.2587890625
51,-0.154,IMU1,1.707317073170732,-1.1585365853658538,0.06097560975609757,-0.9501953125,0.0654296875,0.2666015625
52,-0.154,IMU2,0.426829268292683,0.3658536585365854,-0.48780487804878053,-0.9638671875,0.0693359375,0.255859375
53,-0.144,IMU0,-1.0365853658536586,-0.48780487804878053,0.06097560975609757,-0.978515625,0.04296875,0.2841796875
54,-0.144,IMU1,1.829268292682927,-1.8902439024390245,0.30487804878048785,-0.9765625,0.033203125,0.2890625
55,-0.144,IMU2,0.1829268292682927,-0.426829268292683,-0.24390243902439027,-0.98828125,0.0419921875,0.267578125
56,-0.134,IMU0,0.24390243902439027,0.30487804878048785,0.12195121951219513,-0.974609375,0.10546875,0.263671875
57,-0.134,IMU1,3.048780487804878,-0.48780487804878053,0.6097560975609757,-0.97265625,0.095703125,0.2705078125
58,-0.134,IMU2,1.4634146341463417,0.5487804878048781,-0.12195121951219513,-0.9814453125,0.1025390625,0.251953125
59,-0.124,IMU0,2.1951219512195124,3.7195121951219514,-0.06097560975609757,-1.1474609375,0.017578125,0.3173828125
60,-0.124,IMU1,4.573170731707317,3.1707317073170733,0.12195121951219513,-1.1513671875,0.0703125,0.3349609375
61,-0.124,IMU2,3.1707317073170733,3.780487804878049,-0.426829268292683,-1.1669921875,0.033203125,0.3037109375
62,-0.114,IMU0,2.0121951219512195,5.670731707317073,-2.073170731707317,-1.4208984375,0.0732421875,0.4775390625
63,-0.114,IMU1,4.146341463414634,2.073170731707317,-2.1341463414634148,-1.4228515625,0.1337890625,0.462890625
64,-0.114,IMU2,2.987804878048781,4.573170731707317,-2.439024390243903,-1.443359375,0.095703125,0.4599609375
65,-0.104,IMU0,0.7926829268292683,2.7439024390243905,-6.219512195121951,-1.6767578125,0.2060546875,0.4921875
66,-0.104,IMU1,3.048780487804878,1.9512195121951221,-6.036585365853659,-1.6875,0.2158203125,0.5361328125
67,-0.104,IMU2,1.829268292682927,2.7439024390243905,-6.52439024390244,-1.69921875,0.216796875,0.494140625
68,-0.094,IMU0,-0.1829268292682927,-2.378048780487805,-6.829268292682928,-1.8974609375,0.1884765625,0.6318359375
69,-0.094,IMU1,2.1341463414634148,-4.390243902439025,-6.646341463414635,-1.91015625,0.109375,0.6669921875
70,-0.094,IMU2,0.7926829268292683,-2.804878048780488,-7.134146341463415,-1.9208984375,0.1572265625,0.640625
71,-0.084,IMU0,1.4634146341463417,-7.682926829268293,-8.414634146341465,-2.0166015625,0.0556640625,0.671875
72,-0.084,IMU1,3.8414634146341466,-8.902439024390244,-8.231707317073171,-2.0087890625,0.0263671875,0.671875
73,-0.084,IMU2,2.5609756097560976,-7.500000000000001,-8.719512195121952,-2.033203125,0.03515625,0.6611328125
74,-0.074,IMU0,4.878048780487806,-8.292682926829269,-7.560975609756098,-2.1650390625,0.1689453125,0.7841796875
75,-0.074,IMU1,7.500000000000001,-9.634146341463415,-7.195121951219513,-2.1513671875,0.177734375,0.7861328125
76,-0.074,IMU2,5.975609756097562,-8.170731707317074,-7.8048780487804885,-2.1806640625,0.1884765625,0.75390625
77,-0.064,IMU0,14.695121951219514,-0.853658536585366,-9.51219512195122,-2.4150390625,-0.0078125,0.845703125
78,-0.064,IMU1,17.073170731707318,-2.6219512195121952,-9.085365853658537,-2.4013671875,0.07421875,0.8759765625
79,-0.064,IMU2,16.03658536585366,-1.2195121951219514,-9.573170731707318,-2.4287109375,0.0263671875,0.8701171875
80,-0.054,IMU0,23.719512195121954,2.804878048780488,-9.207317073170733,-2.6982421875,0.0849609375,0.8779296875
81,-0.054,IMU1,25.975609756097562,2.5609756097560976,-8.902439024390244,-2.689453125,0.1044921875,0.921875
82,-0.054,IMU2,25.000000000000004,3.231707317073171,-9.26829268292683,-2.71875,0.0908203125,0.9033203125
83,-0.044,IMU0,28.231707317073173,8.658536585365855,-9.146341463414634,-2.9091796875,0.08984375,0.990234375
84,-0.044,IMU1,30.365853658536587,7.8048780487804885,-8.414634146341465,-2.9033203125,0.1259765625,1.0302734375
85,-0.044,IMU2,29.81707317073171,8.78048780487805,-9.02439024390244,-2.921875,0.10546875,1.017578125
86,-0.034,IMU0,32.37804878048781,8.78048780487805,-8.048780487804878,-3.1435546875,0.189453125,1.015625
87,-0.034,IMU1,34.32926829268293,6.707317073170732,-7.560975609756098,-3.1240234375,0.2421875,1.0400390625
88,-0.034,IMU2,33.53658536585366,8.048780487804878,-7.987804878048781,-3.150390625,0.2177734375,1.041015625
89,-0.024,IMU0,31.463414634146343,1.5853658536585367,-13.719512195121952,-3.265625,0.158203125,1.078125
90,-0.024,IMU1,34.024390243902445,0.0,-13.29268292682927,-3.2216796875,0.26171875,1.115234375
91,-0.024,IMU2,32.43902439024391,1.2195121951219514,-13.719512195121952,-3.2578125,0.2421875,1.09765625
92,-0.014,IMU0,29.207317073170735,-6.707317073170732,-13.719512195121952,-3.25,0.3427734375,1.078125
93,-0.014,IMU1,30.54878048780488,-7.317073170731708,-12.926829268292684,-3.224609375,0.3505859375,1.109375
94,-0.014,IMU2,29.32926829268293,-6.219512195121951,-13.536585365853659,-3.251953125,0.3779296875,1.0771484375
95,-0.004,IMU0,27.073170731707318,-5.914634146341464,-9.02439024390244,-3.208984375,0.3125,1.1376953125
96,-0.004,IMU1,28.59756097560976,-6.707317073170732,-8.231707317073171,-3.197265625,0.234375,1.13671875
97,-0.004,IMU2,27.621951219512198,-5.548780487804878,-8.841463414634147,-3.2177734375,0.28515625,1.1015625
98,0.006,IMU0,25.121951219512198,-3.7195121951219514,-4.390243902439025,-3.283203125,0.294921875,1.1435546875
99,0.006,IMU1,28.04878048780488,-4.634146341463415,-3.9024390243902443,-3.2880859375,0.181640625,1.1337890625
100,0.006,IMU2,26.82926829268293,-3.7195121951219514,-4.451219512195122,-3.31640625,0.21875,1.1259765625
101,0.016,IMU0,23.658536585365855,0.30487804878048785,-8.109756097560977,-3.3115234375,0.2138671875,1.1552734375
102,0.016,IMU1,26.09756097560976,-0.853658536585366,-7.987804878048781,-3.291015625,0.234375,1.2021484375
103,0.016,IMU2,24.81707317073171,0.06097560975609757,-8.597560975609756,-3.3291015625,0.24609375,1.19140625
104,0.026,IMU0,22.25609756097561,2.25609756097561,-11.28048780487805,-3.3251953125,0.2822265625,1.20703125
105,0.026,IMU1,24.390243902439025,1.6463414634146343,-10.670731707317074,-3.3037109375,0.287109375,1.2119140625
106,0.026,IMU2,22.926829268292686,2.6219512195121952,-11.28048780487805,-3.333984375,0.3154296875,1.177734375
107,0.036,IMU0,21.219512195121954,4.024390243902439,-10.426829268292684,-3.3779296875,0.263671875,1.201171875
108,0.036,IMU1,23.902439024390247,3.231707317073171,-9.695121951219512,-3.3740234375,0.1318359375,1.1875
109,0.036,IMU2,22.743902439024392,4.146341463414634,-10.30487804878049,-3.3984375,0.1669921875,1.15625
110,0.046,IMU0,21.158536585365855,0.30487804878048785,-7.8048780487804885,-3.416015625,0.1611328125,1.17578125
111,0.046,IMU1,23.29268292682927,-0.9756097560975611,-7.378048780487806,-3.388671875,0.1748046875,1.2060546875
112,0.046,IMU2,22.378048780487806,-0.06097560975609757,-7.926829268292684,-3.4169921875,0.1982421875,1.185546875
113,0.056,IMU0,20.54878048780488,-3.048780487804878,-5.914634146341464,-3.3427734375,0.2451171875,1.1943359375
114,0.056,IMU1,22.865853658536587,-3.780487804878049,-5.2439024390243905,-3.314453125,0.2587890625,1.2080078125
115,0.056,IMU2,21.34146341463415,-2.5,-5.731707317073171,-3.341796875,0.2861328125,1.1689453125
116,0.066,IMU0,19.02439024390244,-2.987804878048781,-2.7439024390243905,-3.28125,0.2734375,1.2060546875
117,0.066,IMU1,21.82926829268293,-3.8414634146341466,-2.1951219512195124,-3.2705078125,0.1640625,1.1923828125
118,0.066,IMU2,20.79268292682927,-2.5609756097560976,-2.7439024390243905,-3.298828125,0.19140625,1.1728515625
119,0.076,IMU0,18.353658536585368,-1.5853658536585367,-1.829268292682927,-3.2783203125,0.1884765625,1.171875
120,0.076,IMU1,20.975609756097562,-2.439024390243903,-1.402439024390244,-3.2529296875,0.1923828125,1.2001953125
121,0.076,IMU2,19.695121951219512,-1.4634146341463417,-2.0121951219512195,-3.279296875,0.220703125,1.1875
122,0.086,IMU0,15.487804878048783,-0.6097560975609757,-3.353658536585366,-3.2607421875,0.2578125,1.181640625
123,0.086,IMU1,17.5609756097561,-1.402439024390244,-2.804878048780488,-3.251953125,0.2265625,1.19140625
124,0.086,IMU2,16.82926829268293,-0.853658536585366,-3.4756097560975614,-3.2841796875,0.2490234375,1.1689453125
125,0.096,IMU0,14.329268292682928,-0.426829268292683,-4.024390243902439,-3.2626953125,0.1865234375,1.177734375
126,0.096,IMU1,16.402439024390244,-0.9146341463414634,-3.536585365853659,-3.244140625,0.150390625,1.1953125
127,0.096,IMU2,15.487804878048783,0.0,-4.146341463414634,-3.2724609375,0.1767578125,1.177734375
128,0.106,IMU0,12.621951219512196,0.1829268292682927,-3.536585365853659,-3.2392578125,0.2939453125,1.19140625
129,0.106,IMU1,15.487804878048783,-0.5487804878048781,-3.231707317073171,-3.2216796875,0.2353515625,1.201171875
130,0.106,IMU2,14.02439024390244,0.30487804878048785,-3.7195121951219514,-3.248046875,0.2734375,1.1748046875
131,0.116,IMU0,10.731707317073171,0.9146341463414634,-2.8658536585365857,-3.216796875,0.2177734375,1.1884765625
132,0.116,IMU1,13.475609756097562,-0.3658536585365854,-2.6219512195121952,-3.189453125,0.2275390625,1.1962890625
133,0.116,IMU2,11.707317073170733,0.7926829268292683,-3.1097560975609757,-3.2216796875,0.236328125,1.162109375
134,0.126,IMU0,10.853658536585368,2.25609756097561,-0.7317073170731708,-3.2080078125,0.18359375,1.1748046875
135,0.126,IMU1,13.170731707317074,1.1585365853658538,-0.426829268292683,-3.185546875,0.1376953125,1.181640625
136,0.126,IMU2,11.829268292682928,2.3170731707317076,-0.9146341463414634,-3.21484375,0.166015625,1.1748046875
137,0.136,IMU0,8.170731707317074,1.5853658536585367,-1.6463414634146343,-3.2041015625,0.337890625,1.19921875
138,0.136,IMU1,10.731707317073171,0.6097560975609757,-1.2804878048780488,-3.1943359375,0.2744140625,1.203125
139,0.136,IMU2,9.085365853658537,1.829268292682927,-1.829268292682927,-3.2275390625,0.3203125,1.1845703125
140,0.146,IMU0,4.329268292682928,0.0,-7.621951219512196,-3.2060546875,0.2783203125,1.166015625
141,0.146,IMU1,6.463414634146342,-1.1585365853658538,-7.134146341463415,-3.19140625,0.29296875,1.1787109375
142,0.146,IMU2,5.670731707317073,0.0,-7.865853658536586,-3.23046875,0.2900390625,1.154296875
143,0.156,IMU0,3.1097560975609757,-2.804878048780488,-9.390243902439025,-3.150390625,0.1552734375,1.154296875
144,0.156,IMU1,4.817073170731708,-3.4756097560975614,-8.963414634146343,-3.1357421875,0.1396484375,1.1728515625
145,0.156,IMU2,4.085365853658537,-2.5609756097560976,-9.634146341463415,-3.16015625,0.15234375,1.1591796875
146,0.166,IMU0,4.390243902439025,-3.2926829268292686,-6.097560975609756,-3.005859375,0.2236328125,1.1396484375
147,0.166,IMU1,6.402439024390245,-3.963414634146342,-5.914634146341464,-2.9990234375,0.142578125,1.1474609375
148,0.166,IMU2,5.3048780487804885,-2.9268292682926833,-6.402439024390245,-3.0078125,0.2080078125,1.1376953125
149,0.176,IMU0,5.609756097560976,-1.2804878048780488,-0.5487804878048781,-2.814453125,0.3095703125,1.125
150,0.176,IMU1,7.743902439024391,-2.1341463414634148,-0.426829268292683,-2.8037109375,0.251953125,1.1142578125
151,0.176,IMU2,7.01219512195122,-0.7317073170731708,-0.9756097560975611,-2.826171875,0.30078125,1.083984375
152,0.186,IMU0,5.548780487804878,3.1707317073170733,-1.4634146341463417,-2.7177734375,0.255859375,1.0546875
153,0.186,IMU1,7.743902439024391,2.439024390243903,-1.0975609756097562,-2.7041015625,0.2685546875,1.0712890625
154,0.186,IMU2,6.829268292682928,3.658536585365854,-1.707317073170732,-2.736328125,0.2509765625,1.033203125
155,0.196,IMU0,5.3048780487804885,3.8414634146341466,-2.0121951219512195,-2.701171875,0.23046875,1.0224609375
156,0.196,IMU1,8.231707317073171,3.353658536585366,-1.6463414634146343,-2.689453125,0.2451171875,1.0419921875
157,0.196,IMU2,6.646341463414635,4.573170731707317,-2.25609756097561,-2.7177734375,0.2216796875,1.013671875
158,0.206,IMU0,5.3048780487804885,3.8414634146341466,-2.0121951219512195,-2.701171875,0.23046875,1.0224609375
159,0.206,IMU1,5.365853658536586,-1.0365853658536586,-5.0,-2.619140625,0.228515625,0.96484375
160,0.206,IMU2,4.024390243902439,0.1829268292682927,-5.731707317073171,-2.6513671875,0.2265625,0.9599609375
161,0.216,IMU0,-0.06097560975609757,-7.317073170731708,-9.085365853658537,-2.515625,0.228515625,0.900390625
162,0.216,IMU1,2.439024390243903,-7.926829268292684,-8.658536585365855,-2.5107421875,0.201171875,0.9267578125
163,0.216,IMU2,1.2195121951219514,-6.951219512195123,-9.451219512195122,-2.533203125,0.2275390625,0.8974609375
164,0.226,IMU0,-0.853658536585366,-9.02439024390244,-9.51219512195122,-2.4189453125,0.2431640625,0.8779296875
165,0.226,IMU1,1.707317073170732,-9.756097560975611,-9.390243902439025,-2.4091796875,0.1953125,0.8916015625
166,0.226,IMU2,0.48780487804878053,-8.597560975609756,-9.817073170731708,-2.41796875,0.2490234375,0.8671875
167,0.236,IMU0,-0.7317073170731708,-7.865853658536586,-6.463414634146342,-2.3349609375,0.2724609375,0.8583984375
168,0.236,IMU1,1.9512195121951221,-9.390243902439025,-6.402439024390245,-2.326171875,0.203125,0.8701171875
169,0.236,IMU2,0.48780487804878053,-7.500000000000001,-6.7682926829268295,-2.3388671875,0.2861328125,0.8505859375
170,0.246,IMU0,0.12195121951219513,-4.75609756097561,-2.6219512195121952,-2.2919921875,0.3310546875,0.84375
171,0.246,IMU1,2.439024390243903,-5.975609756097562,-2.5,-2.28125,0.2646484375,0.845703125
172,0.246,IMU2,1.0975609756097562,-4.451219512195122,-2.8658536585365857,-2.2998046875,0.3408203125,0.82421875
173,0.256,IMU0,0.9756097560975611,-2.1951219512195124,0.6097560975609757,-2.291015625,0.3466796875,0.8759765625
174,0.256,IMU1,3.1707317073170733,-3.048780487804878,0.7317073170731708,-2.28515625,0.3037109375,0.8583984375
175,0.256,IMU2,1.7682926829268295,-1.7682926829268295,0.30487804878048785,-2.3017578125,0.3369140625,0.8251953125
176,0.266,IMU0,1.1585365853658538,-0.12195121951219513,0.30487804878048785,-2.3330078125,0.349609375,0.84375
177,0.266,IMU1,3.353658536585366,-1.5853658536585367,0.5487804878048781,-2.328125,0.3427734375,0.8544921875
178,0.266,IMU2,2.439024390243903,0.06097560975609757,-0.12195121951219513,-2.3662109375,0.326171875,0.8173828125
179,0.276,IMU0,-0.3658536585365854,-3.1707317073170733,-5.365853658536586,-2.380859375,0.310546875,0.8251953125
180,0.276,IMU1,1.6463414634146343,-4.573170731707317,-4.939024390243903,-2.3701171875,0.32421875,0.8310546875
181,0.276,IMU2,0.7926829268292683,-2.8658536585365857,-5.7926829268292686,-2.4169921875,0.2744140625,0.8115234375
182,0.286,IMU0,-0.853658536585366,-5.487804878048781,-6.7682926829268295,-2.3642578125,0.259765625,0.849609375
183,0.286,IMU1,0.853658536585366,-7.134146341463415,-6.402439024390245,-2.345703125,0.2841796875,0.84375
184,0.286,IMU2,0.48780487804878053,-5.548780487804878,-6.951219512195123,-2.375,0.21875,0.8310546875
185,0.296,IMU0,0.48780487804878053,-3.963414634146342,-5.853658536585367,-2.3330078125,0.2060546875,0.8291015625
186,0.296,IMU1,1.829268292682927,-5.2439024390243905,-5.426829268292684,-2.318359375,0.2373046875,0.8359375
187,0.296,IMU2,2.1341463414634148,-3.780487804878049,-6.097560975609756,-2.33984375,0.1767578125,0.828125
188,0.306,IMU0,1.2195121951219514,-1.2804878048780488,-4.024390243902439,-2.3291015625,0.15625,0.8349609375
189,0.306,IMU1,2.804878048780488,-2.5,-3.5975609756097566,-2.3125,0.166015625,0.861328125
190,0.306,IMU2,2.3170731707317076,-1.0365853658536586,-4.207317073170732,-2.33203125,0.15625,0.837890625
191,0.316,IMU0,3.231707317073171,1.402439024390244,-1.0365853658536586,-2.3603515625,0.193359375,0.8212890625
192,0.316,IMU1,5.2439024390243905,0.30487804878048785,-0.6707317073170732,-2.3447265625,0.1611328125,0.8505859375
193,0.316,IMU2,4.2682926829268295,1.1585365853658538,-1.2195121951219514,-2.357421875,0.23046875,0.8388671875
194,0.326,IMU0,2.9268292682926833,0.7317073170731708,-1.524390243902439,-2.359375,0.26171875,0.8095703125
195,0.326,IMU1,5.2439024390243905,-0.30487804878048785,-1.0975609756097562,-2.35546875,0.197265625,0.822265625
196,0.326,IMU2,3.780487804878049,0.5487804878048781,-1.8902439024390245,-2.3671875,0.3173828125,0.8330078125
197,0.336,IMU0,1.829268292682927,-0.853658536585366,-4.024390243902439,-2.359375,0.3095703125,0.8203125
198,0.336,IMU1,4.390243902439025,-1.4634146341463417,-3.658536585365854,-2.3583984375,0.236328125,0.8310546875
199,0.336,IMU2,2.682926829268293,-0.9756097560975611,-4.2682926829268295,-2.3662109375,0.35546875,0.802734375
200,0.346,IMU0,1.0975609756097562,-3.353658536585366,-4.329268292682928,-2.359375,0.3466796875,0.8134765625
201,0.346,IMU1,3.4756097560975614,-4.451219512195122,-4.024390243902439,-2.359375,0.2822265625,0.828125
202,0.346,IMU2,2.1951219512195124,-3.353658536585366,-4.634146341463415,-2.3720703125,0.3662109375,0.787109375
203,0.356,IMU0,1.2195121951219514,-2.682926829268293,-3.2926829268292686,-2.337890625,0.3369140625,0.8408203125
204,0.356,IMU1,3.353658536585366,-3.7195121951219514,-3.1097560975609757,-2.330078125,0.2958984375,0.84375
205,0.356,IMU2,2.5609756097560976,-2.25609756097561,-3.414634146341464,-2.34765625,0.3212890625,0.8095703125
206,0.366,IMU0,1.4634146341463417,-2.0121951219512195,-1.0975609756097562,-2.3310546875,0.314453125,0.81640625
207,0.366,IMU1,3.2926829268292686,-2.804878048780488,-0.853658536585366,-2.3212890625,0.2939453125,0.8134765625
208,0.366,IMU2,2.8658536585365857,-1.6463414634146343,-1.4634146341463417,-2.3515625,0.283203125,0.802734375
209,0.376,IMU0,1.6463414634146343,-0.853658536585366,-0.6097560975609757,-2.33203125,0.3017578125,0.8095703125
210,0.376,IMU1,3.5975609756097566,-1.5853658536585367,-0.30487804878048785,-2.322265625,0.2958984375,0.8154296875
211,0.376,IMU2,3.1097560975609757,-0.30487804878048785,-0.9756097560975611,-2.35546875,0.265625,0.79296875
212,0.386,IMU0,2.073170731707317,-0.3658536585365854,-1.6463414634146343,-2.3134765625,0.28515625,0.810546875
213,0.386,IMU1,4.451219512195122,-1.2804878048780488,-1.3414634146341464,-2.3046875,0.2763671875,0.818359375
214,0.386,IMU2,3.414634146341464,0.30487804878048785,-2.0121951219512195,-2.3359375,0.25390625,0.7802734375
215,0.396,IMU0,1.2804878048780488,-0.30487804878048785,-2.3170731707317076,-2.3154296875,0.2880859375,0.7958984375
216,0.396,IMU1,4.329268292682928,-1.1585365853658538,-2.1951219512195124,-2.3076171875,0.2783203125,0.8095703125
217,0.396,IMU2,2.5,0.3658536585365854,-2.682926829268293,-2.3388671875,0.251953125,0.7705078125
218,0.406,IMU0,1.0365853658536586,-1.2195121951219514,-1.9512195121951221,-2.3251953125,0.2900390625,0.8017578125
219,0.406,IMU1,3.963414634146342,-2.439024390243903,-1.707317073170732,-2.3173828125,0.2841796875,0.8203125
220,0.406,IMU2,2.378048780487805,-0.853658536585366,-2.25609756097561,-2.3466796875,0.2353515625,0.783203125
221,0.416,IMU0,0.853658536585366,-2.073170731707317,-2.1951219512195124,-2.298828125,0.29296875,0.7685546875
222,0.416,IMU1,3.353658536585366,-2.987804878048781,-1.9512195121951221,-2.298828125,0.1845703125,0.7822265625
223,0.416,IMU2,2.5609756097560976,-1.3414634146341464,-2.6219512195121952,-2.32421875,0.2177734375,0.765625
224,0.426,IMU0,0.30487804878048785,-3.353658536585366,-2.378048780487805,-2.271484375,0.2783203125,0.7607421875
225,0.426,IMU1,3.4756097560975614,-4.2682926829268295,-2.1951219512195124,-2.2587890625,0.2978515625,0.77734375
226,0.426,IMU2,2.3170731707317076,-2.5609756097560976,-2.7439024390243905,-2.30078125,0.177734375,0.755859375
227,0.436,IMU0,0.853658536585366,-2.987804878048781,-0.1829268292682927,-2.265625,0.26953125,0.7490234375
228,0.436,IMU1,3.7195121951219514,-3.780487804878049,0.3658536585365854,-2.2646484375,0.126953125,0.7578125
229,0.436,IMU2,2.987804878048781,-2.439024390243903,-0.24390243902439027,-2.28515625,0.15234375,0.7529296875
230,0.446,IMU0,1.0365853658536586,-3.2926829268292686,2.073170731707317,-2.2451171875,0.228515625,0.724609375
231,0.446,IMU1,4.207317073170732,-4.51219512195122,2.439024390243903,-2.2421875,0.0986328125,0.7392578125
232,0.446,IMU2,2.9268292682926833,-3.2926829268292686,1.8902439024390245,-2.265625,0.1201171875,0.734375
233,0.456,IMU0,3.2926829268292686,-2.8658536585365857,4.939024390243903,-2.2255859375,0.1884765625,0.712890625
234,0.456,IMU1,6.402439024390245,-4.329268292682928,5.487804878048781,-2.2138671875,0.103515625,0.73828125
235,0.456,IMU2,5.182926829268293,-3.1097560975609757,4.878048780487806,-2.2333984375,0.119140625,0.724609375
236,0.466,IMU0,3.1097560975609757,-2.7439024390243905,5.0,-2.251953125,0.166015625,0.708984375
237,0.466,IMU1,5.609756097560976,-4.2682926829268295,5.060975609756098,-2.244140625,0.142578125,0.71875
238,0.466,IMU2,4.2682926829268295,-3.231707317073171,4.451219512195122,-2.2685546875,0.15625,0.7021484375
239,0.476,IMU0,1.707317073170732,-3.9024390243902443,1.707317073170732,-2.1708984375,0.1318359375,0.76953125
240,0.476,IMU1,4.146341463414634,-5.0,1.6463414634146343,-2.140625,0.1943359375,0.7705078125
241,0.476,IMU2,2.5,-3.780487804878049,1.0365853658536586,-2.16796875,0.2099609375,0.7529296875
242,0.486,IMU0,3.658536585365854,1.524390243902439,-1.7682926829268295,-2.1865234375,0.0908203125,0.7490234375
243,0.486,IMU1,5.731707317073171,0.24390243902439027,-1.402439024390244,-2.1533203125,0.21484375,0.7802734375
244,0.486,IMU2,4.451219512195122,1.5853658536585367,-1.9512195121951221,-2.177734375,0.236328125,0.7607421875
245,0.496,IMU0,4.817073170731708,2.8658536585365857,-1.1585365853658538,-2.19140625,0.095703125,0.7958984375
246,0.496,IMU1,6.52439024390244,1.4634146341463417,-0.24390243902439027,-2.1455078125,0.216796875,0.810546875
247,0.496,IMU2,5.365853658536586,2.5,-0.7926829268292683,-2.1630859375,0.236328125,0.7744140625
248,0.506,IMU0,9.695121951219512,5.426829268292684,2.1341463414634148,-2.1826171875,0.1318359375,0.822265625
249,0.506,IMU1,10.853658536585368,4.451219512195122,2.7439024390243905,-2.1640625,0.2109375,0.8330078125
250,0.506,IMU2,10.30487804878049,5.548780487804878,2.1341463414634148,-2.189453125,0.22265625,0.80078125
251,0.516,IMU0,12.01219512195122,6.463414634146342,2.0121951219512195,-2.2275390625,0.1796875,0.8173828125
252,0.516,IMU1,13.353658536585368,5.2439024390243905,2.439024390243903,-2.2177734375,0.1787109375,0.8134765625
253,0.516,IMU2,12.80487804878049,6.158536585365854,1.829268292682927,-2.248046875,0.18359375,0.7822265625
254,0.526,IMU0,12.256097560975611,5.365853658536586,-1.0975609756097562,-2.2451171875,0.169921875,0.818359375
255,0.526,IMU1,13.353658536585368,5.2439024390243905,2.439024390243903,-2.2177734375,0.1787109375,0.8134765625
256,0.526,IMU2,13.597560975609758,5.3048780487804885,-1.5853658536585367,-2.26953125,0.169921875,0.8076171875
257,0.536,IMU0,12.621951219512196,3.7195121951219514,-4.085365853658537,-2.294921875,0.1455078125,0.814453125
258,0.536,IMU1,14.26829268292683,2.25609756097561,-3.658536585365854,-2.27734375,0.2119140625,0.841796875
259,0.536,IMU2,13.536585365853659,3.536585365853659,-4.2682926829268295,-2.30078125,0.2392578125,0.8291015625
260,0.546,IMU0,9.817073170731708,0.48780487804878053,-4.51219512195122,-2.30859375,0.15625,0.8232421875
261,0.546,IMU1,11.707317073170733,-0.853658536585366,-3.963414634146342,-2.275390625,0.2431640625,0.8544921875
262,0.546,IMU2,10.365853658536587,0.853658536585366,-4.390243902439025,-2.2978515625,0.2685546875,0.8271484375
263,0.556,IMU0,8.048780487804878,0.426829268292683,-4.451219512195122,-2.3212890625,0.2421875,0.884765625
264,0.556,IMU1,9.51219512195122,-0.9146341463414634,-4.207317073170732,-2.3095703125,0.2802734375,0.896484375
265,0.556,IMU2,8.353658536585366,0.30487804878048785,-4.75609756097561,-2.3427734375,0.283203125,0.873046875
266,0.566,IMU0,4.939024390243903,-1.2195121951219514,-5.670731707317073,-2.447265625,0.302734375,0.8662109375
267,0.566,IMU1,6.890243902439025,-2.439024390243903,-5.0,-2.447265625,0.251953125,0.8798828125
268,0.566,IMU2,6.219512195121951,-1.0975609756097562,-5.548780487804878,-2.4736328125,0.236328125,0.8486328125
269,0.576,IMU0,0.48780487804878053,-8.78048780487805,-4.634146341463415,-2.48046875,0.328125,0.8720703125
270,0.576,IMU1,3.536585365853659,-10.121951219512196,-4.451219512195122,-2.4853515625,0.1962890625,0.865234375
271,0.576,IMU2,2.1951219512195124,-8.414634146341465,-5.060975609756098,-2.517578125,0.1865234375,0.8671875
272,0.586,IMU0,-2.378048780487805,-9.02439024390244,-6.2804878048780495,-2.4404296875,0.2705078125,0.880859375
273,0.586,IMU1,1.3414634146341464,-10.731707317073171,-6.2804878048780495,-2.4482421875,0.140625,0.865234375
274,0.586,IMU2,-0.7317073170731708,-8.963414634146343,-6.829268292682928,-2.47265625,0.1494140625,0.853515625
275,0.596,IMU0,-2.5609756097560976,-4.51219512195122,-6.097560975609756,-2.44140625,0.19140625,0.8310546875
276,0.596,IMU1,0.30487804878048785,-5.7926829268292686,-5.7926829268292686,-2.4345703125,0.126953125,0.853515625
277,0.596,IMU2,-1.0365853658536586,-4.024390243902439,-6.402439024390245,-2.4521484375,0.1787109375,0.8583984375
278,0.606,IMU0,-0.7926829268292683,-1.0975609756097562,-1.2804878048780488,-2.4560546875,0.1435546875,0.8359375
279,0.606,IMU1,2.378048780487805,-2.682926829268293,-0.7317073170731708,-2.419921875,0.2060546875,0.8623046875
280,0.606,IMU2,0.6707317073170732,-0.853658536585366,-1.0975609756097562,-2.4287109375,0.29296875,0.8251953125
281,0.616,IMU0,-1.1585365853658538,1.2804878048780488,-0.6097560975609757,-2.453125,0.236328125,0.818359375
282,0.616,IMU1,1.6463414634146343,-0.48780487804878053,-0.426829268292683,-2.4140625,0.33984375,0.83984375
283,0.616,IMU2,-0.3658536585365854,1.3414634146341464,-0.853658536585366,-2.4345703125,0.3701171875,0.81640625
284,0.626,IMU0,-1.707317073170732,3.231707317073171,-0.6707317073170732,-2.3798828125,0.333984375,0.853515625
285,0.626,IMU1,0.1829268292682927,1.402439024390244,-0.30487804878048785,-2.3623046875,0.3291015625,0.8671875
286,0.626,IMU2,-0.6097560975609757,3.1707317073170733,-1.0365853658536586,-2.4013671875,0.296875,0.8349609375
287,0.636,IMU0,-0.853658536585366,5.609756097560976,1.2804878048780488,-2.36328125,0.171875,0.86328125
288,0.636,IMU1,0.6707317073170732,3.780487804878049,1.402439024390244,-2.3427734375,0.1865234375,0.869140625
289,0.636,IMU2,0.853658536585366,5.3048780487804885,0.9146341463414634,-2.357421875,0.15625,0.8427734375
290,0.646,IMU0,0.426829268292683,3.9024390243902443,3.2926829268292686,-2.400390625,0.20703125,0.84375
291,0.646,IMU1,2.5609756097560976,2.9268292682926833,3.658536585365854,-2.390625,0.1708984375,0.853515625
292,0.646,IMU2,1.829268292682927,3.9024390243902443,2.9268292682926833,-2.4091796875,0.2119140625,0.8359375
293,0.656,IMU0,1.829268292682927,1.0365853658536586,5.060975609756098,-2.31640625,0.2548828125,0.8837890625
294,0.656,IMU1,3.4756097560975614,0.24390243902439027,5.3048780487804885,-2.30078125,0.228515625,0.8671875
295,0.656,IMU2,2.987804878048781,1.4634146341463417,4.75609756097561,-2.3212890625,0.2490234375,0.865234375
296,0.666,IMU0,2.5,-2.5,5.182926829268293,-2.228515625,0.19921875,0.7880859375
297,0.666,IMU1,4.146341463414634,-3.2926829268292686,5.670731707317073,-2.2197265625,0.193359375,0.8203125
298,0.666,IMU2,3.780487804878049,-1.9512195121951221,4.878048780487806,-2.2470703125,0.1962890625,0.8056640625
299,0.676,IMU0,1.0975609756097562,-4.085365853658537,-1.3414634146341464,-2.1845703125,0.2197265625,0.7783203125
300,0.676,IMU1,3.231707317073171,-4.634146341463415,-0.7317073170731708,-2.185546875,0.17578125,0.8046875
301,0.676,IMU2,2.0121951219512195,-3.658536585365854,-1.707317073170732,-2.2099609375,0.2421875,0.7822265625
302,0.686,IMU0,0.853658536585366,-3.353658536585366,-4.51219512195122,-2.146484375,0.2607421875,0.796875
303,0.686,IMU1,3.048780487804878,-3.8414634146341466,-4.207317073170732,-2.146484375,0.2001953125,0.8056640625
304,0.686,IMU2,2.3170731707317076,-2.987804878048781,-4.75609756097561,-2.154296875,0.2783203125,0.771484375
305,0.696,IMU0,2.5609756097560976,-5.609756097560976,-1.0975609756097562,-2.1455078125,0.271484375,0.7607421875
306,0.696,IMU1,5.060975609756098,-6.463414634146342,-0.9146341463414634,-2.130859375,0.244140625,0.7578125
307,0.696,IMU2,3.8414634146341466,-5.182926829268293,-1.3414634146341464,-2.1611328125,0.25390625,0.728515625
308,0.706,IMU0,3.8414634146341466,-6.707317073170732,0.9146341463414634,-2.1240234375,0.2333984375,0.73828125
309,0.706,IMU1,6.463414634146342,-7.621951219512196,1.2195121951219514,-2.1123046875,0.2568359375,0.7373046875
310,0.706,IMU2,5.7926829268292686,-6.158536585365854,0.48780487804878053,-2.15234375,0.17578125,0.712890625
311,0.716,IMU0,4.146341463414634,-5.2439024390243905,-1.3414634146341464,-2.087890625,0.162109375,0.7109375
312,0.716,IMU1,7.134146341463415,-6.402439024390245,-1.0365853658536586,-2.0810546875,0.189453125,0.736328125
313,0.716,IMU2,5.853658536585367,-5.060975609756098,-1.7682926829268295,-2.111328125,0.1416015625,0.7138671875
314,0.726,IMU0,2.804878048780488,-2.9268292682926833,-6.219512195121951,-2.0966796875,0.1552734375,0.689453125
315,0.726,IMU1,5.975609756097562,-4.207317073170732,-5.914634146341464,-2.087890625,0.1201171875,0.7021484375
316,0.726,IMU2,3.9024390243902443,-2.9268292682926833,-6.52439024390244,-2.099609375,0.189453125,0.716796875
317,0.736,IMU0,2.0121951219512195,-2.3170731707317076,-5.670731707317073,-2.0927734375,0.232421875,0.6953125
318,0.736,IMU1,4.75609756097561,-3.2926829268292686,-5.426829268292684,-2.09375,0.1611328125,0.7197265625
319,0.736,IMU2,3.048780487804878,-2.5609756097560976,-5.853658536585367,-2.09765625,0.2822265625,0.6708984375
320,0.746,IMU0,2.073170731707317,-1.0975609756097562,-3.1707317073170733,-2.09765625,0.306640625,0.712890625
321,0.746,IMU1,4.390243902439025,-2.682926829268293,-2.987804878048781,-2.0888671875,0.2666015625,0.6982421875
322,0.746,IMU2,3.1707317073170733,-1.4634146341463417,-3.1707317073170733,-2.1083984375,0.279296875,0.677734375
323,0.756,IMU0,-0.06097560975609757,-0.24390243902439027,-2.5,-2.0625,0.279296875,0.6806640625
324,0.756,IMU1,1.8902439024390245,-2.3170731707317076,-2.1951219512195124,-2.05078125,0.3037109375,0.6943359375
325,0.756,IMU2,1.3414634146341464,-0.24390243902439027,-2.7439024390243905,-2.091796875,0.205078125,0.66796875
326,0.766,IMU0,-0.7926829268292683,2.3170731707317076,-4.329268292682928,-2.08203125,0.203125,0.7060546875
327,0.766,IMU1,1.2195121951219514,0.7926829268292683,-3.8414634146341466,-2.0771484375,0.2216796875,0.7109375
328,0.766,IMU2,0.7926829268292683,2.073170731707317,-4.878048780487806,-2.09375,0.279296875,0.6904296875
329,0.776,IMU0,-2.7439024390243905,1.829268292682927,-8.597560975609756,-2.07421875,0.212890625,0.6728515625
330,0.776,IMU1,-0.426829268292683,0.426829268292683,-8.170731707317074,-2.0673828125,0.1728515625,0.6865234375
331,0.776,IMU2,-2.073170731707317,1.402439024390244,-8.902439024390244,-2.076171875,0.2734375,0.69140625
332,0.786,IMU0,-3.536585365853659,0.5487804878048781,-8.963414634146343,-2.0869140625,0.2841796875,0.705078125
333,0.786,IMU1,-1.402439024390244,-0.853658536585366,-8.719512195121952,-2.080078125,0.2158203125,0.7080078125
334,0.786,IMU2,-3.048780487804878,0.24390243902439027,-8.963414634146343,-2.103515625,0.1962890625,0.6982421875
335,0.796,IMU0,-2.7439024390243905,-0.9756097560975611,-4.695121951219512,-2.083984375,0.359375,0.71484375
336,0.796,IMU1,-0.6707317073170732,-2.378048780487805,-4.451219512195122,-2.0751953125,0.3232421875,0.7158203125
337,0.796,IMU2,-1.9512195121951221,-0.853658536585366,-4.695121951219512,-2.107421875,0.3193359375,0.7001953125
338,0.806,IMU0,-1.8902439024390245,-1.829268292682927,-1.1585365853658538,-2.0595703125,0.3359375,0.6953125
339,0.806,IMU1,0.24390243902439027,-3.2926829268292686,-0.9146341463414634,-2.0478515625,0.341796875,0.69140625
340,0.806,IMU2,-0.9756097560975611,-1.829268292682927,-1.3414634146341464,-2.0654296875,0.359375,0.6611328125
341,0.816,IMU0,-1.6463414634146343,-0.7317073170731708,-1.8902439024390245,-1.9970703125,0.2578125,0.6806640625
342,0.816,IMU1,0.12195121951219513,-2.1341463414634148,-1.5853658536585367,-1.982421875,0.29296875,0.701171875
343,0.816,IMU2,-0.06097560975609757,-0.1829268292682927,-2.1951219512195124,-2.00390625,0.3330078125,0.6708984375
344,0.826,IMU0,-0.1829268292682927,1.3414634146341464,-1.2195121951219514,-2.01953125,0.2021484375,0.681640625
345,0.826,IMU1,1.4634146341463417,0.12195121951219513,-0.853658536585366,-2.0087890625,0.2001953125,0.6953125
346,0.826,IMU2,0.24390243902439027,1.402439024390244,-1.3414634146341464,-2.03125,0.23046875,0.6884765625
347,0.836,IMU0,0.0,1.402439024390244,-1.0365853658536586,-2.0185546875,0.25,0.6796875
348,0.836,IMU1,1.829268292682927,0.7317073170731708,-0.7317073170731708,-2.005859375,0.201171875,0.6923828125
349,0.836,IMU2,0.3658536585365854,1.707317073170732,-1.0975609756097562,-2.0234375,0.2099609375,0.685546875
350,0.846,IMU0,0.853658536585366,1.707317073170732,0.48780487804878053,-1.9755859375,0.3505859375,0.685546875
351,0.846,IMU1,2.8658536585365857,0.426829268292683,0.6707317073170732,-1.97265625,0.2880859375,0.68359375
352,0.846,IMU2,1.7682926829268295,1.7682926829268295,0.06097560975609757,-1.9912109375,0.283203125,0.669921875
353,0.856,IMU0,-0.3658536585365854,1.0975609756097562,-1.0975609756097562,-1.9658203125,0.3798828125,0.6708984375
354,0.856,IMU1,1.829268292682927,-0.12195121951219513,-0.7926829268292683,-1.9619140625,0.37109375,0.6787109375
355,0.856,IMU2,0.7926829268292683,2.1341463414634148,-1.524390243902439,-1.9853515625,0.380859375,0.658203125
356,0.866,IMU0,-0.48780487804878053,1.3414634146341464,-3.9024390243902443,-1.9970703125,0.2802734375,0.68359375
357,0.866,IMU1,1.2804878048780488,-0.1829268292682927,-3.4756097560975614,-1.986328125,0.3125,0.6982421875
358,0.866,IMU2,0.426829268292683,1.3414634146341464,-4.024390243902439,-2.009765625,0.3310546875,0.671875
359,0.876,IMU0,0.06097560975609757,0.0,-4.51219512195122,-2.0087890625,0.216796875,0.662109375
360,0.876,IMU1,2.1951219512195124,-1.1585365853658538,-4.2682926829268295,-1.9951171875,0.2080078125,0.6669921875
361,0.876,IMU2,0.7317073170731708,-0.426829268292683,-4.573170731707317,-2.01171875,0.220703125,0.6591796875
362,0.886,IMU0,0.9756097560975611,-1.524390243902439,-0.9756097560975611,-1.9345703125,0.2939453125,0.6767578125
363,0.886,IMU1,3.658536585365854,-2.7439024390243905,-0.7317073170731708,-1.931640625,0.2333984375,0.689453125
364,0.886,IMU2,2.1341463414634148,-1.0975609756097562,-1.2195121951219514,-1.9482421875,0.24609375,0.6953125
365,0.896,IMU0,0.9756097560975611,1.3414634146341464,-0.3658536585365854,-1.8798828125,0.3828125,0.6806640625
366,0.896,IMU1,3.414634146341464,-0.30487804878048785,-0.06097560975609757,-1.8779296875,0.3388671875,0.69140625
367,0.896,IMU2,2.073170731707317,1.0365853658536586,-0.6707317073170732,-1.8935546875,0.353515625,0.66015625
368,0.906,IMU0,1.524390243902439,3.414634146341464,1.1585365853658538,-1.86328125,0.361328125,0.650390625
369,0.906,IMU1,4.024390243902439,1.707317073170732,1.4634146341463417,-1.8544921875,0.375,0.658203125
370,0.906,IMU2,2.8658536585365857,2.8658536585365857,0.853658536585366,-1.875,0.37890625,0.6337890625
371,0.916,IMU0,0.5487804878048781,5.2439024390243905,-1.829268292682927,-1.8564453125,0.2802734375,0.6416015625
372,0.916,IMU1,2.804878048780488,3.9024390243902443,-1.2804878048780488,-1.8525390625,0.298828125,0.654296875
373,0.916,IMU2,1.8902439024390245,5.182926829268293,-1.9512195121951221,-1.8798828125,0.2998046875,0.646484375
374,0.926,IMU0,1.1585365853658538,4.51219512195122,-5.365853658536586,-1.8330078125,0.3125,0.62109375
375,0.926,IMU1,3.414634146341464,3.353658536585366,-5.0,-1.83203125,0.2705078125,0.64453125
376,0.926,IMU2,2.5609756097560976,4.634146341463415,-5.609756097560976,-1.849609375,0.2900390625,0.6318359375
377,0.936,IMU0,0.426829268292683,1.402439024390244,-5.548780487804878,-1.7861328125,0.423828125,0.630859375
378,0.936,IMU1,2.682926829268293,0.7317073170731708,-5.182926829268293,-1.7861328125,0.376953125,0.630859375
379,0.936,IMU2,1.4634146341463417,1.402439024390244,-5.914634146341464,-1.80078125,0.404296875,0.6025390625
380,0.946,IMU0,0.6097560975609757,1.3414634146341464,-6.158536585365854,-1.826171875,0.3974609375,0.646484375
381,0.946,IMU1,3.5975609756097566,0.1829268292682927,-5.853658536585367,-1.81640625,0.4169921875,0.6484375
382,0.946,IMU2,1.9512195121951221,1.9512195121951221,-6.402439024390245,-1.8447265625,0.41015625,0.630859375
383,0.956,IMU0,1.0975609756097562,-0.1829268292682927,-7.987804878048781,-1.837890625,0.296875,0.5947265625
384,0.956,IMU1,3.9024390243902443,-1.829268292682927,-7.682926829268293,-1.82421875,0.3173828125,0.611328125
385,0.956,IMU2,1.8902439024390245,0.06097560975609757,-8.109756097560977,-1.84765625,0.3037109375,0.6044921875
386,0.966,IMU0,1.402439024390244,-2.804878048780488,-6.341463414634147,-1.8017578125,0.2958984375,0.6171875
387,0.966,IMU1,3.9024390243902443,-4.573170731707317,-5.914634146341464,-1.8017578125,0.275390625,0.6357421875
388,0.966,IMU2,2.682926829268293,-2.25609756097561,-6.585365853658537,-1.8115234375,0.287109375,0.625
389,0.976,IMU0,2.5609756097560976,-2.682926829268293,-2.987804878048781,-1.7421875,0.37109375,0.609375
390,0.976,IMU1,4.939024390243903,-4.024390243902439,-2.3170731707317076,-1.7158203125,0.41796875,0.6123046875
391,0.976,IMU2,3.780487804878049,-2.1341463414634148,-3.231707317073171,-1.744140625,0.357421875,0.5869140625
392,0.986,IMU0,3.2926829268292686,-1.9512195121951221,-1.0975609756097562,-1.6513671875,0.376953125,0.560546875
393,0.986,IMU1,5.182926829268293,-2.8658536585365857,-0.6097560975609757,-1.638671875,0.3798828125,0.5732421875
394,0.986,IMU2,4.2682926829268295,-1.524390243902439,-1.2195121951219514,-1.6630859375,0.369140625,0.5625
395,0.996,IMU0,4.085365853658537,-1.0365853658536586,1.402439024390244,-1.5986328125,0.3916015625,0.5595703125
396,0.996,IMU1,6.097560975609756,-2.0121951219512195,1.7682926829268295,-1.59765625,0.3544921875,0.5556640625
397,0.996,IMU2,5.2439024390243905,-0.7317073170731708,1.1585365853658538,-1.6123046875,0.38671875,0.5234375
398,1.006,IMU0,4.329268292682928,1.1585365853658538,-0.48780487804878053,-1.564453125,0.3876953125,0.5458984375
399,1.006,IMU1,6.646341463414635,0.5487804878048781,-0.12195121951219513,-1.57421875,0.3232421875,0.552734375
400,1.006,IMU2,5.2439024390243905,1.707317073170732,-0.6707317073170732,-1.5830078125,0.3828125,0.5244140625
401,1.016,IMU0,4.451219512195122,1.7682926829268295,-1.707317073170732,-1.5341796875,0.39453125,0.505859375
402,1.016,IMU1,6.890243902439025,0.6707317073170732,-1.524390243902439,-1.5478515625,0.2880859375,0.5048828125
403,1.016,IMU2,5.3048780487804885,1.6463414634146343,-1.8902439024390245,-1.5615234375,0.3876953125,0.490234375
404,1.026,IMU0,3.414634146341464,1.524390243902439,-3.963414634146342,-1.52734375,0.3935546875,0.53515625
405,1.026,IMU1,5.914634146341464,0.6097560975609757,-3.7195121951219514,-1.537109375,0.275390625,0.5107421875
406,1.026,IMU2,4.451219512195122,1.8902439024390245,-4.2682926829268295,-1.5478515625,0.3779296875,0.509765625
407,1.036,IMU0,3.7195121951219514,3.1707317073170733,-3.963414634146342,-1.5234375,0.3466796875,0.5107421875
408,1.036,IMU1,5.731707317073171,1.6463414634146343,-3.536585365853659,-1.53515625,0.2490234375,0.5166015625
409,1.036,IMU2,4.451219512195122,2.987804878048781,-4.146341463414634,-1.5390625,0.328125,0.517578125
410,1.046,IMU0,3.8414634146341466,1.524390243902439,-1.0365853658536586,-1.529296875,0.306640625,0.486328125
411,1.046,IMU1,6.585365853658537,0.1829268292682927,-0.48780487804878053,-1.52734375,0.2216796875,0.5078125
412,1.046,IMU2,4.695121951219512,1.402439024390244,-1.2195121951219514,-1.5400390625,0.2880859375,0.4736328125
413,1.056,IMU0,5.2439024390243905,0.7926829268292683,0.6707317073170732,-1.5078125,0.283203125,0.4990234375
414,1.056,IMU1,7.560975609756098,-0.48780487804878053,0.9756097560975611,-1.5048828125,0.232421875,0.5068359375
415,1.056,IMU2,6.402439024390245,0.7926829268292683,0.3658536585365854,-1.521484375,0.2626953125,0.4970703125
416,1.066,IMU0,5.3048780487804885,-0.30487804878048785,1.1585365853658538,-1.48046875,0.2392578125,0.4775390625
417,1.066,IMU1,7.073170731707318,-1.3414634146341464,1.4634146341463417,-1.4677734375,0.248046875,0.4853515625
418,1.066,IMU2,6.219512195121951,-0.12195121951219513,0.9146341463414634,-1.4931640625,0.2275390625,0.4912109375
419,1.076,IMU0,5.548780487804878,0.48780487804878053,0.7926829268292683,-1.427734375,0.20703125,0.4501953125
420,1.076,IMU1,7.317073170731708,-1.0365853658536586,1.2804878048780488,-1.4091796875,0.24609375,0.466796875
421,1.076,IMU2,6.463414634146342,0.48780487804878053,0.7317073170731708,-1.4365234375,0.205078125,0.4775390625
422,1.086,IMU0,5.548780487804878,1.1585365853658538,0.30487804878048785,-1.37890625,0.216796875,0.4365234375
423,1.086,IMU1,7.195121951219513,-0.12195121951219513,0.426829268292683,-1.369140625,0.2734375,0.4580078125
424,1.086,IMU2,6.463414634146342,0.9756097560975611,0.12195121951219513,-1.400390625,0.2236328125,0.474609375
425,1.096,IMU0,4.146341463414634,1.524390243902439,-2.1341463414634148,-1.3623046875,0.2431640625,0.4306640625
426,1.096,IMU1,5.426829268292684,0.3658536585365854,-1.8902439024390245,-1.3505859375,0.29296875,0.458984375
427,1.096,IMU2,5.060975609756098,1.3414634146341464,-2.378048780487805,-1.380859375,0.2548828125,0.4599609375
428,1.106,IMU0,4.146341463414634,1.829268292682927,-3.2926829268292686,-1.337890625,0.224609375,0.4296875
429,1.106,IMU1,5.670731707317073,0.06097560975609757,-2.7439024390243905,-1.3203125,0.259765625,0.453125
430,1.106,IMU2,4.878048780487806,1.5853658536585367,-3.414634146341464,-1.34765625,0.236328125,0.43359375
431,1.116,IMU0,3.780487804878049,0.30487804878048785,-2.682926829268293,-1.31640625,0.2412109375,0.4228515625
432,1.116,IMU1,5.7926829268292686,-0.9756097560975611,-2.439024390243903,-1.3095703125,0.244140625,0.4541015625
433,1.116,IMU2,4.634146341463415,0.12195121951219513,-2.987804878048781,-1.337890625,0.2431640625,0.4169921875
434,1.126,IMU0,3.963414634146342,0.6707317073170732,-3.536585365853659,-1.2998046875,0.2587890625,0.4423828125
435,1.126,IMU1,5.853658536585367,-0.48780487804878053,-3.1707317073170733,-1.296875,0.236328125,0.470703125
436,1.126,IMU2,5.060975609756098,0.426829268292683,-3.780487804878049,-1.3173828125,0.2529296875,0.4267578125
437,1.136,IMU0,2.3170731707317076,0.06097560975609757,-4.451219512195122,-1.294921875,0.2548828125,0.42578125
438,1.136,IMU1,4.51219512195122,-1.0365853658536586,-4.207317073170732,-1.2958984375,0.1982421875,0.4560546875
439,1.136,IMU2,3.658536585365854,-0.12195121951219513,-4.75609756097561,-1.314453125,0.234375,0.400390625
440,1.146,IMU0,2.5,0.12195121951219513,-3.658536585365854,-1.2900390625,0.2578125,0.4228515625
441,1.146,IMU1,5.0,-0.9756097560975611,-3.231707317073171,-1.2919921875,0.1640625,0.443359375
442,1.146,IMU2,3.8414634146341466,0.0,-3.8414634146341466,-1.30859375,0.2177734375,0.3916015625
443,1.156,IMU0,3.4756097560975614,0.5487804878048781,-2.25609756097561,-1.23828125,0.2841796875,0.423828125
444,1.156,IMU1,5.3048780487804885,-0.7317073170731708,-1.8902439024390245,-1.2509765625,0.1572265625,0.4326171875
445,1.156,IMU2,4.146341463414634,-0.12195121951219513,-2.5,-1.263671875,0.2236328125,0.3857421875
446,1.166,IMU0,3.5975609756097566,0.7926829268292683,-2.25609756097561,-1.205078125,0.2841796875,0.4169921875
447,1.166,IMU1,5.3048780487804885,-0.6707317073170732,-1.7682926829268295,-1.22265625,0.142578125,0.412109375
448,1.166,IMU2,3.963414634146342,0.3658536585365854,-2.3170731707317076,-1.2373046875,0.212890625,0.3662109375
449,1.176,IMU0,2.6219512195121952,1.8902439024390245,-4.451219512195122,-1.21484375,0.1220703125,0.3564453125
450,1.176,IMU1,4.695121951219512,0.3658536585365854,-4.085365853658537,-1.20703125,0.1650390625,0.3896484375
451,1.176,IMU2,3.414634146341464,1.5853658536585367,-4.573170731707317,-1.2197265625,0.2353515625,0.345703125
452,1.186,IMU0,3.1097560975609757,2.6219512195121952,-4.451219512195122,-1.185546875,0.1220703125,0.3671875
453,1.186,IMU1,5.365853658536586,0.9146341463414634,-3.963414634146342,-1.177734375,0.1748046875,0.396484375
454,1.186,IMU2,3.963414634146342,2.378048780487805,-4.451219512195122,-1.189453125,0.2431640625,0.357421875
455,1.196,IMU0,2.7439024390243905,1.1585365853658538,-6.341463414634147,-1.1748046875,0.126953125,0.3310546875
456,1.196,IMU1,5.487804878048781,-0.06097560975609757,-5.914634146341464,-1.166015625,0.1826171875,0.357421875
457,1.196,IMU2,4.207317073170732,1.3414634146341464,-6.341463414634147,-1.1767578125,0.2490234375,0.3203125
458,1.206,IMU0,2.25609756097561,-1.2804878048780488,-6.402439024390245,-1.1650390625,0.1298828125,0.3349609375
459,1.206,IMU1,4.573170731707317,-2.682926829268293,-6.097560975609756,-1.1494140625,0.1865234375,0.3564453125
460,1.206,IMU2,3.1097560975609757,-1.524390243902439,-6.707317073170732,-1.16015625,0.2470703125,0.32421875
461,1.216,IMU0,3.2926829268292686,-0.6707317073170732,-5.182926829268293,-1.1484375,0.1318359375,0.34765625
462,1.216,IMU1,5.609756097560976,-2.1341463414634148,-4.695121951219512,-1.1357421875,0.189453125,0.3720703125
463,1.216,IMU2,4.207317073170732,-0.9756097560975611,-5.3048780487804885,-1.1494140625,0.2451171875,0.3427734375
464,1.226,IMU0,5.487804878048781,0.1829268292682927,-2.682926829268293,-1.1513671875,0.1669921875,0.3408203125
465,1.226,IMU1,7.439024390243903,-1.2804878048780488,-2.25609756097561,-1.13671875,0.2236328125,0.373046875
466,1.226,IMU2,6.097560975609756,-0.24390243902439027,-2.8658536585365857,-1.1484375,0.271484375,0.3408203125
467,1.236,IMU0,6.402439024390245,-0.30487804878048785,-0.7317073170731708,-1.1171875,0.1630859375,0.3232421875
468,1.236,IMU1,8.475609756097562,-1.829268292682927,-0.3658536585365854,-1.1064453125,0.21875,0.3525390625
469,1.236,IMU2,6.890243902439025,-0.853658536585366,-0.9756097560975611,-1.119140625,0.2587890625,0.318359375
470,1.246,IMU0,6.951219512195123,-1.402439024390244,1.0365853658536586,-1.140625,0.173828125,0.333984375
471,1.246,IMU1,9.085365853658537,-2.3170731707317076,1.402439024390244,-1.134765625,0.228515625,0.361328125
472,1.246,IMU2,7.743902439024391,-1.6463414634146343,0.853658536585366,-1.15234375,0.259765625,0.326171875
473,1.256,IMU0,7.865853658536586,-1.1585365853658538,0.3658536585365854,-1.1103515625,0.185546875,0.326171875
474,1.256,IMU1,10.0,-2.25609756097561,0.7926829268292683,-1.1064453125,0.2431640625,0.3330078125
475,1.256,IMU2,8.658536585365855,-1.2804878048780488,0.24390243902439027,-1.125,0.2646484375,0.296875
476,1.266,IMU0,8.414634146341465,-2.0121951219512195,-1.5853658536585367,-1.09765625,0.2099609375,0.341796875
477,1.266,IMU1,10.487804878048781,-3.2926829268292686,-1.0975609756097562,-1.091796875,0.2626953125,0.333984375
478,1.266,IMU2,9.51219512195122,-2.439024390243903,-1.707317073170732,-1.1123046875,0.2763671875,0.30078125
479,1.276,IMU0,9.329268292682928,-0.853658536585366,-3.4756097560975614,-1.1044921875,0.251953125,0.330078125
480,1.276,IMU1,11.036585365853659,-2.378048780487805,-3.048780487804878,-1.0966796875,0.2978515625,0.3173828125
481,1.276,IMU2,10.30487804878049,-1.2195121951219514,-3.658536585365854,-1.1181640625,0.306640625,0.2939453125
482,1.286,IMU0,9.451219512195122,-1.6463414634146343,-4.695121951219512,-1.11328125,0.2685546875,0.3486328125
483,1.286,IMU1,11.28048780487805,-3.048780487804878,-4.207317073170732,-1.1064453125,0.30859375,0.3369140625
484,1.286,IMU2,10.30487804878049,-1.8902439024390245,-4.817073170731708,-1.125,0.3134765625,0.3095703125
485,1.296,IMU0,10.121951219512196,-2.073170731707317,-4.146341463414634,-1.1103515625,0.3271484375,0.33984375
486,1.296,IMU1,12.317073170731708,-3.353658536585366,-3.8414634146341466,-1.10546875,0.3623046875,0.33203125
487,1.296,IMU2,11.158536585365855,-2.25609756097561,-4.390243902439025,-1.1240234375,0.36328125,0.3095703125
488,1.306,IMU0,10.609756097560977,-1.9512195121951221,-5.0,-1.087890625,0.3623046875,0.337890625
489,1.306,IMU1,13.170731707317074,-3.1097560975609757,-4.695121951219512,-1.0859375,0.3857421875,0.328125
490,1.306,IMU2,11.646341463414634,-1.7682926829268295,-5.121951219512195,-1.107421875,0.3837890625,0.3046875
491,1.316,IMU0,10.182926829268293,-1.402439024390244,-6.036585365853659,-1.1201171875,0.3779296875,0.337890625
492,1.316,IMU1,12.865853658536587,-2.439024390243903,-5.7926829268292686,-1.11328125,0.3955078125,0.3173828125
493,1.316,IMU2,11.341463414634147,-1.402439024390244,-6.219512195121951,-1.1328125,0.3955078125,0.2900390625
494,1.326,IMU0,10.060975609756099,-1.3414634146341464,-6.829268292682928,-1.130859375,0.3828125,0.3427734375
495,1.326,IMU1,12.317073170731708,-2.3170731707317076,-6.341463414634147,-1.1279296875,0.4033203125,0.3095703125
496,1.326,IMU2,11.097560975609756,-1.3414634146341464,-6.890243902439025,-1.1513671875,0.4013671875,0.279296875
497,1.336,IMU0,10.487804878048781,-0.853658536585366,-7.317073170731708,-1.1650390625,0.3720703125,0.357421875
498,1.336,IMU1,12.500000000000002,-2.1341463414634148,-6.951219512195123,-1.1591796875,0.4013671875,0.3271484375
499,1.336,IMU2,11.036585365853659,-1.2195121951219514,-7.378048780487806,-1.1796875,0.396484375,0.298828125
500,1.346,IMU0,9.939024390243903,-1.4634146341463417,-6.646341463414635,-1.1572265625,0.3515625,0.328125
501,1.346,IMU1,11.829268292682928,-2.987804878048781,-6.2804878048780495,-1.15234375,0.392578125,0.3154296875
502,1.346,IMU2,10.548780487804878,-2.073170731707317,-6.707317073170732,-1.171875,0.3779296875,0.2919921875
503,1.356,IMU0,10.0,-2.0121951219512195,-4.51219512195122,-1.1630859375,0.3359375,0.3388671875
504,1.356,IMU1,12.500000000000002,-3.4756097560975614,-4.2682926829268295,-1.15625,0.3818359375,0.345703125
505,1.356,IMU2,10.975609756097562,-2.6219512195121952,-4.695121951219512,-1.1767578125,0.3564453125,0.3251953125
506,1.366,IMU0,9.878048780487806,-0.7926829268292683,-3.7195121951219514,-1.171875,0.302734375,0.353515625
507,1.366,IMU1,12.500000000000002,-2.439024390243903,-3.4756097560975614,-1.16015625,0.34765625,0.357421875
508,1.366,IMU2,10.609756097560977,-1.2804878048780488,-3.8414634146341466,-1.1875,0.318359375,0.3505859375
509,1.376,IMU0,9.329268292682928,-0.7317073170731708,-3.963414634146342,-1.18359375,0.275390625,0.34765625
510,1.376,IMU1,11.890243902439025,-2.073170731707317,-3.5975609756097566,-1.1748046875,0.318359375,0.357421875
511,1.376,IMU2,10.548780487804878,-0.6707317073170732,-4.146341463414634,-1.205078125,0.2861328125,0.3447265625
512,1.386,IMU0,9.207317073170733,0.1829268292682927,-4.695121951219512,-1.201171875,0.271484375,0.36328125
513,1.386,IMU1,11.707317073170733,-1.0975609756097562,-4.329268292682928,-1.1904296875,0.30859375,0.3525390625
514,1.386,IMU2,10.487804878048781,0.30487804878048785,-4.878048780487806,-1.2177734375,0.2763671875,0.3466796875
515,1.396,IMU0,9.26829268292683,-0.7317073170731708,-4.817073170731708,-1.201171875,0.2529296875,0.349609375
516,1.396,IMU1,11.463414634146343,-1.9512195121951221,-4.329268292682928,-1.1943359375,0.283203125,0.34375
517,1.396,IMU2,10.609756097560977,-0.6097560975609757,-5.060975609756098,-1.2177734375,0.251953125,0.3515625
518,1.406,IMU0,8.292682926829269,-2.6219512195121952,-4.634146341463415,-1.220703125,0.251953125,0.34375
519,1.406,IMU1,10.060975609756099,-4.024390243902439,-4.207317073170732,-1.21484375,0.2666015625,0.36328125
520,1.406,IMU2,9.26829268292683,-2.7439024390243905,-4.817073170731708,-1.2314453125,0.2470703125,0.3720703125
521,1.416,IMU0,9.085365853658537,-2.682926829268293,-3.353658536585366,-1.203125,0.2841796875,0.3486328125
522,1.416,IMU1,10.548780487804878,-3.8414634146341466,-2.9268292682926833,-1.1982421875,0.275390625,0.361328125
523,1.416,IMU2,10.060975609756099,-2.5,-3.536585365853659,-1.2177734375,0.279296875,0.3544921875
524,1.426,IMU0,8.597560975609756,-1.0975609756097562,-2.6219512195121952,-1.181640625,0.3330078125,0.3583984375
525,1.426,IMU1,10.609756097560977,-2.3170731707317076,-2.1951219512195124,-1.1787109375,0.3134765625,0.361328125
526,1.426,IMU2,9.878048780487806,-1.0975609756097562,-2.8658536585365857,-1.2041015625,0.3291015625,0.333984375
527,1.436,IMU0,7.987804878048781,-0.1829268292682927,-3.8414634146341466,-1.1845703125,0.341796875,0.3837890625
528,1.436,IMU1,9.939024390243903,-1.1585365853658538,-3.4756097560975614,-1.18359375,0.3232421875,0.359375
529,1.436,IMU2,8.963414634146343,-0.30487804878048785,-4.024390243902439,-1.2021484375,0.333984375,0.3486328125
530,1.446,IMU0,8.414634146341465,2.9268292682926833,-4.51219512195122,-1.2421875,0.3515625,0.3564453125
531,1.446,IMU1,10.853658536585368,1.707317073170732,-4.146341463414634,-1.2392578125,0.353515625,0.349609375
532,1.446,IMU2,9.451219512195122,2.7439024390243905,-4.75609756097561,-1.26953125,0.3369140625,0.34375
533,1.456,IMU0,7.865853658536586,0.426829268292683,-5.182926829268293,-1.322265625,0.32421875,0.36328125
534,1.456,IMU1,10.182926829268293,-1.0365853658536586,-4.878048780487806,-1.314453125,0.341796875,0.3740234375
535,1.456,IMU2,8.78048780487805,0.3658536585365854,-5.3048780487804885,-1.3427734375,0.3017578125,0.3291015625
536,1.466,IMU0,7.500000000000001,-0.6707317073170732,-3.5975609756097566,-1.3505859375,0.3349609375,0.416015625
537,1.466,IMU1,9.451219512195122,-1.9512195121951221,-3.1707317073170733,-1.3466796875,0.369140625,0.4111328125
538,1.466,IMU2,8.353658536585366,-0.48780487804878053,-3.7195121951219514,-1.3779296875,0.2998046875,0.3779296875
539,1.476,IMU0,5.0,-2.1341463414634148,-7.682926829268293,-1.3671875,0.279296875,0.3583984375
540,1.476,IMU1,6.829268292682928,-3.353658536585366,-7.195121951219513,-1.361328125,0.3349609375,0.3759765625
541,1.476,IMU2,6.158536585365854,-1.7682926829268295,-7.926829268292684,-1.400390625,0.2412109375,0.36328125
542,1.486,IMU0,4.939024390243903,-2.25609756097561,-6.7682926829268295,-1.3916015625,0.2451171875,0.3798828125
543,1.486,IMU1,6.951219512195123,-3.9024390243902443,-6.585365853658537,-1.376953125,0.2822265625,0.40625
544,1.486,IMU2,6.341463414634147,-1.9512195121951221,-7.01219512195122,-1.40234375,0.220703125,0.3759765625
545,1.496,IMU0,6.463414634146342,-1.8902439024390245,-4.451219512195122,-1.4169921875,0.2412109375,0.3720703125
546,1.496,IMU1,9.207317073170733,-3.780487804878049,-4.024390243902439,-1.408203125,0.2509765625,0.3681640625
547,1.496,IMU2,7.8048780487804885,-1.9512195121951221,-4.695121951219512,-1.4228515625,0.2275390625,0.369140625
548,1.506,IMU0,6.707317073170732,-3.1097560975609757,-2.5609756097560976,-1.419921875,0.25390625,0.375
549,1.506,IMU1,9.146341463414634,-4.207317073170732,-2.1951219512195124,-1.416015625,0.2509765625,0.3984375
550,1.506,IMU2,7.865853658536586,-3.048780487804878,-2.804878048780488,-1.4326171875,0.2568359375,0.3857421875
551,1.516,IMU0,6.951219512195123,-3.1707317073170733,-2.1951219512195124,-1.443359375,0.3115234375,0.3798828125
552,1.516,IMU1,10.182926829268293,-4.085365853658537,-2.0121951219512195,-1.435546875,0.2822265625,0.3916015625
553,1.516,IMU2,7.926829268292684,-2.987804878048781,-2.439024390243903,-1.4619140625,0.3037109375,0.375
554,1.526,IMU0,6.52439024390244,-2.1341463414634148,-2.5,-1.427734375,0.32421875,0.4140625
555,1.526,IMU1,9.939024390243903,-2.9268292682926833,-2.25609756097561,-1.427734375,0.2568359375,0.408203125
556,1.526,IMU2,7.621951219512196,-1.8902439024390245,-2.682926829268293,-1.4453125,0.2841796875,0.419921875
557,1.536,IMU0,6.2804878048780495,-1.524390243902439,-4.207317073170732,-1.4296875,0.2451171875,0.3681640625
558,1.536,IMU1,9.756097560975611,-1.9512195121951221,-4.024390243902439,-1.4326171875,0.1982421875,0.37890625
559,1.536,IMU2,7.8048780487804885,-0.9756097560975611,-4.51219512195122,-1.4482421875,0.2060546875,0.38671875
560,1.546,IMU0,6.829268292682928,-0.9756097560975611,-1.8902439024390245,-1.46484375,0.205078125,0.365234375
561,1.546,IMU1,10.30487804878049,-2.3170731707317076,-1.4634146341463417,-1.4521484375,0.1884765625,0.3837890625
562,1.546,IMU2,8.231707317073171,-0.6097560975609757,-2.0121951219512195,-1.47265625,0.1845703125,0.365234375
563,1.556,IMU0,6.951219512195123,-1.402439024390244,-2.25609756097561,-1.4521484375,0.1875,0.3828125
564,1.556,IMU1,10.365853658536587,-2.7439024390243905,-2.25609756097561,-1.4384765625,0.224609375,0.400390625
565,1.556,IMU2,8.414634146341465,-0.7317073170731708,-2.5609756097560976,-1.4619140625,0.185546875,0.3955078125
566,1.566,IMU0,6.219512195121951,-2.073170731707317,-4.2682926829268295,-1.4404296875,0.1884765625,0.3486328125
567,1.566,IMU1,7.926829268292684,-3.536585365853659,-4.085365853658537,-1.4267578125,0.28125,0.3701171875
568,1.566,IMU2,6.890243902439025,-1.9512195121951221,-4.51219512195122,-1.453125,0.22265625,0.3798828125
569,1.576,IMU0,5.670731707317073,-2.378048780487805,-6.097560975609756,-1.4462890625,0.1708984375,0.357421875
570,1.576,IMU1,7.378048780487806,-3.9024390243902443,-5.670731707317073,-1.4228515625,0.2822265625,0.388671875
571,1.576,IMU2,6.2804878048780495,-2.25609756097561,-6.341463414634147,-1.44921875,0.2421875,0.361328125
572,1.586,IMU0,5.548780487804878,-3.4756097560975614,-4.75609756097561,-1.4345703125,0.1845703125,0.3564453125
573,1.586,IMU1,7.500000000000001,-5.2439024390243905,-4.207317073170732,-1.4072265625,0.283203125,0.3681640625
574,1.586,IMU2,6.402439024390245,-3.658536585365854,-4.878048780487806,-1.4296875,0.2490234375,0.365234375
575,1.596,IMU0,5.853658536585367,-2.378048780487805,-4.451219512195122,-1.4345703125,0.2021484375,0.341796875
576,1.596,IMU1,7.743902439024391,-3.1707317073170733,-4.024390243902439,-1.4228515625,0.3115234375,0.3525390625
577,1.596,IMU2,7.01219512195122,-1.7682926829268295,-4.634146341463415,-1.443359375,0.27734375,0.3525390625
578,1.606,IMU0,6.829268292682928,-0.9146341463414634,-3.353658536585366,-1.4638671875,0.2294921875,0.3408203125
579,1.606,IMU1,8.292682926829269,-1.8902439024390245,-2.682926829268293,-1.439453125,0.3408203125,0.3623046875
580,1.606,IMU2,7.743902439024391,-0.48780487804878053,-3.414634146341464,-1.4599609375,0.32421875,0.33203125
581,1.616,IMU0,5.609756097560976,-2.073170731707317,-1.7682926829268295,-1.4677734375,0.28515625,0.357421875
582,1.616,IMU1,7.25609756097561,-3.1707317073170733,-1.0975609756097562,-1.4443359375,0.35546875,0.361328125
583,1.616,IMU2,6.646341463414635,-1.829268292682927,-1.7682926829268295,-1.458984375,0.3515625,0.3427734375
584,1.626,IMU0,5.3048780487804885,-2.1341463414634148,-1.0975609756097562,-1.4677734375,0.33984375,0.3876953125
585,1.626,IMU1,6.585365853658537,-3.353658536585366,-0.6707317073170732,-1.470703125,0.369140625,0.369140625
586,1.626,IMU2,5.975609756097562,-1.9512195121951221,-1.2804878048780488,-1.484375,0.3818359375,0.341796875
587,1.636,IMU0,4.451219512195122,-3.1097560975609757,-0.30487804878048785,-1.4375,0.3662109375,0.3837890625
588,1.636,IMU1,6.707317073170732,-3.536585365853659,0.1829268292682927,-1.453125,0.330078125,0.3984375
589,1.636,IMU2,5.487804878048781,-2.804878048780488,-0.3658536585365854,-1.466796875,0.3642578125,0.3466796875
590,1.646,IMU0,4.695121951219512,-3.353658536585366,-0.24390243902439027,-1.4677734375,0.396484375,0.365234375
591,1.646,IMU1,7.195121951219513,-4.024390243902439,0.12195121951219513,-1.486328125,0.2822265625,0.3671875
592,1.646,IMU2,6.097560975609756,-2.9268292682926833,-0.3658536585365854,-1.5009765625,0.3193359375,0.3486328125
593,1.656,IMU0,4.2682926829268295,-3.353658536585366,-1.0365853658536586,-1.4521484375,0.3564453125,0.3798828125
594,1.656,IMU1,7.195121951219513,-3.780487804878049,-0.7926829268292683,-1.470703125,0.2001953125,0.3759765625
595,1.656,IMU2,6.036585365853659,-2.439024390243903,-1.3414634146341464,-1.486328125,0.2255859375,0.3779296875
596,1.666,IMU0,4.817073170731708,-1.5853658536585367,-1.8902439024390245,-1.4208984375,0.30078125,0.3642578125
597,1.666,IMU1,7.317073170731708,-2.5609756097560976,-1.9512195121951221,-1.4384765625,0.1875,0.34765625
598,1.666,IMU2,6.463414634146342,-1.0365853658536586,-2.439024390243903,-1.4609375,0.19921875,0.3369140625
599,1.676,IMU0,4.75609756097561,2.25609756097561,-5.7926829268292686,-1.4404296875,0.2802734375,0.3701171875
600,1.676,IMU1,6.951219512195123,1.0975609756097562,-5.731707317073171,-1.453125,0.2412109375,0.3984375
601,1.676,IMU2,5.7926829268292686,2.439024390243903,-6.219512195121951,-1.4755859375,0.2470703125,0.380859375
602,1.686,IMU0,2.439024390243903,0.5487804878048781,-9.390243902439025,-1.474609375,0.2587890625,0.3466796875
603,1.686,IMU1,4.695121951219512,-0.426829268292683,-8.902439024390244,-1.4658203125,0.248046875,0.3662109375
604,1.686,IMU2,3.353658536585366,1.1585365853658538,-9.51219512195122,-1.4794921875,0.251953125,0.361328125
605,1.696,IMU0,2.8658536585365857,0.3658536585365854,-6.2804878048780495,-1.478515625,0.2841796875,0.4013671875
606,1.696,IMU1,5.182926829268293,-0.7317073170731708,-6.036585365853659,-1.4765625,0.2509765625,0.3876953125
607,1.696,IMU2,3.963414634146342,0.9146341463414634,-6.646341463414635,-1.48828125,0.2578125,0.3701171875
608,1.706,IMU0,4.085365853658537,-0.6707317073170732,-2.5,-1.48828125,0.2880859375,0.359375
609,1.706,IMU1,6.7682926829268295,-1.9512195121951221,-2.1951219512195124,-1.494140625,0.240234375,0.3896484375
610,1.706,IMU2,5.2439024390243905,-0.30487804878048785,-2.7439024390243905,-1.5078125,0.2470703125,0.376953125
611,1.716,IMU0,5.426829268292684,-0.853658536585366,0.24390243902439027,-1.4541015625,0.2763671875,0.34765625
612,1.716,IMU1,8.78048780487805,-2.1341463414634148,0.426829268292683,-1.4501953125,0.2421875,0.375
613,1.716,IMU2,6.829268292682928,-0.6097560975609757,-0.06097560975609757,-1.462890625,0.25,0.3720703125
614,1.726,IMU0,5.670731707317073,-0.6707317073170732,2.5,-1.3857421875,0.3427734375,0.3671875
615,1.726,IMU1,8.597560975609756,-1.6463414634146343,2.804878048780488,-1.38671875,0.2998046875,0.3896484375
616,1.726,IMU2,6.646341463414635,-0.12195121951219513,2.378048780487805,-1.404296875,0.3125,0.38671875
617,1.736,IMU0,5.731707317073171,0.426829268292683,0.30487804878048785,-1.3896484375,0.4091796875,0.3466796875
618,1.736,IMU1,8.353658536585366,-0.7926829268292683,0.7926829268292683,-1.3935546875,0.376953125,0.3447265625
619,1.736,IMU2,6.646341463414635,0.853658536585366,0.24390243902439027,-1.4140625,0.3916015625,0.3203125
620,1.746,IMU0,3.658536585365854,1.0365853658536586,-3.231707317073171,-1.423828125,0.4150390625,0.357421875
621,1.746,IMU1,5.7926829268292686,0.12195121951219513,-2.8658536585365857,-1.4296875,0.41015625,0.35546875
622,1.746,IMU2,4.695121951219512,1.7682926829268295,-3.4756097560975614,-1.4482421875,0.4169921875,0.330078125
623,1.756,IMU0,2.987804878048781,1.2195121951219514,-6.341463414634147,-1.4306640625,0.3603515625,0.3232421875
624,1.756,IMU1,5.853658536585367,0.1829268292682927,-6.036585365853659,-1.4296875,0.3759765625,0.345703125
625,1.756,IMU2,3.8414634146341466,1.829268292682927,-6.52439024390244,-1.4501953125,0.3701171875,0.3232421875
626,1.766,IMU0,2.987804878048781,1.2195121951219514,-6.341463414634147,-1.4306640625,0.3603515625,0.3232421875
627,1.766,IMU1,5.548780487804878,0.853658536585366,-5.365853658536586,-1.4541015625,0.345703125,0.369140625
628,1.766,IMU2,3.9024390243902443,2.439024390243903,-5.7926829268292686,-1.4697265625,0.3544921875,0.3505859375
629,1.776,IMU0,3.780487804878049,0.1829268292682927,-2.9268292682926833,-1.4873046875,0.3798828125,0.3486328125
630,1.776,IMU1,5.548780487804878,0.853658536585366,-5.365853658536586,-1.4541015625,0.345703125,0.369140625
631,1.776,IMU2,4.51219512195122,0.48780487804878053,-3.1707317073170733,-1.49609375,0.37109375,0.318359375
632,1.786,IMU0,3.414634146341464,-1.2804878048780488,-1.2804878048780488,-1.4873046875,0.427734375,0.361328125
633,1.786,IMU1,5.609756097560976,-2.3170731707317076,-1.0365853658536586,-1.490234375,0.4091796875,0.359375
634,1.786,IMU2,4.329268292682928,-0.9756097560975611,-1.524390243902439,-1.5029296875,0.423828125,0.33984375
635,1.796,IMU0,1.4634146341463417,-1.829268292682927,-2.1341463414634148,-1.4697265625,0.4482421875,0.3515625
636,1.796,IMU1,4.146341463414634,-2.987804878048781,-1.8902439024390245,-1.4716796875,0.4462890625,0.3603515625
637,1.796,IMU2,2.682926829268293,-1.1585365853658538,-2.439024390243903,-1.4931640625,0.4462890625,0.3564453125
638,1.806,IMU0,0.6707317073170732,-0.30487804878048785,-2.073170731707317,-1.4697265625,0.408203125,0.3486328125
639,1.806,IMU1,3.4756097560975614,-1.3414634146341464,-1.9512195121951221,-1.462890625,0.419921875,0.3681640625
640,1.806,IMU2,1.7682926829268295,0.6707317073170732,-2.378048780487805,-1.4814453125,0.40625,0.3349609375
641,1.816,IMU0,3.1707317073170733,2.8658536585365857,1.829268292682927,-1.46875,0.3837890625,0.357421875
642,1.816,IMU1,6.097560975609756,1.2804878048780488,1.8902439024390245,-1.4580078125,0.3876953125,0.3662109375
643,1.816,IMU2,4.207317073170732,3.048780487804878,1.524390243902439,-1.4755859375,0.37890625,0.326171875
644,1.826,IMU0,2.7439024390243905,4.207317073170732,2.987804878048781,-1.42578125,0.3837890625,0.3662109375
645,1.826,IMU1,5.7926829268292686,2.8658536585365857,3.231707317073171,-1.42578125,0.375,0.34765625
646,1.826,IMU2,3.963414634146342,4.329268292682928,2.6219512195121952,-1.443359375,0.3779296875,0.3515625
647,1.836,IMU0,2.073170731707317,6.52439024390244,-0.06097560975609757,-1.3974609375,0.380859375,0.376953125
648,1.836,IMU1,4.390243902439025,4.878048780487806,0.30487804878048785,-1.4072265625,0.3583984375,0.388671875
649,1.836,IMU2,3.414634146341464,6.036585365853659,-0.30487804878048785,-1.4169921875,0.3798828125,0.384765625
650,1.846,IMU0,1.2195121951219514,5.609756097560976,-2.5,-1.3828125,0.423828125,0.3525390625
651,1.846,IMU1,3.658536585365854,4.451219512195122,-2.1951219512195124,-1.3857421875,0.388671875,0.3720703125
652,1.846,IMU2,2.3170731707317076,5.731707317073171,-2.7439024390243905,-1.4013671875,0.4287109375,0.3310546875
653,1.856,IMU0,1.402439024390244,4.024390243902439,-3.231707317073171,-1.4072265625,0.419921875,0.412109375
654,1.856,IMU1,3.8414634146341466,3.1707317073170733,-2.987804878048781,-1.4052734375,0.3994140625,0.3935546875
655,1.856,IMU2,2.5609756097560976,4.75609756097561,-3.4756097560975614,-1.42578125,0.4130859375,0.376953125
656,1.866,IMU0,2.6219512195121952,0.6707317073170732,0.1829268292682927,-1.3876953125,0.3681640625,0.369140625
657,1.866,IMU1,5.2439024390243905,-0.12195121951219513,0.24390243902439027,-1.38671875,0.380859375,0.3828125
658,1.866,IMU2,3.963414634146342,1.0975609756097562,-0.06097560975609757,-1.4013671875,0.3515625,0.375
659,1.876,IMU0,4.695121951219512,-2.25609756097561,2.25609756097561,-1.294921875,0.302734375,0.337890625
660,1.876,IMU1,7.987804878048781,-3.536585365853659,2.5,-1.2890625,0.3193359375,0.3671875
661,1.876,IMU2,5.914634146341464,-2.3170731707317076,2.0121951219512195,-1.3173828125,0.2890625,0.3388671875
662,1.886,IMU0,4.75609756097561,-3.1097560975609757,-0.06097560975609757,-1.2734375,0.2802734375,0.310546875
663,1.886,IMU1,8.109756097560977,-4.634146341463415,0.3658536585365854,-1.2734375,0.2841796875,0.3271484375
664,1.886,IMU2,6.2804878048780495,-2.804878048780488,-0.48780487804878053,-1.3046875,0.26953125,0.3095703125
665,1.896,IMU0,4.146341463414634,-2.5609756097560976,-3.658536585365854,-1.212890625,0.2802734375,0.33203125
666,1.896,IMU1,6.402439024390245,-3.780487804878049,-3.353658536585366,-1.2109375,0.2802734375,0.3173828125
667,1.896,IMU2,4.573170731707317,-2.6219512195121952,-3.780487804878049,-1.216796875,0.271484375,0.3134765625
668,1.906,IMU0,5.2439024390243905,-0.5487804878048781,-2.804878048780488,-1.2275390625,0.2763671875,0.2626953125
669,1.906,IMU1,7.743902439024391,-1.7682926829268295,-2.378048780487805,-1.228515625,0.2783203125,0.2958984375
670,1.906,IMU2,5.914634146341464,-0.48780487804878053,-3.1097560975609757,-1.251953125,0.2724609375,0.255859375
671,1.916,IMU0,5.3048780487804885,-2.8658536585365857,-1.402439024390244,-1.23828125,0.25,0.2822265625
672,1.916,IMU1,7.743902439024391,-3.8414634146341466,-1.0365853658536586,-1.234375,0.2568359375,0.30859375
673,1.916,IMU2,6.158536585365854,-3.048780487804878,-1.6463414634146343,-1.259765625,0.234375,0.275390625
674,1.926,IMU0,5.853658536585367,-1.524390243902439,-1.7682926829268295,-1.1328125,0.1787109375,0.27734375
675,1.926,IMU1,8.353658536585366,-3.048780487804878,-1.402439024390244,-1.1279296875,0.1943359375,0.263671875
676,1.926,IMU2,6.7682926829268295,-1.402439024390244,-1.8902439024390245,-1.134765625,0.154296875,0.2939453125
677,1.936,IMU0,6.2804878048780495,4.2682926829268295,3.353658536585366,-0.99609375,0.1455078125,0.3134765625
678,1.936,IMU1,8.292682926829269,2.5609756097560976,3.7195121951219514,-0.998046875,0.15625,0.3330078125
679,1.936,IMU2,7.134146341463415,4.146341463414634,3.231707317073171,-1.0009765625,0.1533203125,0.3349609375
680,1.946,IMU0,6.2804878048780495,4.2682926829268295,3.353658536585366,-0.99609375,0.1455078125,0.3134765625
681,1.946,IMU1,9.695121951219512,13.78048780487805,3.963414634146342,-0.962890625,0.162109375,0.3935546875
682,1.946,IMU2,8.231707317073171,15.243902439024392,3.231707317073171,-0.982421875,0.2294921875,0.375
683,1.956,IMU0,7.560975609756098,20.60975609756098,5.609756097560976,-1.025390625,0.2197265625,0.4296875
684,1.956,IMU1,9.146341463414634,19.32926829268293,5.853658536585367,-1.01171875,0.201171875,0.4111328125
685,1.956,IMU2,8.231707317073171,21.03658536585366,5.7926829268292686,-1.0322265625,0.212890625,0.4228515625
686,1.966,IMU0,7.317073170731708,19.695121951219512,8.597560975609756,-1.1025390625,0.1484375,0.4423828125
687,1.966,IMU1,9.390243902439025,19.32926829268293,9.02439024390244,-1.095703125,0.16796875,0.4736328125
688,1.966,IMU2,8.841463414634147,19.75609756097561,8.292682926829269,-1.126953125,0.14453125,0.4384765625
689,1.976,IMU0,7.621951219512196,14.695121951219514,3.9024390243902443,-1.0400390625,0.166015625,0.46875
690,1.976,IMU1,9.939024390243903,14.451219512195124,4.634146341463415,-1.0546875,0.150390625,0.505859375
691,1.976,IMU2,8.597560975609756,14.695121951219514,3.1707317073170733,-1.05859375,0.2275390625,0.5
692,1.986,IMU0,3.353658536585366,10.487804878048781,-9.085365853658537,-0.9208984375,0.2001953125,0.4638671875
693,1.986,IMU1,5.7926829268292686,9.817073170731708,-8.414634146341465,-0.939453125,0.15625,0.462890625
694,1.986,IMU2,4.024390243902439,10.731707317073171,-9.51219512195122,-0.9248046875,0.2861328125,0.4638671875
695,1.996,IMU0,2.3170731707317076,11.341463414634147,-14.817073170731708,-0.9013671875,0.267578125,0.5380859375
696,1.996,IMU1,4.817073170731708,10.30487804878049,-14.329268292682928,-0.9072265625,0.21484375,0.56640625
697,1.996,IMU2,3.2926829268292686,11.76829268292683,-14.939024390243905,-0.9091796875,0.310546875,0.515625
698,2.006,IMU0,2.3170731707317076,10.24390243902439,-13.536585365853659,-0.81640625,0.3203125,0.49609375
699,2.006,IMU1,4.51219512195122,8.963414634146343,-13.170731707317074,-0.818359375,0.3125,0.509765625
700,2.006,IMU2,3.1707317073170733,10.792682926829269,-13.536585365853659,-0.841796875,0.2822265625,0.4658203125
701,2.016,IMU0,4.451219512195122,12.500000000000002,-11.707317073170733,-0.802734375,0.2685546875,0.51171875
702,2.016,IMU1,6.402439024390245,11.341463414634147,-11.402439024390246,-0.7939453125,0.2958984375,0.5
703,2.016,IMU2,5.975609756097562,13.170731707317074,-11.52439024390244,-0.8232421875,0.1796875,0.498046875
704,2.026,IMU0,6.341463414634147,9.756097560975611,-7.01219512195122,-0.794921875,0.205078125,0.4658203125
705,2.026,IMU1,8.536585365853659,9.02439024390244,-6.585365853658537,-0.7841796875,0.244140625,0.4873046875
706,2.026,IMU2,8.170731707317074,10.365853658536587,-7.195121951219513,-0.802734375,0.1806640625,0.4990234375
707,2.036,IMU0,8.963414634146343,11.76829268292683,-3.353658536585366,-0.7255859375,0.2158203125,0.4990234375
708,2.036,IMU1,11.52439024390244,10.731707317073171,-2.804878048780488,-0.7255859375,0.2158203125,0.498046875
709,2.036,IMU2,9.939024390243903,12.317073170731708,-3.353658536585366,-0.728515625,0.2646484375,0.4912109375
710,2.046,IMU0,8.719512195121952,13.597560975609758,-3.536585365853659,-0.74609375,0.2734375,0.4677734375
711,2.046,IMU1,11.158536585365855,12.926829268292684,-3.231707317073171,-0.74609375,0.2412109375,0.4951171875
712,2.046,IMU2,9.573170731707318,13.902439024390246,-3.536585365853659,-0.7353515625,0.3310546875,0.466796875
713,2.056,IMU0,9.146341463414634,13.536585365853659,-1.5853658536585367,-0.697265625,0.3212890625,0.44921875
714,2.056,IMU1,11.646341463414634,13.231707317073171,-1.2804878048780488,-0.7109375,0.2880859375,0.458984375
715,2.056,IMU2,10.30487804878049,14.085365853658537,-1.7682926829268295,-0.728515625,0.2978515625,0.421875
716,2.066,IMU0,9.390243902439025,16.34146341463415,-2.9268292682926833,-0.7119140625,0.3173828125,0.439453125
717,2.066,IMU1,12.500000000000002,16.158536585365855,-2.8658536585365857,-0.7060546875,0.341796875,0.4296875
718,2.066,IMU2,11.28048780487805,16.951219512195124,-3.353658536585366,-0.7578125,0.224609375,0.4423828125
719,2.076,IMU0,7.865853658536586,13.658536585365855,-6.585365853658537,-0.75,0.2294921875,0.3798828125
720,2.076,IMU1,11.28048780487805,12.256097560975611,-6.2804878048780495,-0.740234375,0.2060546875,0.421875
721,2.076,IMU2,9.817073170731708,13.841463414634148,-6.707317073170732,-0.7578125,0.19921875,0.4228515625
722,2.086,IMU0,7.8048780487804885,11.890243902439025,-7.987804878048781,-0.8154296875,0.158203125,0.4169921875
723,2.086,IMU1,10.182926829268293,10.24390243902439,-7.682926829268293,-0.794921875,0.267578125,0.4423828125
724,2.086,IMU2,9.085365853658537,11.829268292682928,-8.170731707317074,-0.8095703125,0.25390625,0.41796875
725,2.096,IMU0,7.500000000000001,6.951219512195123,-6.951219512195123,-0.833984375,0.2373046875,0.4150390625
726,2.096,IMU1,9.085365853658537,5.609756097560976,-6.402439024390245,-0.8134765625,0.3212890625,0.408203125
727,2.096,IMU2,8.475609756097562,7.378048780487806,-7.01219512195122,-0.828125,0.3173828125,0.396484375
728,2.106,IMU0,7.317073170731708,4.878048780487806,-4.024390243902439,-0.828125,0.29296875,0.421875
729,2.106,IMU1,8.292682926829269,3.9024390243902443,-3.2926829268292686,-0.830078125,0.2841796875,0.4111328125
730,2.106,IMU2,8.353658536585366,4.634146341463415,-3.8414634146341466,-0.84375,0.28515625,0.39453125
731,2.116,IMU0,6.951219512195123,4.329268292682928,-1.2804878048780488,-0.841796875,0.287109375,0.4130859375
732,2.116,IMU1,9.207317073170733,3.1097560975609757,-0.7926829268292683,-0.8623046875,0.201171875,0.421875
733,2.116,IMU2,8.353658536585366,4.207317073170732,-1.3414634146341464,-0.876953125,0.2001953125,0.4033203125
734,2.126,IMU0,6.7682926829268295,5.2439024390243905,-0.9146341463414634,-0.87109375,0.2421875,0.39453125
735,2.126,IMU1,9.207317073170733,3.658536585365854,-0.7317073170731708,-0.87890625,0.162109375,0.4072265625
736,2.126,IMU2,8.719512195121952,4.51219512195122,-1.2804878048780488,-0.8955078125,0.1611328125,0.412109375
737,2.136,IMU0,5.7926829268292686,4.451219512195122,-2.5,-0.875,0.154296875,0.3740234375
738,2.136,IMU1,7.987804878048781,2.6219512195121952,-2.1341463414634148,-0.8662109375,0.1650390625,0.4140625
739,2.136,IMU2,7.317073170731708,3.4756097560975614,-2.7439024390243905,-0.8759765625,0.171875,0.396484375
740,2.146,IMU0,5.609756097560976,3.963414634146342,-4.024390243902439,-0.8291015625,0.1982421875,0.349609375
741,2.146,IMU1,7.621951219512196,2.1951219512195124,-4.146341463414634,-0.8125,0.2548828125,0.37109375
742,2.146,IMU2,6.585365853658537,2.9268292682926833,-4.75609756097561,-0.83203125,0.2646484375,0.357421875
743,2.156,IMU0,6.52439024390244,6.097560975609756,-5.3048780487804885,-0.8251953125,0.2314453125,0.3935546875
744,2.156,IMU1,8.536585365853659,4.329268292682928,-4.634146341463415,-0.8212890625,0.28125,0.4169921875
745,2.156,IMU2,7.621951219512196,5.3048780487804885,-5.121951219512195,-0.833984375,0.27734375,0.3984375
746,2.166,IMU0,6.219512195121951,4.146341463414634,-2.9268292682926833,-0.8232421875,0.251953125,0.37109375
747,2.166,IMU1,8.78048780487805,3.1097560975609757,-2.5609756097560976,-0.81640625,0.2333984375,0.361328125
748,2.166,IMU2,7.743902439024391,3.963414634146342,-2.987804878048781,-0.8349609375,0.2275390625,0.3349609375
749,2.176,IMU0,6.585365853658537,5.731707317073171,-3.780487804878049,-0.828125,0.2294921875,0.349609375
750,2.176,IMU1,9.51219512195122,4.634146341463415,-3.414634146341464,-0.8349609375,0.189453125,0.3642578125
751,2.176,IMU2,8.414634146341465,5.609756097560976,-3.963414634146342,-0.849609375,0.177734375,0.3642578125
752,2.186,IMU0,7.682926829268293,7.439024390243903,-4.146341463414634,-0.83984375,0.2109375,0.3681640625
753,2.186,IMU1,10.487804878048781,6.341463414634147,-3.963414634146342,-0.853515625,0.171875,0.36328125
754,2.186,IMU2,8.963414634146343,7.439024390243903,-4.451219512195122,-0.8720703125,0.17578125,0.3505859375
755,2.196,IMU0,9.390243902439025,6.707317073170732,-1.9512195121951221,-0.84765625,0.203125,0.3193359375
756,2.196,IMU1,11.890243902439025,5.731707317073171,-1.524390243902439,-0.8486328125,0.1962890625,0.349609375
757,2.196,IMU2,10.548780487804878,6.646341463414635,-2.0121951219512195,-0.8642578125,0.205078125,0.349609375
758,2.206,IMU0,8.902439024390244,3.231707317073171,-3.5975609756097566,-0.8349609375,0.2294921875,0.3125
759,2.206,IMU1,11.341463414634147,1.8902439024390245,-3.2926829268292686,-0.8251953125,0.265625,0.3173828125
760,2.206,IMU2,9.695121951219512,2.9268292682926833,-3.780487804878049,-0.8359375,0.2783203125,0.2958984375
761,2.216,IMU0,7.317073170731708,0.426829268292683,-7.621951219512196,-0.7646484375,0.2470703125,0.302734375
762,2.216,IMU1,9.207317073170733,-0.3658536585365854,-7.439024390243903,-0.7509765625,0.2783203125,0.296875
763,2.216,IMU2,8.231707317073171,1.0365853658536586,-8.048780487804878,-0.7626953125,0.287109375,0.279296875
764,2.226,IMU0,8.475609756097562,-0.30487804878048785,-4.451219512195122,-0.7275390625,0.2587890625,0.3046875
765,2.226,IMU1,10.487804878048781,-1.9512195121951221,-3.9024390243902443,-0.7119140625,0.30078125,0.33984375
766,2.226,IMU2,9.02439024390244,-1.0365853658536586,-4.329268292682928,-0.7158203125,0.306640625,0.32421875
767,2.236,IMU0,8.048780487804878,1.0365853658536586,-3.1707317073170733,-0.609375,0.2939453125,0.3291015625
768,2.236,IMU1,10.914634146341465,-0.24390243902439027,-2.7439024390243905,-0.595703125,0.353515625,0.333984375
769,2.236,IMU2,8.658536585365855,1.1585365853658538,-3.2926829268292686,-0.6083984375,0.3779296875,0.3134765625
770,2.246,IMU0,5.853658536585367,6.2804878048780495,-8.109756097560977,-0.603515625,0.3076171875,0.34765625
771,2.246,IMU1,8.414634146341465,5.121951219512195,-7.743902439024391,-0.6015625,0.3818359375,0.375
772,2.246,IMU2,6.707317073170732,6.463414634146342,-8.292682926829269,-0.619140625,0.3779296875,0.357421875
773,2.256,IMU0,4.817073170731708,11.707317073170733,-8.170731707317074,-0.697265625,0.359375,0.4013671875
774,2.256,IMU1,7.195121951219513,10.30487804878049,-7.8048780487804885,-0.6953125,0.39453125,0.4091796875
775,2.256,IMU2,5.914634146341464,11.52439024390244,-8.292682926829269,-0.720703125,0.3447265625,0.3837890625
776,2.266,IMU0,6.097560975609756,14.451219512195124,-5.2439024390243905,-0.7919921875,0.400390625,0.4443359375
777,2.266,IMU1,8.231707317073171,13.536585365853659,-4.878048780487806,-0.810546875,0.3291015625,0.4228515625
778,2.266,IMU2,7.439024390243903,14.329268292682928,-5.3048780487804885,-0.8251953125,0.2958984375,0.439453125
779,2.276,IMU0,7.317073170731708,12.80487804878049,-0.12195121951219513,-0.86328125,0.3134765625,0.462890625
780,2.276,IMU1,9.329268292682928,11.829268292682928,0.30487804878048785,-0.8603515625,0.298828125,0.4853515625
781,2.276,IMU2,8.414634146341465,13.170731707317074,-0.1829268292682927,-0.8701171875,0.3232421875,0.4541015625
782,2.286,IMU0,7.621951219512196,14.085365853658537,-1.3414634146341464,-0.8916015625,0.416015625,0.46875
783,2.286,IMU1,10.060975609756099,13.353658536585368,-0.7926829268292683,-0.89453125,0.3984375,0.48828125
784,2.286,IMU2,8.536585365853659,14.573170731707318,-1.402439024390244,-0.9111328125,0.421875,0.498046875
785,2.296,IMU0,7.621951219512196,12.439024390243903,-2.1341463414634148,-0.921875,0.4169921875,0.5126953125
786,2.296,IMU1,9.939024390243903,11.52439024390244,-1.7682926829268295,-0.919921875,0.412109375,0.513671875
787,2.296,IMU2,8.292682926829269,13.170731707317074,-2.1341463414634148,-0.9326171875,0.4072265625,0.4931640625
788,2.306,IMU0,4.451219512195122,10.487804878048781,-0.853658536585366,-0.84375,0.376953125,0.4765625
789,2.306,IMU1,6.890243902439025,9.390243902439025,-0.48780487804878053,-0.8388671875,0.3896484375,0.4892578125
790,2.306,IMU2,5.426829268292684,11.097560975609756,-0.9146341463414634,-0.8544921875,0.3701171875,0.4853515625
791,2.316,IMU0,2.439024390243903,13.78048780487805,-3.048780487804878,-0.8427734375,0.39453125,0.4873046875
792,2.316,IMU1,4.878048780487806,12.682926829268293,-2.5609756097560976,-0.8525390625,0.400390625,0.515625
793,2.316,IMU2,3.5975609756097566,14.51219512195122,-3.353658536585366,-0.8681640625,0.3916015625,0.501953125
794,2.326,IMU0,0.7926829268292683,15.79268292682927,-2.8658536585365857,-0.8466796875,0.408203125,0.53125
795,2.326,IMU1,3.1097560975609757,14.51219512195122,-2.5,-0.841796875,0.396484375,0.5341796875
796,2.326,IMU2,1.3414634146341464,16.28048780487805,-2.8658536585365857,-0.8564453125,0.4130859375,0.53125
797,2.336,IMU0,-0.426829268292683,14.146341463414636,-3.5975609756097566,-0.8955078125,0.38671875,0.5361328125
798,2.336,IMU1,1.4634146341463417,13.414634146341465,-3.2926829268292686,-0.8974609375,0.3798828125,0.556640625
799,2.336,IMU2,0.1829268292682927,14.146341463414636,-3.7195121951219514,-0.904296875,0.3935546875,0.5068359375
800,2.346,IMU0,-2.1951219512195124,9.146341463414634,-4.329268292682928,-0.873046875,0.365234375,0.53125
801,2.346,IMU1,-0.426829268292683,8.475609756097562,-4.024390243902439,-0.873046875,0.3583984375,0.546875
802,2.346,IMU2,-1.829268292682927,9.390243902439025,-4.451219512195122,-0.875,0.373046875,0.552734375
803,2.356,IMU0,-1.2804878048780488,6.951219512195123,-1.6463414634146343,-0.8291015625,0.4267578125,0.5849609375
804,2.356,IMU1,0.853658536585366,6.158536585365854,-1.2195121951219514,-0.833984375,0.404296875,0.5869140625
805,2.356,IMU2,-0.6707317073170732,6.890243902439025,-1.9512195121951221,-0.83984375,0.4521484375,0.5791015625
806,2.366,IMU0,-0.06097560975609757,5.0,-0.7926829268292683,-0.685546875,0.4619140625,0.5478515625
807,2.366,IMU1,2.5609756097560976,4.085365853658537,-0.6097560975609757,-0.6875,0.44140625,0.5712890625
808,2.366,IMU2,0.6707317073170732,5.731707317073171,-0.853658536585366,-0.689453125,0.494140625,0.5302734375
809,2.376,IMU0,3.1097560975609757,12.560975609756099,-4.817073170731708,-0.73046875,0.5498046875,0.62109375
810,2.376,IMU1,5.426829268292684,11.463414634146343,-4.207317073170732,-0.73828125,0.53125,0.6064453125
811,2.376,IMU2,4.146341463414634,13.109756097560977,-5.3048780487804885,-0.771484375,0.546875,0.5810546875
812,2.386,IMU0,2.25609756097561,8.719512195121952,-8.719512195121952,-0.8115234375,0.56640625,0.55859375
813,2.386,IMU1,4.878048780487806,7.560975609756098,-8.475609756097562,-0.8095703125,0.5771484375,0.5693359375
814,2.386,IMU2,3.5975609756097566,8.658536585365855,-8.841463414634147,-0.8203125,0.578125,0.5419921875
815,2.396,IMU0,3.2926829268292686,7.25609756097561,-7.621951219512196,-0.8330078125,0.54296875,0.6083984375
816,2.396,IMU1,6.158536585365854,6.2804878048780495,-7.25609756097561,-0.8330078125,0.5703125,0.625
817,2.396,IMU2,4.2682926829268295,7.134146341463415,-7.926829268292684,-0.857421875,0.521484375,0.6201171875
818,2.406,IMU0,4.329268292682928,5.7926829268292686,-8.292682926829269,-0.8837890625,0.5546875,0.6376953125
819,2.406,IMU1,7.378048780487806,5.121951219512195,-7.926829268292684,-0.880859375,0.55078125,0.6328125
820,2.406,IMU2,5.0,5.914634146341464,-8.475609756097562,-0.88671875,0.560546875,0.6259765625
821,2.416,IMU0,4.75609756097561,-0.30487804878048785,-2.9268292682926833,-0.85546875,0.5419921875,0.5966796875
822,2.416,IMU1,7.8048780487804885,-1.0975609756097562,-2.9268292682926833,-0.8525390625,0.5087890625,0.6103515625
823,2.416,IMU2,5.609756097560976,-0.12195121951219513,-2.7439024390243905,-0.830078125,0.6015625,0.5615234375
824,2.426,IMU0,7.621951219512196,0.0,2.5,-0.8134765625,0.578125,0.6220703125
825,2.426,IMU1,10.30487804878049,-0.6707317073170732,2.5609756097560976,-0.818359375,0.548828125,0.6484375
826,2.426,IMU2,8.414634146341465,0.24390243902439027,2.6219512195121952,-0.828125,0.5185546875,0.6123046875
827,2.436,IMU0,8.170731707317074,0.30487804878048785,8.475609756097562,-0.7392578125,0.607421875,0.505859375
828,2.436,IMU1,10.609756097560977,-0.7926829268292683,8.658536585365855,-0.7470703125,0.572265625,0.5244140625
829,2.436,IMU2,9.146341463414634,1.0975609756097562,8.414634146341465,-0.7568359375,0.544921875,0.513671875
830,2.446,IMU0,6.951219512195123,-2.1341463414634148,5.731707317073171,-0.6865234375,0.5986328125,0.482421875
831,2.446,IMU1,9.939024390243903,-2.6219512195121952,6.097560975609756,-0.7060546875,0.5712890625,0.50390625
832,2.446,IMU2,8.78048780487805,-1.0975609756097562,5.731707317073171,-0.728515625,0.5478515625,0.49609375
833,2.456,IMU0,6.097560975609756,-2.1341463414634148,6.097560975609756,-0.630859375,0.572265625,0.4873046875
834,2.456,IMU1,8.475609756097562,-2.8658536585365857,6.219512195121951,-0.6376953125,0.517578125,0.48046875
835,2.456,IMU2,6.951219512195123,-2.3170731707317076,6.2804878048780495,-0.64453125,0.48828125,0.486328125
836,2.466,IMU0,4.75609756097561,-0.426829268292683,4.817073170731708,-0.552734375,0.5205078125,0.4443359375
837,2.466,IMU1,6.890243902439025,-1.5853658536585367,5.2439024390243905,-0.56640625,0.46484375,0.4638671875
838,2.466,IMU2,6.158536585365854,0.1829268292682927,4.634146341463415,-0.5810546875,0.4375,0.44921875
839,2.476,IMU0,4.695121951219512,1.524390243902439,5.060975609756098,-0.587890625,0.5791015625,0.4365234375
840,2.476,IMU1,7.134146341463415,0.853658536585366,5.365853658536586,-0.6025390625,0.53125,0.455078125
841,2.476,IMU2,5.365853658536586,2.3170731707317076,4.695121951219512,-0.615234375,0.501953125,0.4384765625
842,2.486,IMU0,3.414634146341464,1.4634146341463417,4.390243902439025,-0.6494140625,0.5693359375,0.482421875
843,2.486,IMU1,5.7926829268292686,0.6097560975609757,4.695121951219512,-0.65625,0.5244140625,0.474609375
844,2.486,IMU2,4.817073170731708,2.1341463414634148,4.085365853658537,-0.6650390625,0.5068359375,0.47265625
845,2.496,IMU0,4.51219512195122,1.6463414634146343,7.378048780487806,-0.7197265625,0.5283203125,0.4580078125
846,2.496,IMU1,6.7682926829268295,0.9146341463414634,7.560975609756098,-0.720703125,0.482421875,0.4716796875
847,2.496,IMU2,5.2439024390243905,1.524390243902439,7.682926829268293,-0.724609375,0.47265625,0.4677734375
848,2.506,IMU0,4.024390243902439,-1.829268292682927,12.256097560975611,-0.6865234375,0.4892578125,0.4287109375
849,2.506,IMU1,6.829268292682928,-2.7439024390243905,12.500000000000002,-0.69921875,0.439453125,0.44140625
850,2.506,IMU2,5.426829268292684,-1.5853658536585367,11.951219512195124,-0.7099609375,0.431640625,0.4248046875
851,2.516,IMU0,3.7195121951219514,1.524390243902439,10.731707317073171,-0.705078125,0.51171875,0.462890625
852,2.516,IMU1,6.219512195121951,0.7317073170731708,10.975609756097562,-0.7109375,0.4609375,0.4853515625
853,2.516,IMU2,5.365853658536586,2.1341463414634148,10.426829268292684,-0.7236328125,0.45703125,0.482421875
854,2.526,IMU0,4.51219512195122,1.0365853658536586,11.036585365853659,-0.6845703125,0.560546875,0.4521484375
855,2.526,IMU1,7.25609756097561,0.06097560975609757,11.219512195121952,-0.6943359375,0.5224609375,0.4482421875
856,2.526,IMU2,5.853658536585367,2.073170731707317,10.792682926829269,-0.705078125,0.521484375,0.4287109375
857,2.536,IMU0,2.8658536585365857,0.48780487804878053,8.658536585365855,-0.6630859375,0.568359375,0.447265625
858,2.536,IMU1,5.426829268292684,-0.6097560975609757,8.963414634146343,-0.671875,0.5537109375,0.4677734375
859,2.536,IMU2,3.9024390243902443,0.9146341463414634,8.475609756097562,-0.6884765625,0.5537109375,0.458984375
860,2.546,IMU0,1.402439024390244,0.9756097560975611,5.060975609756098,-0.66015625,0.5439453125,0.484375
861,2.546,IMU1,3.9024390243902443,-0.24390243902439027,5.365853658536586,-0.66015625,0.5556640625,0.474609375
862,2.546,IMU2,2.804878048780488,0.9146341463414634,4.695121951219512,-0.67578125,0.5517578125,0.4580078125
863,2.556,IMU0,0.7926829268292683,0.853658536585366,3.414634146341464,-0.654296875,0.490234375,0.453125
864,2.556,IMU1,2.5,-0.426829268292683,3.780487804878049,-0.654296875,0.5234375,0.482421875
865,2.556,IMU2,2.25609756097561,0.7317073170731708,3.1097560975609757,-0.6708984375,0.509765625,0.4736328125
866,2.566,IMU0,3.7195121951219514,0.6707317073170732,6.158536585365854,-0.6484375,0.4736328125,0.462890625
867,2.566,IMU1,5.365853658536586,-0.7317073170731708,6.402439024390245,-0.63671875,0.498046875,0.482421875
868,2.566,IMU2,4.75609756097561,0.48780487804878053,5.853658536585367,-0.6484375,0.4853515625,0.4765625
869,2.576,IMU0,6.7682926829268295,0.9756097560975611,7.926829268292684,-0.626953125,0.462890625,0.451171875
870,2.576,IMU1,8.658536585365855,-0.6097560975609757,8.353658536585366,-0.623046875,0.4853515625,0.4462890625
871,2.576,IMU2,7.682926829268293,0.6097560975609757,7.743902439024391,-0.63671875,0.4716796875,0.4375
872,2.586,IMU0,6.097560975609756,-1.1585365853658538,8.841463414634147,-0.6328125,0.4609375,0.419921875
873,2.586,IMU1,8.658536585365855,-2.1951219512195124,9.26829268292683,-0.634765625,0.4951171875,0.4443359375
874,2.586,IMU2,7.439024390243903,-0.853658536585366,8.597560975609756,-0.6494140625,0.470703125,0.4404296875
875,2.596,IMU0,6.097560975609756,2.5,5.426829268292684,-0.642578125,0.5126953125,0.447265625
876,2.596,IMU1,8.719512195121952,1.402439024390244,5.426829268292684,-0.6396484375,0.54296875,0.4638671875
877,2.596,IMU2,7.134146341463415,2.439024390243903,5.3048780487804885,-0.666015625,0.5205078125,0.4638671875
878,2.606,IMU0,4.146341463414634,0.7926829268292683,2.439024390243903,-0.6484375,0.5791015625,0.44140625
879,2.606,IMU1,6.2804878048780495,0.12195121951219513,2.7439024390243905,-0.6474609375,0.6123046875,0.42578125
880,2.606,IMU2,4.817073170731708,0.9146341463414634,2.25609756097561,-0.6669921875,0.5859375,0.404296875
881,2.616,IMU0,3.231707317073171,0.6707317073170732,3.1707317073170733,-0.6455078125,0.6044921875,0.4873046875
882,2.616,IMU1,5.853658536585367,0.1829268292682927,3.5975609756097566,-0.6865234375,0.4306640625,0.49609375
883,2.616,IMU2,4.451219512195122,0.9146341463414634,2.8658536585365857,-0.6630859375,0.607421875,0.4658203125
884,2.626,IMU0,3.536585365853659,-1.402439024390244,4.878048780487806,-0.5927734375,0.615234375,0.4404296875
885,2.626,IMU1,6.585365853658537,-1.524390243902439,5.426829268292684,-0.630859375,0.4384765625,0.4560546875
886,2.626,IMU2,5.0,-1.1585365853658538,4.573170731707317,-0.607421875,0.61328125,0.4208984375
887,2.636,IMU0,5.914634146341464,0.06097560975609757,9.695121951219512,-0.5439453125,0.634765625,0.4306640625
888,2.636,IMU1,8.536585365853659,-0.3658536585365854,10.30487804878049,-0.580078125,0.4775390625,0.44921875
889,2.636,IMU2,6.951219512195123,0.06097560975609757,9.451219512195122,-0.556640625,0.6318359375,0.390625
890,2.646,IMU0,7.195121951219513,0.1829268292682927,9.329268292682928,-0.52734375,0.6416015625,0.3994140625
891,2.646,IMU1,9.573170731707318,0.06097560975609757,9.634146341463415,-0.5625,0.515625,0.412109375
892,2.646,IMU2,8.353658536585366,0.5487804878048781,9.085365853658537,-0.548828125,0.6396484375,0.3447265625
893,2.656,IMU0,7.378048780487806,-1.2195121951219514,8.78048780487805,-0.5185546875,0.6416015625,0.400390625
894,2.656,IMU1,9.51219512195122,-1.6463414634146343,8.841463414634147,-0.544921875,0.5556640625,0.3974609375
895,2.656,IMU2,8.536585365853659,-0.853658536585366,8.475609756097562,-0.5439453125,0.6416015625,0.3623046875
896,2.666,IMU0,7.195121951219513,-0.1829268292682927,5.914634146341464,-0.5263671875,0.62890625,0.4091796875
897,2.666,IMU1,9.085365853658537,-0.6707317073170732,6.341463414634147,-0.5390625,0.62890625,0.3974609375
898,2.666,IMU2,8.292682926829269,0.24390243902439027,5.670731707317073,-0.541015625,0.6357421875,0.3876953125
899,2.676,IMU0,6.52439024390244,-1.707317073170732,3.7195121951219514,-0.53515625,0.5390625,0.3955078125
900,2.676,IMU1,8.170731707317074,-2.8658536585365857,4.085365853658537,-0.533203125,0.6279296875,0.3798828125
901,2.676,IMU2,7.317073170731708,-1.6463414634146343,3.536585365853659,-0.5498046875,0.5576171875,0.40234375
902,2.686,IMU0,6.52439024390244,-1.5853658536585367,3.8414634146341466,-0.560546875,0.470703125,0.396484375
903,2.686,IMU1,8.414634146341465,-2.987804878048781,4.146341463414634,-0.55078125,0.6142578125,0.4169921875
904,2.686,IMU2,7.682926829268293,-1.2195121951219514,3.7195121951219514,-0.5732421875,0.4990234375,0.4384765625
905,2.696,IMU0,5.975609756097562,-0.12195121951219513,2.1951219512195124,-0.5849609375,0.3818359375,0.3759765625
906,2.696,IMU1,8.414634146341465,-1.6463414634146343,2.682926829268293,-0.5615234375,0.5458984375,0.4130859375
907,2.696,IMU2,7.25609756097561,0.0,2.073170731707317,-0.5859375,0.412109375,0.4169921875
908,2.706,IMU0,5.7926829268292686,-1.2804878048780488,5.548780487804878,-0.5966796875,0.3408203125,0.3828125
909,2.706,IMU1,8.109756097560977,-3.2926829268292686,5.853658536585367,-0.5673828125,0.48046875,0.41796875
910,2.706,IMU2,7.134146341463415,-1.7682926829268295,5.3048780487804885,-0.6015625,0.361328125,0.40625
911,2.716,IMU0,5.670731707317073,0.3658536585365854,3.9024390243902443,-0.5830078125,0.3486328125,0.357421875
912,2.716,IMU1,7.987804878048781,-1.7682926829268295,3.7195121951219514,-0.5751953125,0.44140625,0.4111328125
913,2.716,IMU2,6.7682926829268295,-0.06097560975609757,3.536585365853659,-0.603515625,0.359375,0.3779296875
914,2.726,IMU0,3.7195121951219514,-1.8902439024390245,-0.6097560975609757,-0.5849609375,0.3212890625,0.3642578125
915,2.726,IMU1,6.219512195121951,-3.414634146341464,-0.853658536585366,-0.5849609375,0.369140625,0.4111328125
916,2.726,IMU2,5.365853658536586,-1.707317073170732,-1.0975609756097562,-0.6083984375,0.3203125,0.3720703125
917,2.736,IMU0,2.8658536585365857,-2.1341463414634148,-3.1097560975609757,-0.63671875,0.32421875,0.3955078125
918,2.736,IMU1,5.182926829268293,-3.9024390243902443,-2.987804878048781,-0.6259765625,0.3369140625,0.4169921875
919,2.736,IMU2,4.329268292682928,-2.3170731707317076,-3.4756097560975614,-0.646484375,0.310546875,0.4033203125
920,2.746,IMU0,3.231707317073171,-2.5609756097560976,-2.5,-0.6513671875,0.3388671875,0.4111328125
921,2.746,IMU1,5.7926829268292686,-4.146341463414634,-2.25609756097561,-0.6435546875,0.3251953125,0.41796875
922,2.746,IMU2,4.573170731707317,-2.8658536585365857,-2.804878048780488,-0.6650390625,0.3134765625,0.4365234375
923,2.756,IMU0,3.9024390243902443,-3.7195121951219514,-1.0365853658536586,-0.640625,0.369140625,0.4169921875
924,2.756,IMU1,7.439024390243903,-5.060975609756098,-0.853658536585366,-0.6396484375,0.322265625,0.4267578125
925,2.756,IMU2,5.426829268292684,-3.9024390243902443,-1.3414634146341464,-0.65625,0.3291015625,0.4267578125
926,2.766,IMU0,3.5975609756097566,-3.5975609756097566,-1.9512195121951221,-0.6171875,0.4267578125,0.3955078125
927,2.766,IMU1,6.829268292682928,-4.695121951219512,-1.9512195121951221,-0.6279296875,0.3603515625,0.408203125
928,2.766,IMU2,4.939024390243903,-3.353658536585366,-2.3170731707317076,-0.638671875,0.3857421875,0.3974609375
929,2.776,IMU0,3.2926829268292686,-3.353658536585366,-5.914634146341464,-0.6162109375,0.4453125,0.4140625
930,2.776,IMU1,5.487804878048781,-4.451219512195122,-5.426829268292684,-0.6318359375,0.400390625,0.41015625
931,2.776,IMU2,3.963414634146342,-3.231707317073171,-5.7926829268292686,-0.642578125,0.4228515625,0.4013671875
932,2.786,IMU0,1.5853658536585367,-5.182926829268293,-10.0,-0.5986328125,0.458984375,0.3603515625
933,2.786,IMU1,4.024390243902439,-5.975609756097562,-9.695121951219512,-0.59765625,0.46484375,0.3515625
934,2.786,IMU2,2.682926829268293,-5.060975609756098,-10.121951219512196,-0.61328125,0.4658203125,0.353515625
935,2.796,IMU0,1.7682926829268295,-3.231707317073171,-9.573170731707318,-0.5986328125,0.501953125,0.423828125
936,2.796,IMU1,4.390243902439025,-4.390243902439025,-9.451219512195122,-0.5986328125,0.5244140625,0.3876953125
937,2.796,IMU2,3.1707317073170733,-3.1707317073170733,-10.24390243902439,-0.6044921875,0.501953125,0.380859375
938,2.806,IMU0,3.231707317073171,-1.5853658536585367,-4.51219512195122,-0.60546875,0.3828125,0.3623046875
939,2.806,IMU1,5.7926829268292686,-3.2926829268292686,-4.329268292682928,-0.5859375,0.5361328125,0.357421875
940,2.806,IMU2,4.451219512195122,-1.8902439024390245,-5.060975609756098,-0.5966796875,0.4814453125,0.3583984375
941,2.816,IMU0,4.451219512195122,-1.829268292682927,-0.853658536585366,-0.623046875,0.533203125,0.38671875
942,2.816,IMU1,6.951219512195123,-3.2926829268292686,-0.6707317073170732,-0.6298828125,0.50390625,0.3974609375
943,2.816,IMU2,5.609756097560976,-1.8902439024390245,-1.3414634146341464,-0.64453125,0.439453125,0.369140625
944,2.826,IMU0,3.658536585365854,-2.3170731707317076,0.6707317073170732,-0.6591796875,0.51953125,0.3798828125
945,2.826,IMU1,6.402439024390245,-3.658536585365854,0.853658536585366,-0.671875,0.474609375,0.388671875
946,2.826,IMU2,5.0,-2.1951219512195124,0.24390243902439027,-0.69140625,0.4111328125,0.353515625
947,2.836,IMU0,2.1951219512195124,-3.231707317073171,-0.9146341463414634,-0.658203125,0.4638671875,0.3828125
948,2.836,IMU1,5.487804878048781,-4.573170731707317,-0.426829268292683,-0.6796875,0.4140625,0.3994140625
949,2.836,IMU2,3.536585365853659,-2.987804878048781,-0.6707317073170732,-0.7109375,0.357421875,0.3837890625
950,2.846,IMU0,0.9146341463414634,-2.987804878048781,-4.024390243902439,-0.6923828125,0.38671875,0.3623046875
951,2.846,IMU1,3.2926829268292686,-4.146341463414634,-3.780487804878049,-0.69921875,0.3447265625,0.38671875
952,2.846,IMU2,1.8902439024390245,-2.804878048780488,-4.329268292682928,-0.712890625,0.3154296875,0.3564453125
953,2.856,IMU0,-0.48780487804878053,-3.8414634146341466,-3.658536585365854,-0.734375,0.3505859375,0.3466796875
954,2.856,IMU1,2.073170731707317,-5.2439024390243905,-3.353658536585366,-0.740234375,0.341796875,0.3662109375
955,2.856,IMU2,0.3658536585365854,-3.9024390243902443,-3.9024390243902443,-0.7548828125,0.337890625,0.33203125
956,2.866,IMU0,-0.06097560975609757,-3.4756097560975614,-1.7682926829268295,-0.73828125,0.3798828125,0.3564453125
957,2.866,IMU1,2.0121951219512195,-4.75609756097561,-1.4634146341463417,-0.740234375,0.388671875,0.3671875
958,2.866,IMU2,0.6707317073170732,-3.4756097560975614,-2.073170731707317,-0.751953125,0.39453125,0.3330078125
959,2.876,IMU0,1.2804878048780488,-2.378048780487805,2.073170731707317,-0.7216796875,0.439453125,0.3583984375
960,2.876,IMU1,3.7195121951219514,-3.780487804878049,2.3170731707317076,-0.720703125,0.451171875,0.3447265625
961,2.876,IMU2,2.25609756097561,-2.7439024390243905,1.707317073170732,-0.728515625,0.44921875,0.2998046875
962,2.886,IMU0,2.1951219512195124,-1.524390243902439,4.085365853658537,-0.7568359375,0.4658203125,0.337890625
963,2.886,IMU1,5.060975609756098,-2.5,4.329268292682928,-0.7568359375,0.44921875,0.318359375
964,2.886,IMU2,3.048780487804878,-1.707317073170732,3.7195121951219514,-0.7685546875,0.4345703125,0.2890625
965,2.896,IMU0,1.9512195121951221,-1.0365853658536586,4.451219512195122,-0.794921875,0.470703125,0.341796875
966,2.896,IMU1,4.75609756097561,-2.1951219512195124,4.75609756097561,-0.8037109375,0.4228515625,0.34375
967,2.896,IMU2,3.1707317073170733,-1.2195121951219514,4.146341463414634,-0.8193359375,0.404296875,0.341796875
968,2.906,IMU0,1.2195121951219514,-1.6463414634146343,1.524390243902439,-0.822265625,0.4296875,0.3271484375
969,2.906,IMU1,4.024390243902439,-2.5609756097560976,1.8902439024390245,-0.83203125,0.37109375,0.345703125
970,2.906,IMU2,2.5,-1.4634146341463417,1.402439024390244,-0.8486328125,0.3603515625,0.3544921875
971,2.916,IMU0,0.0,-2.7439024390243905,-1.0975609756097562,-0.8193359375,0.337890625,0.3291015625
972,2.916,IMU1,2.439024390243903,-3.8414634146341466,-0.6707317073170732,-0.8232421875,0.29296875,0.3564453125
973,2.916,IMU2,1.402439024390244,-2.378048780487805,-1.2804878048780488,-0.8369140625,0.2890625,0.359375
974,2.926,IMU0,0.7926829268292683,-1.5853658536585367,-0.7317073170731708,-0.8046875,0.2734375,0.322265625
975,2.926,IMU1,3.2926829268292686,-2.378048780487805,-0.426829268292683,-0.8076171875,0.2529296875,0.36328125
976,2.926,IMU2,2.0121951219512195,-0.9756097560975611,-0.9756097560975611,-0.8193359375,0.2529296875,0.3642578125
977,2.936,IMU0,0.24390243902439027,-0.48780487804878053,-1.1585365853658538,-0.8271484375,0.2080078125,0.30859375
978,2.936,IMU1,2.439024390243903,-1.3414634146341464,-0.7926829268292683,-0.8232421875,0.2294921875,0.3271484375
979,2.936,IMU2,1.3414634146341464,0.1829268292682927,-1.402439024390244,-0.8330078125,0.2294921875,0.3203125
980,2.946,IMU0,1.2195121951219514,0.6707317073170732,1.2804878048780488,-0.8427734375,0.2490234375,0.326171875
981,2.946,IMU1,3.5975609756097566,-0.5487804878048781,1.707317073170732,-0.837890625,0.2919921875,0.328125
982,2.946,IMU2,2.5609756097560976,0.853658536585366,1.0365853658536586,-0.8544921875,0.28515625,0.3125
983,2.956,IMU0,2.439024390243903,1.5853658536585367,2.5609756097560976,-0.802734375,0.3095703125,0.337890625
984,2.956,IMU1,4.2682926829268295,0.06097560975609757,2.9268292682926833,-0.7958984375,0.357421875,0.337890625
985,2.956,IMU2,3.536585365853659,1.402439024390244,2.25609756097561,-0.8134765625,0.3427734375,0.31640625
986,2.966,IMU0,1.707317073170732,-1.0365853658536586,3.658536585365854,-0.7900390625,0.3193359375,0.3310546875
987,2.966,IMU1,3.536585365853659,-2.378048780487805,3.8414634146341466,-0.779296875,0.3623046875,0.3330078125
988,2.966,IMU2,2.7439024390243905,-1.2804878048780488,3.353658536585366,-0.7939453125,0.3447265625,0.3125
989,2.976,IMU0,2.1951219512195124,-0.06097560975609757,3.963414634146342,-0.79296875,0.3779296875,0.3154296875
990,2.976,IMU1,3.780487804878049,-1.524390243902439,4.390243902439025,-0.794921875,0.41015625,0.3330078125
991,2.976,IMU2,3.536585365853659,-0.30487804878048785,3.7195121951219514,-0.818359375,0.39453125,0.318359375
992,2.986,IMU0,1.4634146341463417,-0.06097560975609757,2.073170731707317,-0.76953125,0.412109375,0.3369140625
993,2.986,IMU1,3.536585365853659,-1.3414634146341464,2.439024390243903,-0.7744140625,0.4267578125,0.341796875
994,2.986,IMU2,2.804878048780488,-0.12195121951219513,1.7682926829268295,-0.7919921875,0.419921875,0.3203125
995,2.996,IMU0,1.0975609756097562,-0.9756097560975611,0.30487804878048785,-0.771484375,0.3798828125,0.330078125
996,2.996,IMU1,3.048780487804878,-2.0121951219512195,0.6097560975609757,-0.7763671875,0.365234375,0.3212890625
997,2.996,IMU2,2.3170731707317076,-0.7317073170731708,-0.12195121951219513,-0.78515625,0.3759765625,0.2919921875
998,3.006,IMU0,0.7926829268292683,-0.9146341463414634,0.426829268292683,-0.7998046875,0.3681640625,0.34375
999,3.006,IMU1,2.9268292682926833,-1.6463414634146343,0.7926829268292683,-0.8056640625,0.3359375,0.3310546875
1000,3.006,IMU2,2.073170731707317,-0.24390243902439027,0.12195121951219513,-0.818359375,0.3583984375,0.3046875
1001,3.016,IMU0,2.1341463414634148,-0.12195121951219513,1.4634146341463417,-0.7939453125,0.32421875,0.3427734375
1002,3.016,IMU1,4.75609756097561,-1.0365853658536586,1.6463414634146343,-0.794921875,0.279296875,0.35546875
1003,3.016,IMU2,3.231707317073171,0.0,1.1585365853658538,-0.8056640625,0.3154296875,0.328125
1004,3.026,IMU0,2.3170731707317076,-0.5487804878048781,1.524390243902439,-0.7548828125,0.279296875,0.310546875
1005,3.026,IMU1,4.329268292682928,-2.1951219512195124,1.9512195121951221,-0.76171875,0.234375,0.337890625
1006,3.026,IMU2,3.231707317073171,-1.0975609756097562,1.402439024390244,-0.7666015625,0.2744140625,0.32421875
1007,3.036,IMU0,1.0365853658536586,0.30487804878048785,-0.6097560975609757,-0.7861328125,0.232421875,0.3447265625
1008,3.036,IMU1,3.8414634146341466,-1.0365853658536586,-0.30487804878048785,-0.7958984375,0.208984375,0.376953125
1009,3.036,IMU2,2.0121951219512195,-0.12195121951219513,-0.853658536585366,-0.802734375,0.232421875,0.375
1010,3.046,IMU0,1.1585365853658538,0.24390243902439027,-1.4634146341463417,-0.8251953125,0.18359375,0.3369140625
1011,3.046,IMU1,3.5975609756097566,-0.9756097560975611,-1.2195121951219514,-0.818359375,0.1845703125,0.3349609375
1012,3.046,IMU2,2.1951219512195124,0.24390243902439027,-1.707317073170732,-0.8330078125,0.1826171875,0.3583984375
1013,3.056,IMU0,0.5487804878048781,-2.804878048780488,-1.524390243902439,-0.81640625,0.1884765625,0.3173828125
1014,3.056,IMU1,3.1707317073170733,-4.024390243902439,-1.2195121951219514,-0.8095703125,0.203125,0.318359375
1015,3.056,IMU2,1.9512195121951221,-2.8658536585365857,-1.829268292682927,-0.8310546875,0.1826171875,0.3271484375
1016,3.066,IMU0,1.0975609756097562,-3.1097560975609757,0.3658536585365854,-0.755859375,0.203125,0.296875
1017,3.066,IMU1,3.2926829268292686,-4.451219512195122,0.6097560975609757,-0.74609375,0.2275390625,0.3173828125
1018,3.066,IMU2,2.439024390243903,-3.048780487804878,0.12195121951219513,-0.765625,0.193359375,0.275390625
1019,3.076,IMU0,1.829268292682927,-1.829268292682927,1.4634146341463417,-0.720703125,0.2353515625,0.306640625
1020,3.076,IMU1,3.5975609756097566,-3.1707317073170733,1.829268292682927,-0.7216796875,0.2705078125,0.3447265625
1021,3.076,IMU2,3.231707317073171,-1.8902439024390245,1.2195121951219514,-0.744140625,0.2197265625,0.310546875
1022,3.086,IMU0,1.707317073170732,0.3658536585365854,0.30487804878048785,-0.73046875,0.2978515625,0.2978515625
1023,3.086,IMU1,3.2926829268292686,-0.9756097560975611,0.7317073170731708,-0.7333984375,0.3388671875,0.3076171875
1024,3.086,IMU2,2.6219512195121952,0.6097560975609757,0.06097560975609757,-0.759765625,0.2724609375,0.3251953125
1025,3.096,IMU0,0.3658536585365854,1.0975609756097562,-0.9756097560975611,-0.7265625,0.3408203125,0.32421875
1026,3.096,IMU1,2.073170731707317,-0.3658536585365854,-0.6707317073170732,-0.7294921875,0.357421875,0.302734375
1027,3.096,IMU2,1.1585365853658538,1.1585365853658538,-1.2195121951219514,-0.7509765625,0.3125,0.3203125
1028,3.106,IMU0,0.06097560975609757,1.1585365853658538,-0.12195121951219513,-0.7275390625,0.3525390625,0.3115234375
1029,3.106,IMU1,2.1341463414634148,-0.12195121951219513,0.12195121951219513,-0.73046875,0.3359375,0.2958984375
1030,3.106,IMU2,0.9146341463414634,1.3414634146341464,-0.30487804878048785,-0.744140625,0.34375,0.287109375
1031,3.116,IMU0,-1.2804878048780488,-0.3658536585365854,-1.0365853658536586,-0.763671875,0.3349609375,0.3212890625
1032,3.116,IMU1,1.1585365853658538,-1.5853658536585367,-0.6707317073170732,-0.7734375,0.2939453125,0.3388671875
1033,3.116,IMU2,-0.3658536585365854,-0.48780487804878053,-1.3414634146341464,-0.7822265625,0.3505859375,0.2822265625
1034,3.126,IMU0,-2.0121951219512195,-2.804878048780488,-3.048780487804878,-0.740234375,0.255859375,0.302734375
1035,3.126,IMU1,0.24390243902439027,-3.9024390243902443,-2.7439024390243905,-0.748046875,0.2080078125,0.3212890625
1036,3.126,IMU2,-1.2804878048780488,-3.048780487804878,-3.353658536585366,-0.751953125,0.298828125,0.26953125
1037,3.136,IMU0,-1.9512195121951221,-2.987804878048781,-3.2926829268292686,-0.712890625,0.216796875,0.2890625
1038,3.136,IMU1,-0.3658536585365854,-4.207317073170732,-2.8658536585365857,-0.71875,0.17578125,0.31640625
1039,3.136,IMU2,-0.9756097560975611,-2.8658536585365857,-3.536585365853659,-0.71875,0.2666015625,0.296875
1040,3.146,IMU0,-1.2804878048780488,0.12195121951219513,-2.6219512195121952,-0.703125,0.1572265625,0.3134765625
1041,3.146,IMU1,0.30487804878048785,-1.402439024390244,-2.073170731707317,-0.70703125,0.1328125,0.3349609375
1042,3.146,IMU2,-0.12195121951219513,0.24390243902439027,-2.8658536585365857,-0.6982421875,0.2080078125,0.328125
1043,3.156,IMU0,-0.3658536585365854,1.402439024390244,-1.0365853658536586,-0.7109375,0.125,0.302734375
1044,3.156,IMU1,1.402439024390244,-0.06097560975609757,-0.7317073170731708,-0.68359375,0.265625,0.2919921875
1045,3.156,IMU2,0.853658536585366,1.5853658536585367,-1.402439024390244,-0.7080078125,0.1591796875,0.318359375
1046,3.166,IMU0,0.0,1.9512195121951221,-1.3414634146341464,-0.720703125,0.1171875,0.2763671875
1047,3.166,IMU1,2.378048780487805,0.24390243902439027,-0.853658536585366,-0.685546875,0.2119140625,0.2919921875
1048,3.166,IMU2,1.2804878048780488,2.1951219512195124,-1.5853658536585367,-0.712890625,0.1279296875,0.3037109375
1049,3.176,IMU0,-0.12195121951219513,0.3658536585365854,-0.426829268292683,-0.685546875,0.1142578125,0.244140625
1050,3.176,IMU1,2.3170731707317076,-0.9146341463414634,-0.48780487804878053,-0.671875,0.12890625,0.2724609375
1051,3.176,IMU2,1.3414634146341464,0.6097560975609757,-0.9146341463414634,-0.705078125,0.0908203125,0.2685546875
1052,3.186,IMU0,1.2804878048780488,0.7926829268292683,1.5853658536585367,-0.609375,0.1396484375,0.2880859375
1053,3.186,IMU1,4.146341463414634,-0.24390243902439027,1.8902439024390245,-0.6142578125,0.0693359375,0.310546875
1054,3.186,IMU2,2.8658536585365857,1.0975609756097562,1.3414634146341464,-0.6318359375,0.0771484375,0.2919921875
1055,3.196,IMU0,2.5609756097560976,2.1341463414634148,2.439024390243903,-0.5947265625,0.2236328125,0.2763671875
1056,3.196,IMU1,5.3048780487804885,1.4634146341463417,2.682926829268293,-0.6181640625,0.0927734375,0.2734375
1057,3.196,IMU2,4.207317073170732,2.439024390243903,2.1951219512195124,-0.6240234375,0.130859375,0.2841796875
1058,3.206,IMU0,1.0365853658536586,0.30487804878048785,0.06097560975609757,-0.5908203125,0.294921875,0.2841796875
1059,3.206,IMU1,3.9024390243902443,-0.06097560975609757,0.0,-0.6201171875,0.1279296875,0.296875
1060,3.206,IMU2,2.439024390243903,0.853658536585366,-0.30487804878048785,-0.6357421875,0.201171875,0.2734375
1061,3.216,IMU0,0.48780487804878053,-0.6707317073170732,-3.2926829268292686,-0.57421875,0.30859375,0.265625
1062,3.216,IMU1,2.9268292682926833,-1.1585365853658538,-2.987804878048781,-0.6015625,0.212890625,0.271484375
1063,3.216,IMU2,1.707317073170732,-0.5487804878048781,-3.536585365853659,-0.6123046875,0.2724609375,0.2236328125
1064,3.226,IMU0,0.3658536585365854,-0.7317073170731708,-4.2682926829268295,-0.5927734375,0.2763671875,0.294921875
1065,3.226,IMU1,2.6219512195121952,-1.7682926829268295,-3.658536585365854,-0.5908203125,0.294921875,0.2890625
1066,3.226,IMU2,1.4634146341463417,-0.9146341463414634,-4.329268292682928,-0.599609375,0.30078125,0.2880859375
1067,3.236,IMU0,0.9756097560975611,-1.829268292682927,-2.987804878048781,-0.595703125,0.1484375,0.2607421875
1068,3.236,IMU1,2.5609756097560976,-3.2926829268292686,-2.378048780487805,-0.5654296875,0.2744140625,0.283203125
1069,3.236,IMU2,1.5853658536585367,-2.0121951219512195,-3.048780487804878,-0.5849609375,0.2470703125,0.24609375
1070,3.246,IMU0,2.1951219512195124,-0.9146341463414634,-1.0975609756097562,-0.6240234375,0.0498046875,0.265625
1071,3.246,IMU1,3.8414634146341466,-2.5609756097560976,-0.7317073170731708,-0.6083984375,0.18359375,0.2724609375
1072,3.246,IMU2,3.1097560975609757,-1.2195121951219514,-1.402439024390244,-0.625,0.12890625,0.267578125
1073,3.256,IMU0,1.6463414634146343,-1.829268292682927,1.6463414634146343,-0.638671875,0.0576171875,0.259765625
1074,3.256,IMU1,4.207317073170732,-3.353658536585366,2.073170731707317,-0.630859375,0.068359375,0.2841796875
1075,3.256,IMU2,3.1097560975609757,-2.0121951219512195,1.402439024390244,-0.64453125,0.04296875,0.2900390625
1076,3.266,IMU0,-0.426829268292683,-1.402439024390244,0.0,-0.6416015625,0.1455078125,0.2783203125
1077,3.266,IMU1,2.378048780487805,-2.439024390243903,-0.1829268292682927,-0.6572265625,0.05859375,0.2880859375
1078,3.266,IMU2,1.0365853658536586,-1.524390243902439,-0.5487804878048781,-0.677734375,0.06640625,0.275390625
1079,3.276,IMU0,-1.1585365853658538,0.0,-2.25609756097561,-0.6845703125,0.2314453125,0.3095703125
1080,3.276,IMU1,1.9512195121951221,-0.9756097560975611,-2.1951219512195124,-0.703125,0.1240234375,0.3212890625
1081,3.276,IMU2,0.12195121951219513,-0.1829268292682927,-2.6219512195121952,-0.71875,0.14453125,0.322265625
1082,3.286,IMU0,-2.439024390243903,-0.426829268292683,-4.573170731707317,-0.736328125,0.193359375,0.3076171875
1083,3.286,IMU1,-0.06097560975609757,-1.6463414634146343,-4.146341463414634,-0.7392578125,0.193359375,0.3193359375
1084,3.286,IMU2,-1.2804878048780488,-0.9146341463414634,-4.75609756097561,-0.7548828125,0.2021484375,0.2841796875
1085,3.296,IMU0,-2.3170731707317076,-0.9146341463414634,-3.9024390243902443,-0.791015625,0.1025390625,0.32421875
1086,3.296,IMU1,-0.24390243902439027,-2.3170731707317076,-3.536585365853659,-0.775390625,0.1982421875,0.3212890625
1087,3.296,IMU2,-1.524390243902439,-1.3414634146341464,-4.085365853658537,-0.7900390625,0.1865234375,0.3115234375
1088,3.306,IMU0,-1.402439024390244,-1.707317073170732,-2.7439024390243905,-0.8212890625,0.03125,0.302734375
1089,3.306,IMU1,0.30487804878048785,-3.4756097560975614,-2.25609756097561,-0.8076171875,0.140625,0.3349609375
1090,3.306,IMU2,-0.6707317073170732,-2.0121951219512195,-2.8658536585365857,-0.8232421875,0.1240234375,0.3212890625
1091,3.316,IMU0,-1.5853658536585367,-2.439024390243903,-0.9146341463414634,-0.8212890625,0.0478515625,0.32421875
1092,3.316,IMU1,0.853658536585366,-3.5975609756097566,-0.6707317073170732,-0.8134765625,0.0322265625,0.330078125
1093,3.316,IMU2,-0.426829268292683,-1.6463414634146343,-1.2195121951219514,-0.8271484375,0.025390625,0.3330078125
1094,3.326,IMU0,-2.073170731707317,-2.378048780487805,0.12195121951219513,-0.7900390625,0.154296875,0.3232421875
1095,3.326,IMU1,1.524390243902439,-3.1097560975609757,0.3658536585365854,-0.8115234375,0.029296875,0.3349609375
1096,3.326,IMU2,0.1829268292682927,-1.3414634146341464,-0.1829268292682927,-0.8271484375,0.0322265625,0.328125
1097,3.336,IMU0,-0.9756097560975611,-0.853658536585366,0.9756097560975611,-0.8232421875,0.0830078125,0.3232421875
1098,3.336,IMU1,1.1585365853658538,-2.073170731707317,1.2195121951219514,-0.814453125,0.123046875,0.3408203125
1099,3.336,IMU2,0.24390243902439027,-0.30487804878048785,0.6097560975609757,-0.8291015625,0.1220703125,0.3349609375
1100,3.346,IMU0,-0.7926829268292683,-1.3414634146341464,2.682926829268293,-0.8125,0.1982421875,0.3408203125
1101,3.346,IMU1,1.2804878048780488,-2.5,2.987804878048781,-0.8115234375,0.2265625,0.326171875
1102,3.346,IMU2,0.48780487804878053,-0.7317073170731708,2.378048780487805,-0.8291015625,0.22265625,0.294921875
1103,3.356,IMU0,0.0,0.0,0.7926829268292683,-0.7958984375,0.212890625,0.34765625
1104,3.356,IMU1,2.682926829268293,-1.2804878048780488,1.0975609756097562,-0.7998046875,0.2001953125,0.361328125
1105,3.356,IMU2,1.707317073170732,0.7926829268292683,0.5487804878048781,-0.81640625,0.2001953125,0.35546875
1106,3.366,IMU0,0.853658536585366,0.6707317073170732,1.0975609756097562,-0.8203125,0.169921875,0.3369140625
