,ts,id,Gx,Gy,Gz,Ax,Ay,Az
0,-0.024,IMU0,1.4634146341463417,5.182926829268293,2.987804878048781,3.833984375,-0.0009765625,-1.560546875
1,-0.024,IMU1,3.2926829268292686,4.207317073170732,3.414634146341464,3.7998046875,0.0517578125,-1.52734375
2,-0.024,IMU2,2.1341463414634148,5.914634146341464,2.7439024390243905,3.8076171875,0.017578125,-1.576171875
3,-0.014,IMU0,1.2195121951219514,5.487804878048781,2.1951219512195124,3.9248046875,0.0,-1.6005859375
4,-0.014,IMU1,3.2926829268292686,4.634146341463415,2.5609756097560976,3.8876953125,0.0556640625,-1.5966796875
5,-0.014,IMU2,2.1341463414634148,6.219512195121951,1.9512195121951221,3.8935546875,0.0126953125,-1.5810546875
6,-0.004,IMU0,0.6097560975609757,5.487804878048781,2.073170731707317,3.9609375,0.0,-1.6279296875
7,-0.004,IMU1,2.804878048780488,4.573170731707317,2.378048780487805,3.923828125,0.0595703125,-1.6259765625
8,-0.004,IMU2,1.402439024390244,5.975609756097562,2.0121951219512195,3.9482421875,0.0,-1.6201171875
9,0.006,IMU0,0.5487804878048781,6.2804878048780495,2.8658536585365857,3.978515625,0.0126953125,-1.6455078125
10,0.006,IMU1,2.804878048780488,5.0,3.1707317073170733,3.9443359375,0.0673828125,-1.650390625
11,0.006,IMU2,1.1585365853658538,6.52439024390244,2.7439024390243905,3.9658203125,0.0126953125,-1.61328125
12,0.016,IMU0,0.30487804878048785,3.5975609756097566,3.353658536585366,4.0146484375,0.0126953125,-1.666015625
13,0.016,IMU1,2.378048780487805,2.6219512195121952,3.658536585365854,3.9794921875,0.0654296875,-1.6416015625
14,0.016,IMU2,0.6097560975609757,4.390243902439025,3.231707317073171,3.9853515625,0.02734375,-1.65625
15,0.026,IMU0,1.0975609756097562,2.1341463414634148,6.097560975609756,4.048828125,0.0185546875,-1.6484375
16,0.026,IMU1,3.536585365853659,1.0365853658536586,6.585365853658537,4.0205078125,0.064453125,-1.66015625
17,0.026,IMU2,1.8902439024390245,2.9268292682926833,6.097560975609756,4.037109375,0.0107421875,-1.6455078125
18,0.036,IMU0,0.6097560975609757,0.1829268292682927,6.158536585365854,4.119140625,0.005859375,-1.7041015625
19,0.036,IMU1,3.2926829268292686,-0.853658536585366,6.402439024390245,4.103515625,0.041015625,-1.658203125
20,0.036,IMU2,2.1951219512195124,0.853658536585366,5.914634146341464,4.1162109375,-0.0107421875,-1.65234375
21,0.046,IMU0,-0.1829268292682927,-2.5,3.1707317073170733,4.1845703125,0.0029296875,-1.7529296875
22,0.046,IMU1,2.1341463414634148,-3.658536585365854,3.1707317073170733,4.16796875,0.0615234375,-1.734375
23,0.046,IMU2,0.7317073170731708,-2.1341463414634148,2.7439024390243905,4.17578125,0.0068359375,-1.71875
24,0.056,IMU0,0.1829268292682927,-2.0121951219512195,2.1951219512195124,4.2060546875,0.0107421875,-1.74609375
25,0.056,IMU1,2.6219512195121952,-2.5609756097560976,2.5609756097560976,4.166015625,0.0927734375,-1.765625
26,0.056,IMU2,1.524390243902439,-0.7926829268292683,2.1341463414634148,4.181640625,0.0361328125,-1.759765625
27,0.066,IMU0,0.853658536585366,-1.7682926829268295,2.1341463414634148,4.2626953125,-0.0146484375,-1.7548828125
28,0.066,IMU1,2.987804878048781,-2.378048780487805,2.25609756097561,4.201171875,0.0537109375,-1.767578125
29,0.066,IMU2,1.402439024390244,-0.853658536585366,1.829268292682927,4.2138671875,-0.00390625,-1.7529296875
30,0.076,IMU0,-0.6707317073170732,-0.853658536585366,1.3414634146341464,4.232421875,-0.0126953125,-1.7294921875
31,0.076,IMU1,1.5853658536585367,-1.8902439024390245,1.4634146341463417,4.1875,0.037109375,-1.7431640625
32,0.076,IMU2,-0.24390243902439027,-0.1829268292682927,0.9756097560975611,4.1982421875,-0.01953125,-1.7314453125
33,0.086,IMU0,-2.5609756097560976,-0.3658536585365854,-0.6707317073170732,4.2138671875,-0.0107421875,-1.767578125
34,0.086,IMU1,-0.3658536585365854,-1.6463414634146343,-0.6097560975609757,4.185546875,0.025390625,-1.712890625
35,0.086,IMU2,-2.0121951219512195,-0.06097560975609757,-1.0975609756097562,4.1943359375,-0.03125,-1.69921875
36,0.096,IMU0,-3.353658536585366,-0.48780487804878053,-0.6097560975609757,4.1953125,0.0498046875,-1.80859375
37,0.096,IMU1,-1.4634146341463417,-1.524390243902439,0.0,4.1728515625,0.0888671875,-1.751953125
38,0.096,IMU2,-2.378048780487805,-0.24390243902439027,-0.5487804878048781,4.1904296875,0.02734375,-1.7353515625
39,0.106,IMU0,-1.524390243902439,1.4634146341463417,0.7317073170731708,4.1748046875,-0.02734375,-1.8037109375
40,0.106,IMU1,0.30487804878048785,0.3658536585365854,0.853658536585366,4.1484375,0.013671875,-1.76953125
41,0.106,IMU2,-0.48780487804878053,1.8902439024390245,0.24390243902439027,4.16015625,-0.0478515625,-1.7529296875
42,0.116,IMU0,-3.353658536585366,4.817073170731708,-2.804878048780488,4.171875,-0.0234375,-1.7880859375
43,0.116,IMU1,-1.9512195121951221,4.024390243902439,-2.3170731707317076,4.1376953125,0.033203125,-1.7734375
44,0.116,IMU2,-2.682926829268293,5.3048780487804885,-2.8658536585365857,4.15234375,-0.0263671875,-1.7490234375
45,0.126,IMU0,-1.5853658536585367,4.695121951219512,0.853658536585366,4.1552734375,-0.0078125,-1.8046875
46,0.126,IMU1,0.1829268292682927,4.024390243902439,1.3414634146341464,4.1162109375,0.0498046875,-1.78515625
47,0.126,IMU2,-0.6707317073170732,5.426829268292684,0.853658536585366,4.1328125,-0.0087890625,-1.7705078125
48,0.136,IMU0,-2.6219512195121952,7.134146341463415,1.5853658536585367,4.134765625,-0.0400390625,-1.7490234375
49,0.136,IMU1,5.060975609756098,3.2926829268292686,1.6463414634146343,4.0830078125,0.0224609375,-1.6025390625
50,0.136,IMU2,3.8414634146341466,3.414634146341464,1.0975609756097562,4.0947265625,-0.029296875,-1.6376953125
51,0.146,IMU0,-2.073170731707317,5.670731707317073,0.24390243902439027,4.1220703125,-0.0546875,-1.6796875
52,0.146,IMU1,3.353658536585366,1.1585365853658538,0.48780487804878053,4.0732421875,0.021484375,-1.61328125
53,0.146,IMU2,2.439024390243903,1.707317073170732,0.06097560975609757,4.0859375,-0.03125,-1.6142578125
54,0.156,IMU0,-2.1341463414634148,1.8902439024390245,0.0,4.103515625,-0.0205078125,-1.7724609375
55,0.156,IMU1,2.0121951219512195,0.5487804878048781,0.426829268292683,4.0517578125,0.0439453125,-1.7587890625
56,0.156,IMU2,0.1829268292682927,1.5853658536585367,0.06097560975609757,4.0703125,-0.01171875,-1.740234375
57,0.166,IMU0,-0.24390243902439027,-0.30487804878048785,3.231707317073171,4.0888671875,-0.0458984375,-1.7119140625
58,0.166,IMU1,2.8658536585365857,-1.829268292682927,3.536585365853659,4.0361328125,0.013671875,-1.7451171875
59,0.166,IMU2,1.829268292682927,-0.7926829268292683,3.048780487804878,4.046875,-0.0400390625,-1.73046875
60,0.176,IMU0,-1.829268292682927,-0.853658536585366,1.9512195121951221,4.0400390625,-0.0732421875,-1.6982421875
61,0.176,IMU1,0.9756097560975611,-1.7682926829268295,1.7682926829268295,3.9833984375,-0.0107421875,-1.7275390625
62,0.176,IMU2,0.1829268292682927,-1.1585365853658538,1.0365853658536586,3.986328125,-0.0654296875,-1.7265625
63,0.186,IMU0,-1.0365853658536586,-0.426829268292683,0.24390243902439027,3.9853515625,-0.0322265625,-1.720703125
64,0.186,IMU1,1.9512195121951221,-1.6463414634146343,0.5487804878048781,3.9423828125,0.0146484375,-1.71875
65,0.186,IMU2,0.6097560975609757,-0.426829268292683,0.0,3.94921875,-0.0283203125,-1.716796875
66,0.196,IMU0,-1.2195121951219514,-1.829268292682927,0.12195121951219513,3.947265625,-0.037109375,-1.6572265625
67,0.196,IMU1,1.2195121951219514,-2.7439024390243905,0.426829268292683,3.8984375,0.0234375,-1.6953125
68,0.196,IMU2,-0.1829268292682927,-1.829268292682927,-0.06097560975609757,3.91015625,-0.03125,-1.6875
69,0.206,IMU0,-1.2195121951219514,-0.12195121951219513,0.30487804878048785,3.900390625,-0.0322265625,-1.6630859375
70,0.206,IMU1,1.402439024390244,-1.0365853658536586,0.6097560975609757,3.8544921875,0.0185546875,-1.689453125
71,0.206,IMU2,-0.1829268292682927,0.06097560975609757,0.06097560975609757,3.865234375,-0.0341796875,-1.6552734375
72,0.216,IMU0,-1.2195121951219514,-0.6707317073170732,-1.3414634146341464,3.85546875,-0.0341796875,-1.671875
73,0.216,IMU1,1.5853658536585367,-2.0121951219512195,-0.9146341463414634,3.8037109375,0.01953125,-1.6640625
74,0.216,IMU2,-0.30487804878048785,-0.48780487804878053,-1.5853658536585367,3.81640625,-0.0361328125,-1.654296875
75,0.226,IMU0,-3.353658536585366,-0.9146341463414634,-2.7439024390243905,3.7861328125,0.0009765625,-1.6904296875
76,0.226,IMU1,-0.853658536585366,-2.439024390243903,-2.5,3.7421875,0.0478515625,-1.6904296875
77,0.226,IMU2,-2.5609756097560976,-0.6707317073170732,-2.9268292682926833,3.7626953125,-0.001953125,-1.6767578125
78,0.236,IMU0,-1.829268292682927,2.1341463414634148,0.48780487804878053,3.7734375,-0.0068359375,-1.640625
79,0.236,IMU1,0.6097560975609757,0.48780487804878053,0.7926829268292683,3.734375,0.04296875,-1.646484375
80,0.236,IMU2,-1.8902439024390245,2.378048780487805,0.5487804878048781,3.75390625,-0.0087890625,-1.6240234375
81,0.246,IMU0,-1.6463414634146343,0.3658536585365854,2.5609756097560976,3.7509765625,-0.015625,-1.6103515625
82,0.246,IMU1,0.6707317073170732,-0.9146341463414634,2.804878048780488,3.7158203125,0.0390625,-1.62109375
83,0.246,IMU2,-0.9146341463414634,0.426829268292683,2.439024390243903,3.7353515625,-0.0185546875,-1.6015625
84,0.256,IMU0,-1.829268292682927,-0.24390243902439027,2.1951219512195124,3.7197265625,-0.0068359375,-1.6142578125
85,0.256,IMU1,0.48780487804878053,-1.3414634146341464,2.439024390243903,3.68359375,0.044921875,-1.6220703125
86,0.256,IMU2,-1.1585365853658538,-0.06097560975609757,1.8902439024390245,3.6904296875,-0.0107421875,-1.5859375
87,0.266,IMU0,-2.5609756097560976,0.853658536585366,1.0365853658536586,3.6845703125,-0.0048828125,-1.59765625
88,0.266,IMU1,-0.12195121951219513,-0.24390243902439027,1.2804878048780488,3.646484375,0.0478515625,-1.599609375
89,0.266,IMU2,-2.0121951219512195,1.2195121951219514,0.6707317073170732,3.65234375,-0.0068359375,-1.5712890625
90,0.276,IMU0,-2.25609756097561,2.9268292682926833,0.7317073170731708,3.6435546875,0.0146484375,-1.5849609375
91,0.276,IMU1,0.0,2.25609756097561,1.0365853658536586,3.6083984375,0.064453125,-1.58203125
92,0.276,IMU2,-1.0365853658536586,3.353658536585366,0.48780487804878053,3.62109375,0.013671875,-1.5458984375
93,0.286,IMU0,-1.8902439024390245,1.6463414634146343,1.2195121951219514,3.630859375,0.0224609375,-1.5673828125
94,0.286,IMU1,-0.06097560975609757,0.5487804878048781,1.6463414634146343,3.59765625,0.0703125,-1.5615234375
95,0.286,IMU2,-1.2804878048780488,1.7682926829268295,1.0365853658536586,3.6083984375,0.0244140625,-1.5341796875
96,0.296,IMU0,-0.6097560975609757,-0.48780487804878053,1.8902439024390245,3.6142578125,0.044921875,-1.5556640625
97,0.296,IMU1,1.7682926829268295,-1.3414634146341464,2.25609756097561,3.5810546875,0.09375,-1.541015625
98,0.296,IMU2,-0.3658536585365854,-0.426829268292683,1.707317073170732,3.59375,0.02734375,-1.4970703125
99,0.306,IMU0,-1.3414634146341464,-2.8658536585365857,2.5609756097560976,3.53515625,0.0263671875,-1.5537109375
100,0.306,IMU1,0.853658536585366,-4.207317073170732,2.8658536585365857,3.501953125,0.0732421875,-1.5302734375
101,0.306,IMU2,-0.853658536585366,-2.9268292682926833,2.378048780487805,3.5078125,0.021484375,-1.4990234375
102,0.316,IMU0,-1.6463414634146343,-5.3048780487804885,0.7317073170731708,3.4423828125,0.04296875,-1.525390625
103,0.316,IMU1,1.3414634146341464,-6.7682926829268295,0.9756097560975611,3.4111328125,0.0869140625,-1.4970703125
104,0.316,IMU2,-0.5487804878048781,-5.121951219512195,0.426829268292683,3.4326171875,0.033203125,-1.4921875
105,0.326,IMU0,-1.8902439024390245,0.48780487804878053,-0.6097560975609757,3.416015625,0.0458984375,-1.5302734375
106,0.326,IMU1,0.9756097560975611,-0.853658536585366,-0.426829268292683,3.3818359375,0.0810546875,-1.5087890625
107,0.326,IMU2,-0.6097560975609757,0.7317073170731708,-0.9146341463414634,3.3935546875,0.0546875,-1.5302734375
108,0.336,IMU0,-0.3658536585365854,4.329268292682928,-0.24390243902439027,3.396484375,0.048828125,-1.4765625
109,0.336,IMU1,2.25609756097561,3.1097560975609757,-0.06097560975609757,3.3671875,0.0888671875,-1.4658203125
110,0.336,IMU2,0.853658536585366,3.780487804878049,-0.30487804878048785,3.38671875,0.03515625,-1.4482421875
111,0.346,IMU0,-0.30487804878048785,3.353658536585366,-1.2804878048780488,3.36328125,0.033203125,-1.4775390625
112,0.346,IMU1,2.0121951219512195,2.1951219512195124,-0.9756097560975611,3.330078125,0.072265625,-1.46484375
113,0.346,IMU2,0.6097560975609757,2.9268292682926833,-1.5853658536585367,3.341796875,0.017578125,-1.4443359375
114,0.356,IMU0,0.6097560975609757,-0.6707317073170732,0.853658536585366,3.291015625,0.0908203125,-1.4326171875
115,0.356,IMU1,3.4756097560975614,-1.7682926829268295,0.9146341463414634,3.2646484375,0.1337890625,-1.4365234375
116,0.356,IMU2,1.3414634146341464,0.12195121951219513,0.30487804878048785,3.28515625,0.0810546875,-1.4248046875
117,0.366,IMU0,1.9512195121951221,-0.6707317073170732,4.939024390243903,3.2216796875,0.0732421875,-1.4267578125
118,0.366,IMU1,4.390243902439025,-1.5853658536585367,5.121951219512195,3.1884765625,0.11328125,-1.44140625
119,0.366,IMU2,3.048780487804878,-0.30487804878048785,4.695121951219512,3.2021484375,0.060546875,-1.4287109375
120,0.376,IMU0,2.25609756097561,0.48780487804878053,3.4756097560975614,3.166015625,0.021484375,-1.4921875
121,0.376,IMU1,4.207317073170732,-0.48780487804878053,3.8414634146341466,3.1259765625,0.06640625,-1.486328125
122,0.376,IMU2,2.987804878048781,0.426829268292683,3.536585365853659,3.12890625,0.0234375,-1.4697265625
123,0.386,IMU0,-1.1585365853658538,4.451219512195122,-2.6219512195121952,3.1611328125,0.0546875,-1.373046875
124,0.386,IMU1,1.0975609756097562,3.353658536585366,-2.378048780487805,3.130859375,0.099609375,-1.3896484375
125,0.386,IMU2,-0.06097560975609757,4.451219512195122,-2.7439024390243905,3.1455078125,0.0556640625,-1.3994140625
126,0.396,IMU0,0.9146341463414634,1.3414634146341464,-1.0975609756097562,3.1826171875,0.08203125,-1.41015625
127,0.396,IMU1,2.987804878048781,-0.1829268292682927,-0.7926829268292683,3.150390625,0.1279296875,-1.408203125
128,0.396,IMU2,1.3414634146341464,1.4634146341463417,-1.2195121951219514,3.162109375,0.0859375,-1.41015625
129,0.406,IMU0,1.829268292682927,-0.426829268292683,1.402439024390244,3.0888671875,0.03125,-1.4033203125
130,0.406,IMU1,4.390243902439025,-1.8902439024390245,1.5853658536585367,3.0595703125,0.08203125,-1.4013671875
131,0.406,IMU2,2.987804878048781,-0.7317073170731708,1.0975609756097562,3.0693359375,0.041015625,-1.3974609375
132,0.416,IMU0,-0.426829268292683,-1.3414634146341464,-1.1585365853658538,3.0576171875,0.015625,-1.384765625
133,0.416,IMU1,1.7682926829268295,-2.7439024390243905,-0.7926829268292683,3.0234375,0.0595703125,-1.3779296875
134,0.416,IMU2,0.9756097560975611,-1.402439024390244,-1.1585365853658538,3.025390625,0.0146484375,-1.359375
135,0.426,IMU0,-1.8902439024390245,0.6097560975609757,-3.4756097560975614,3.017578125,0.05859375,-1.3935546875
136,0.426,IMU1,0.1829268292682927,-0.7317073170731708,-3.1707317073170733,2.9912109375,0.1005859375,-1.3759765625
137,0.426,IMU2,-0.9756097560975611,0.7926829268292683,-3.7195121951219514,3.0009765625,0.052734375,-1.34765625
138,0.436,IMU0,-2.1341463414634148,-3.353658536585366,-1.4634146341463417,3.001953125,0.0576171875,-1.3173828125
139,0.436,IMU1,-0.12195121951219513,-4.146341463414634,-1.2195121951219514,2.9736328125,0.0986328125,-1.2919921875
140,0.436,IMU2,-1.4634146341463417,-2.5609756097560976,-1.829268292682927,2.984375,0.0517578125,-1.271484375
141,0.446,IMU0,-2.378048780487805,-7.134146341463415,1.2195121951219514,2.9599609375,0.04296875,-1.314453125
142,0.446,IMU1,-0.30487804878048785,-8.292682926829269,1.402439024390244,2.935546875,0.0869140625,-1.2958984375
143,0.446,IMU2,-1.524390243902439,-6.951219512195123,0.7926829268292683,2.9482421875,0.044921875,-1.2978515625
144,0.456,IMU0,-3.414634146341464,-5.731707317073171,1.8902439024390245,2.9306640625,0.0859375,-1.291015625
145,0.456,IMU1,-1.3414634146341464,-6.890243902439025,2.1341463414634148,2.904296875,0.1318359375,-1.2880859375
146,0.456,IMU2,-2.8658536585365857,-5.548780487804878,1.6463414634146343,2.9150390625,0.08984375,-1.2939453125
147,0.466,IMU0,-2.25609756097561,0.0,3.2926829268292686,2.9560546875,0.0380859375,-1.263671875
148,0.466,IMU1,0.24390243902439027,-0.9756097560975611,3.5975609756097566,2.9208984375,0.087890625,-1.265625
149,0.466,IMU2,-1.402439024390244,0.06097560975609757,3.1097560975609757,2.9248046875,0.0458984375,-1.26171875
150,0.476,IMU0,-2.682926829268293,4.329268292682928,0.1829268292682927,2.9248046875,0.029296875,-1.234375
151,0.476,IMU1,-0.6097560975609757,3.2926829268292686,0.5487804878048781,2.8955078125,0.0830078125,-1.2451171875
152,0.476,IMU2,-2.0121951219512195,4.329268292682928,0.06097560975609757,2.900390625,0.0390625,-1.240234375
153,0.486,IMU0,-3.7195121951219514,6.585365853658537,-1.0365853658536586,2.9619140625,0.0712890625,-1.1865234375
154,0.486,IMU1,-0.9756097560975611,5.487804878048781,-0.7317073170731708,2.9375,0.1162109375,-1.1826171875
155,0.486,IMU2,-2.25609756097561,7.134146341463415,-1.2195121951219514,2.9453125,0.0712890625,-1.1689453125
156,0.496,IMU0,-1.2195121951219514,4.75609756097561,1.8902439024390245,2.880859375,0.0712890625,-1.2060546875
157,0.496,IMU1,1.4634146341463417,3.536585365853659,2.1341463414634148,2.857421875,0.1181640625,-1.1982421875
158,0.496,IMU2,0.06097560975609757,4.939024390243903,1.707317073170732,2.8642578125,0.07421875,-1.1845703125
159,0.506,IMU0,0.12195121951219513,6.341463414634147,2.0121951219512195,2.7783203125,0.0888671875,-1.0927734375
160,0.506,IMU1,2.682926829268293,5.426829268292684,2.3170731707317076,2.7509765625,0.1337890625,-1.099609375
161,0.506,IMU2,0.9146341463414634,7.01219512195122,1.9512195121951221,2.75390625,0.08984375,-1.091796875
162,0.516,IMU0,-2.5,-2.439024390243903,-1.2195121951219514,2.5927734375,0.1328125,-1.0234375
163,0.516,IMU1,-0.5487804878048781,-3.1707317073170733,-0.9756097560975611,2.5712890625,0.17578125,-1.0009765625
164,0.516,IMU2,-1.6463414634146343,-1.7682926829268295,-1.4634146341463417,2.57421875,0.1337890625,-1.00390625
165,0.526,IMU0,-0.426829268292683,-4.024390243902439,-1.6463414634146343,2.2021484375,0.0615234375,-0.9013671875
166,0.526,IMU1,1.7682926829268295,-4.75609756097561,-1.2804878048780488,2.171875,0.103515625,-0.916015625
167,0.526,IMU2,0.48780487804878053,-3.414634146341464,-1.7682926829268295,2.16796875,0.0615234375,-0.884765625
168,0.536,IMU0,-10.914634146341465,-2.073170731707317,-25.121951219512198,1.9375,-0.025390625,-0.8974609375
169,0.536,IMU1,-8.475609756097562,-3.414634146341464,-24.26829268292683,1.8935546875,0.0078125,-0.8662109375
170,0.536,IMU2,-9.817073170731708,-1.829268292682927,-25.182926829268293,1.8564453125,-0.025390625,-0.8681640625
171,0.546,IMU0,-24.085365853658537,4.024390243902439,-63.65853658536586,1.759765625,-0.076171875,-0.7822265625
172,0.546,IMU1,-22.31707317073171,2.987804878048781,-62.37804878048781,1.7021484375,-0.044921875,-0.7314453125
173,0.546,IMU2,-24.02439024390244,4.451219512195122,-63.65853658536586,1.6484375,-0.07421875,-0.7275390625
174,0.556,IMU0,-40.426829268292686,8.658536585365855,-112.25609756097562,1.2177734375,-0.2529296875,-0.5908203125
175,0.556,IMU1,-39.08536585365854,6.585365853658537,-110.54878048780489,1.150390625,-0.21484375,-0.55078125
176,0.556,IMU2,-40.426829268292686,9.26829268292683,-112.25609756097562,1.0693359375,-0.248046875,-0.5283203125
177,0.566,IMU0,-72.19512195121952,13.29268292682927,-190.97560975609758,0.7685546875,-0.4296875,-0.353515625
178,0.566,IMU1,-75.91463414634147,10.670731707317074,-197.7439024390244,0.673828125,-0.3935546875,-0.3095703125
179,0.566,IMU2,-72.92682926829269,13.719512195121952,-191.15853658536588,0.5478515625,-0.4111328125,-0.248046875
180,0.576,IMU0,-113.59756097560977,26.951219512195124,-288.3536585365854,0.287109375,-0.7529296875,-0.1982421875
181,0.576,IMU1,-117.56097560975611,25.54878048780488,-295.8536585365854,0.185546875,-0.7119140625,-0.138671875
182,0.576,IMU2,-114.57317073170732,27.987804878048784,-288.719512195122,0.041015625,-0.7080078125,-0.1025390625
183,0.586,IMU0,-164.69512195121953,14.329268292682928,-410.24390243902445,0.0576171875,-0.900390625,-0.0791015625
184,0.586,IMU1,-171.15853658536588,8.841463414634147,-419.81707317073176,-0.1044921875,-0.853515625,0.0390625
185,0.586,IMU2,-166.34146341463415,14.939024390243905,-411.219512195122,-0.2412109375,-0.8134765625,0.0732421875
186,0.596,IMU0,-217.07317073170734,20.853658536585368,-529.7560975609756,-0.44921875,-0.7216796875,0.1201171875
187,0.596,IMU1,-222.50000000000003,17.195121951219512,-536.1585365853659,-0.578125,-0.6494140625,0.267578125
188,0.596,IMU2,-219.57317073170734,21.707317073170735,-530.7317073170732,-0.6640625,-0.5791015625,0.2099609375
189,0.606,IMU0,-236.52439024390247,7.439024390243903,-607.7439024390244,-0.81640625,-0.5166015625,0.4482421875
190,0.606,IMU1,-239.75609756097563,1.2195121951219514,-611.219512195122,-0.8896484375,-0.4189453125,0.48828125
191,0.606,IMU2,-239.32926829268294,8.170731707317074,-608.4756097560976,-0.95703125,-0.3447265625,0.453125
192,0.616,IMU0,-222.13414634146343,-10.792682926829269,-666.829268292683,-1.017578125,-0.3974609375,0.44921875
193,0.616,IMU1,-224.75609756097563,-15.670731707317074,-668.8414634146342,-1.0693359375,-0.302734375,0.4248046875
194,0.616,IMU2,-224.87804878048783,-9.695121951219512,-667.2560975609757,-1.1279296875,-0.2041015625,0.419921875
195,0.626,IMU0,-214.26829268292684,-14.085365853658537,-709.5731707317074,-1.1142578125,-0.51953125,0.490234375
196,0.626,IMU1,-217.37804878048783,-19.75609756097561,-710.6707317073171,-1.140625,-0.4267578125,0.486328125
197,0.626,IMU2,-217.62195121951223,-13.231707317073171,-709.8170731707318,-1.2021484375,-0.3095703125,0.45703125
198,0.636,IMU0,-206.34146341463418,-34.390243902439025,-743.1707317073171,-1.1455078125,-0.638671875,0.4931640625
199,0.636,IMU1,-209.81707317073173,-40.1219512195122,-742.8048780487806,-1.16015625,-0.544921875,0.474609375
200,0.636,IMU2,-210.06097560975613,-33.47560975609756,-743.109756097561,-1.20703125,-0.4189453125,0.47265625
201,0.646,IMU0,-204.57317073170734,-50.426829268292686,-766.4024390243903,-1.1064453125,-0.794921875,0.41015625
202,0.646,IMU1,-207.8658536585366,-55.426829268292686,-766.0365853658537,-1.11328125,-0.6953125,0.4208984375
203,0.646,IMU2,-208.35365853658539,-49.32926829268293,-766.4634146341464,-1.1640625,-0.5654296875,0.39453125
204,0.656,IMU0,-210.06097560975613,-62.804878048780495,-788.048780487805,-1.0771484375,-0.8994140625,0.361328125
205,0.656,IMU1,-214.26829268292684,-68.84146341463415,-787.5000000000001,-1.0693359375,-0.7783203125,0.3408203125
206,0.656,IMU2,-214.26829268292684,-61.89024390243903,-788.109756097561,-1.12890625,-0.65234375,0.3466796875
207,0.666,IMU0,-217.19512195121953,-62.43902439024391,-804.0243902439025,-0.9921875,-0.888671875,0.169921875
208,0.666,IMU1,-221.76829268292684,-65.48780487804879,-802.3170731707318,-0.978515625,-0.7685546875,0.2060546875
209,0.666,IMU2,-221.46341463414637,-60.487804878048784,-803.7804878048781,-1.017578125,-0.6318359375,0.1806640625
210,0.676,IMU0,-222.43902439024393,-46.82926829268293,-811.4024390243903,-0.8896484375,-0.8662109375,0.1064453125
211,0.676,IMU1,-226.64634146341464,-50.670731707317074,-809.2073170731708,-0.869140625,-0.7314453125,0.111328125
212,0.676,IMU2,-226.46341463414637,-45.1829268292683,-810.9756097560976,-0.9033203125,-0.6025390625,0.1005859375
213,0.686,IMU0,-227.50000000000003,-39.146341463414636,-814.329268292683,-0.7685546875,-0.779296875,0.083984375
214,0.686,IMU1,-231.64634146341464,-43.59756097560976,-812.3780487804879,-0.74609375,-0.630859375,0.08203125
215,0.686,IMU2,-231.58536585365854,-37.743902439024396,-814.0853658536586,-0.7861328125,-0.5087890625,0.0703125
216,0.696,IMU0,-231.28048780487808,-26.82926829268293,-815.2439024390245,-0.6826171875,-0.669921875,0.0771484375
217,0.696,IMU1,-235.85365853658539,-29.939024390243905,-812.8048780487806,-0.673828125,-0.5263671875,0.1201171875
218,0.696,IMU2,-235.4878048780488,-24.75609756097561,-814.8170731707318,-0.6923828125,-0.3994140625,0.087890625
219,0.706,IMU0,-233.2926829268293,-18.84146341463415,-813.9024390243903,-0.6455078125,-0.64453125,0.0791015625
220,0.706,IMU1,-238.1707317073171,-23.658536585365855,-811.0365853658537,-0.625,-0.49609375,0.0966796875
221,0.706,IMU2,-237.56097560975613,-17.5,-813.3536585365854,-0.64453125,-0.3740234375,0.087890625
222,0.716,IMU0,-236.76829268292684,-18.475609756097562,-808.9634146341464,-0.541015625,-0.587890625,0.0380859375
223,0.716,IMU1,-241.46341463414637,-22.743902439024392,-805.8536585365854,-0.509765625,-0.44921875,0.03515625
224,0.716,IMU2,-240.91463414634148,-16.951219512195124,-808.2926829268293,-0.5244140625,-0.3251953125,0.0341796875
225,0.726,IMU0,-238.2926829268293,-13.170731707317074,-799.6341463414635,-0.4755859375,-0.5458984375,0.037109375
226,0.726,IMU1,-242.8048780487805,-17.865853658536587,-797.439024390244,-0.435546875,-0.4033203125,0.02734375
227,0.726,IMU2,-242.43902439024393,-11.52439024390244,-799.8170731707318,-0.455078125,-0.283203125,0.0244140625
228,0.736,IMU0,-238.35365853658539,-13.04878048780488,-790.0000000000001,-0.4453125,-0.53515625,0.015625
229,0.736,IMU1,-242.56097560975613,-17.743902439024392,-787.9268292682927,-0.318359375,-0.39453125,-0.01953125
230,0.736,IMU2,-242.19512195121953,-11.585365853658537,-790.2439024390245,-0.3291015625,-0.2802734375,-0.0322265625
231,0.746,IMU0,-239.08536585365854,-13.719512195121952,-779.6341463414635,-0.244140625,-0.470703125,-0.060546875
232,0.746,IMU1,-243.35365853658539,-18.53658536585366,-777.6219512195123,-0.2255859375,-0.3427734375,-0.05859375
233,0.746,IMU2,-243.0487804878049,-12.682926829268293,-780.1219512195123,-0.2275390625,-0.2255859375,-0.0703125
234,0.756,IMU0,-235.85365853658539,-8.658536585365855,-765.9146341463415,-0.1513671875,-0.5078125,-0.09375
235,0.756,IMU1,-240.00000000000003,-13.536585365853659,-763.9024390243903,-0.1318359375,-0.37890625,-0.0908203125
236,0.756,IMU2,-239.75609756097563,-7.8048780487804885,-766.2804878048781,-0.1328125,-0.263671875,-0.1025390625
237,0.766,IMU0,-235.7926829268293,-7.560975609756098,-760.0000000000001,-0.0556640625,-0.4501953125,-0.1591796875
238,0.766,IMU1,-239.81707317073173,-12.134146341463415,-757.8658536585367,-0.0546875,-0.32421875,-0.14453125
239,0.766,IMU2,-239.32926829268294,-5.914634146341464,-760.0000000000001,-0.0751953125,-0.21875,-0.1416015625
240,0.776,IMU0,-237.31707317073173,-6.2804878048780495,-759.0243902439025,-0.0087890625,-0.44140625,-0.1103515625
241,0.776,IMU1,-241.34146341463418,-10.914634146341465,-756.829268292683,-0.005859375,-0.3173828125,-0.0927734375
242,0.776,IMU2,-240.97560975609758,-4.817073170731708,-758.7804878048781,-0.01953125,-0.2119140625,-0.0947265625
243,0.786,IMU0,-239.81707317073173,-4.695121951219512,-760.2439024390245,0.0224609375,-0.380859375,-0.111328125
244,0.786,IMU1,-243.84146341463418,-9.329268292682928,-758.109756097561,0.0224609375,-0.251953125,-0.1005859375
245,0.786,IMU2,-243.41463414634148,-3.231707317073171,-760.1219512195123,0.0078125,-0.1416015625,-0.1083984375
246,0.796,IMU0,-241.15853658536588,-3.4756097560975614,-762.1341463414635,0.0576171875,-0.2998046875,-0.0830078125
247,0.796,IMU1,-245.30487804878052,-8.231707317073171,-759.939024390244,0.0546875,-0.1728515625,-0.0693359375
248,0.796,IMU2,-245.00000000000003,-2.1341463414634148,-762.0121951219513,0.04296875,-0.0673828125,-0.078125
249,0.806,IMU0,-242.31707317073173,-5.121951219512195,-763.8414634146342,0.14453125,-0.220703125,-0.1474609375
250,0.806,IMU1,-246.34146341463418,-9.695121951219512,-761.6463414634147,0.142578125,-0.0888671875,-0.1357421875
251,0.806,IMU2,-245.91463414634148,-3.231707317073171,-763.5975609756098,0.130859375,0.0205078125,-0.138671875
252,0.816,IMU0,-240.4268292682927,-3.4756097560975614,-761.5243902439025,0.134765625,-0.138671875,-0.087890625
253,0.816,IMU1,-244.75609756097563,-8.414634146341465,-759.4512195121952,0.13671875,-0.009765625,-0.0927734375
254,0.816,IMU2,-244.45121951219514,-2.5,-761.4634146341464,0.1337890625,0.0966796875,-0.1142578125
255,0.826,IMU0,-235.4268292682927,-13.04878048780488,-756.9512195121952,0.173828125,-0.1044921875,-0.0537109375
256,0.826,IMU1,-239.45121951219514,-17.743902439024392,-755.0000000000001,0.1806640625,0.0263671875,-0.0439453125
257,0.826,IMU2,-239.39024390243904,-11.646341463414634,-757.0731707317074,0.18359375,0.1328125,-0.0537109375
258,0.836,IMU0,-233.41463414634148,-18.414634146341466,-748.1707317073171,0.216796875,-0.0634765625,-0.0732421875
259,0.836,IMU1,-237.25609756097563,-22.98780487804878,-746.2804878048781,0.22265625,0.064453125,-0.0703125
260,0.836,IMU2,-237.01219512195124,-16.890243902439025,-748.3536585365854,0.224609375,0.166015625,-0.078125
261,0.846,IMU0,-233.2317073170732,-26.52439024390244,-741.219512195122,0.2158203125,-0.08984375,-0.076171875
262,0.846,IMU1,-237.01219512195124,-31.158536585365855,-739.1463414634147,0.2197265625,0.0322265625,-0.076171875
263,0.846,IMU2,-236.89024390243904,-25.121951219512198,-741.219512195122,0.21484375,0.130859375,-0.0869140625
264,0.856,IMU0,-236.52439024390247,-34.451219512195124,-741.0975609756098,0.189453125,-0.09375,-0.0673828125
265,0.856,IMU1,-239.81707317073173,-39.024390243902445,-739.0243902439025,0.1806640625,0.02734375,-0.0537109375
266,0.856,IMU2,-239.81707317073173,-32.926829268292686,-740.9756097560976,0.1669921875,0.1279296875,-0.052734375
267,0.866,IMU0,-242.68292682926833,-41.15853658536586,-745.3048780487806,0.130859375,-0.064453125,-0.0107421875
268,0.866,IMU1,-246.03658536585368,-45.91463414634147,-743.3536585365854,0.1279296875,0.0576171875,-0.0068359375
269,0.866,IMU2,-245.97560975609758,-39.63414634146342,-745.4268292682927,0.115234375,0.1611328125,-0.0146484375
270,0.876,IMU0,-247.13414634146343,-44.024390243902445,-744.6951219512196,-0.0341796875,0.0029296875,-0.041015625
271,0.876,IMU1,-250.3658536585366,-49.268292682926834,-742.9268292682927,-0.0322265625,0.1220703125,-0.0302734375
272,0.876,IMU2,-250.4268292682927,-43.10975609756098,-745.0000000000001,-0.0390625,0.228515625,-0.03515625
273,0.886,IMU0,-255.7317073170732,-32.86585365853659,-747.5609756097562,-0.1455078125,0.0537109375,0.0849609375
274,0.886,IMU1,-259.0853658536586,-37.987804878048784,-745.609756097561,-0.1484375,0.1796875,0.0927734375
275,0.886,IMU2,-259.0853658536586,-31.76829268292683,-747.7439024390245,-0.1640625,0.2890625,0.0849609375
276,0.896,IMU0,-262.8048780487805,-27.25609756097561,-750.609756097561,-0.2724609375,0.1025390625,0.1015625
277,0.896,IMU1,-266.3414634146342,-32.6219512195122,-748.719512195122,-0.2744140625,0.228515625,0.1103515625
278,0.896,IMU2,-266.2804878048781,-26.219512195121954,-750.9146341463415,-0.2880859375,0.3408203125,0.1044921875
279,0.906,IMU0,-267.8658536585366,-24.939024390243905,-749.0853658536586,-0.3857421875,0.123046875,0.1728515625
280,0.906,IMU1,-271.3414634146342,-30.243902439024392,-747.3780487804879,-0.3828125,0.24609375,0.181640625
281,0.906,IMU2,-271.3414634146342,-23.84146341463415,-749.3902439024391,-0.390625,0.3603515625,0.173828125
282,0.916,IMU0,-271.89024390243907,-21.097560975609756,-745.8536585365854,-0.5,0.08984375,0.189453125
283,0.916,IMU1,-275.3658536585366,-26.52439024390244,-744.2073170731708,-0.4970703125,0.2138671875,0.19921875
284,0.916,IMU2,-275.1829268292683,-20.0609756097561,-746.2804878048781,-0.5068359375,0.328125,0.1982421875
285,0.926,IMU0,-278.9634146341464,-14.085365853658537,-744.3902439024391,-0.5390625,0.140625,0.2021484375
286,0.926,IMU1,-282.5609756097561,-19.512195121951223,-742.8658536585366,-0.53125,0.2578125,0.21484375
287,0.926,IMU2,-282.4390243902439,-12.926829268292684,-744.8780487804879,-0.52734375,0.375,0.21875
288,0.936,IMU0,-285.2439024390244,-10.365853658536587,-716.829268292683,-0.3603515625,0.48046875,0.2939453125
289,0.936,IMU1,-288.9024390243903,-15.426829268292684,-716.1585365853659,-0.31640625,0.5849609375,0.3017578125
290,0.936,IMU2,-288.9024390243903,-9.085365853658537,-717.6829268292684,-0.2626953125,0.697265625,0.2919921875
291,0.946,IMU0,-265.6707317073171,-30.121951219512198,-646.7073170731708,-0.0068359375,1.1875,0.2294921875
292,0.946,IMU1,-269.0853658536586,-34.87804878048781,-647.3170731707318,0.0771484375,1.2822265625,0.1904296875
293,0.946,IMU2,-268.9024390243903,-28.902439024390247,-647.9268292682927,0.1943359375,1.3662109375,0.1318359375
294,0.956,IMU0,-215.4268292682927,-34.87804878048781,-535.1219512195122,0.04296875,1.412109375,0.1240234375
295,0.956,IMU1,-218.109756097561,-39.69512195121951,-536.2804878048781,0.15234375,1.4794921875,0.0693359375
296,0.956,IMU2,-217.9268292682927,-34.146341463414636,-536.1585365853659,0.287109375,1.5361328125,0.01171875
297,0.966,IMU0,-168.2926829268293,-39.63414634146342,-420.06097560975616,0.060546875,1.20703125,0.0576171875
298,0.966,IMU1,-169.63414634146343,-43.71951219512196,-421.1585365853659,0.15625,1.267578125,0.0166015625
299,0.966,IMU2,-169.93902439024393,-39.08536585365854,-420.9146341463415,0.2587890625,1.287109375,-0.0244140625
300,0.976,IMU0,-137.6219512195122,-35.487804878048784,-342.7439024390244,0.05859375,1.037109375,-0.060546875
301,0.976,IMU1,-138.2317073170732,-39.146341463414636,-343.109756097561,0.107421875,1.0751953125,-0.080078125
302,0.976,IMU2,-138.71951219512195,-34.69512195121951,-343.4146341463415,0.1767578125,1.0908203125,-0.1103515625
303,0.986,IMU0,-115.67073170731709,-21.585365853658537,-287.8658536585366,-0.1181640625,0.8037109375,-0.021484375
304,0.986,IMU1,-115.79268292682927,-24.75609756097561,-288.109756097561,-0.0830078125,0.8369140625,-0.03125
305,0.986,IMU2,-116.34146341463416,-20.975609756097562,-288.3536585365854,-0.033203125,0.83984375,-0.0576171875
306,0.996,IMU0,-100.60975609756099,-4.451219512195122,-251.95121951219514,-0.123046875,0.6240234375,0.01171875
307,0.996,IMU1,-100.73170731707317,-7.743902439024391,-251.76829268292684,-0.1044921875,0.650390625,0.0
308,0.996,IMU2,-101.34146341463415,-3.7195121951219514,-252.25609756097563,-0.091796875,0.65234375,-0.00390625
309,1.006,IMU0,-91.03658536585367,2.1951219512195124,-231.52439024390245,-0.0908203125,0.6708984375,0.03515625
310,1.006,IMU1,-90.97560975609757,-0.24390243902439027,-231.21951219512198,-0.083984375,0.6845703125,0.033203125
311,1.006,IMU2,-91.28048780487806,2.804878048780488,-231.70731707317074,-0.048828125,0.6962890625,0.00390625
312,1.016,IMU0,-76.58536585365854,16.03658536585366,-194.51219512195124,-0.091796875,0.7509765625,0.08203125
313,1.016,IMU1,-76.58536585365854,13.597560975609758,-194.69512195121953,-0.0458984375,0.7666015625,0.06640625
314,1.016,IMU2,-76.76829268292684,16.52439024390244,-194.14634146341464,0.0,0.7646484375,0.048828125
315,1.026,IMU0,-57.987804878048784,17.98780487804878,-144.14634146341464,0.0634765625,0.7744140625,0.00390625
316,1.026,IMU1,-57.560975609756106,15.670731707317074,-144.57317073170734,0.1123046875,0.7890625,-0.01171875
317,1.026,IMU2,-57.926829268292686,18.78048780487805,-143.65853658536588,0.158203125,0.7802734375,-0.0146484375
318,1.036,IMU0,-39.63414634146342,17.195121951219512,-95.1829268292683,0.2255859375,0.78125,-0.0283203125
319,1.036,IMU1,-38.84146341463415,15.426829268292684,-95.60975609756099,0.263671875,0.798828125,-0.0419921875
320,1.036,IMU2,-38.963414634146346,17.865853658536587,-94.63414634146342,0.3212890625,0.779296875,-0.064453125
321,1.046,IMU0,-20.426829268292686,11.219512195121952,-52.6219512195122,0.388671875,0.71484375,-0.0419921875
322,1.046,IMU1,-19.32926829268293,10.182926829268293,-52.804878048780495,0.4033203125,0.7314453125,-0.046875
323,1.046,IMU2,-19.390243902439025,11.52439024390244,-52.31707317073171,0.4638671875,0.7119140625,-0.09375
324,1.056,IMU0,-4.207317073170732,4.451219512195122,-21.707317073170735,0.5078125,0.6328125,-0.05078125
325,1.056,IMU1,-2.6219512195121952,3.5975609756097566,-21.76829268292683,0.51171875,0.6455078125,-0.0537109375
326,1.056,IMU2,-3.414634146341464,4.2682926829268295,-21.402439024390247,0.5439453125,0.634765625,-0.0703125
327,1.066,IMU0,4.573170731707317,-3.9024390243902443,-6.890243902439025,0.6220703125,0.501953125,-0.1298828125
328,1.066,IMU1,6.707317073170732,-5.0,-6.646341463414635,0.6181640625,0.5205078125,-0.1298828125
329,1.066,IMU2,5.487804878048781,-3.7195121951219514,-6.951219512195123,0.6201171875,0.501953125,-0.138671875
330,1.076,IMU0,10.0,-8.231707317073171,-2.5609756097560976,0.828125,0.51171875,-0.25
331,1.076,IMU1,12.195121951219512,-9.390243902439025,-2.25609756097561,0.8134765625,0.53515625,-0.2470703125
332,1.076,IMU2,10.731707317073171,-7.926829268292684,-2.5609756097560976,0.82421875,0.5146484375,-0.244140625
333,1.086,IMU0,11.52439024390244,-10.548780487804878,-3.048780487804878,1.0927734375,0.548828125,-0.3720703125
334,1.086,IMU1,13.719512195121952,-11.52439024390244,-2.5609756097560976,1.0615234375,0.568359375,-0.3525390625
335,1.086,IMU2,11.829268292682928,-10.30487804878049,-3.2926829268292686,1.078125,0.5615234375,-0.365234375
336,1.096,IMU0,11.28048780487805,-7.560975609756098,-0.30487804878048785,1.51953125,0.7177734375,-0.6240234375
337,1.096,IMU1,13.475609756097562,-8.597560975609756,-0.1829268292682927,1.5068359375,0.740234375,-0.6044921875
338,1.096,IMU2,12.560975609756099,-6.707317073170732,0.06097560975609757,1.5390625,0.7412109375,-0.6318359375
339,1.106,IMU0,12.80487804878049,-2.25609756097561,11.097560975609756,1.9658203125,0.740234375,-0.7314453125
340,1.106,IMU1,15.182926829268293,-3.1097560975609757,11.463414634146343,1.931640625,0.76953125,-0.69140625
341,1.106,IMU2,13.658536585365855,-2.1341463414634148,10.975609756097562,1.9697265625,0.751953125,-0.74609375
342,1.116,IMU0,8.353658536585366,-2.6219512195121952,8.963414634146343,2.1806640625,0.724609375,-0.83984375
343,1.116,IMU1,10.670731707317074,-3.8414634146341466,9.451219512195122,2.140625,0.7470703125,-0.8369140625
344,1.116,IMU2,8.719512195121952,-2.3170731707317076,8.658536585365855,2.15625,0.7314453125,-0.810546875
345,1.126,IMU0,7.560975609756098,0.853658536585366,6.707317073170732,2.3994140625,0.7841796875,-0.880859375
346,1.126,IMU1,10.060975609756099,0.5487804878048781,7.01219512195122,2.365234375,0.828125,-0.873046875
347,1.126,IMU2,8.475609756097562,1.5853658536585367,6.52439024390244,2.3818359375,0.7841796875,-0.8408203125
348,1.136,IMU0,10.182926829268293,1.5853658536585367,7.317073170731708,2.5927734375,0.8427734375,-0.849609375
349,1.136,IMU1,12.560975609756099,0.7926829268292683,7.865853658536586,2.552734375,0.888671875,-0.833984375
350,1.136,IMU2,11.036585365853659,2.073170731707317,7.25609756097561,2.5908203125,0.83203125,-0.8857421875
351,1.146,IMU0,14.878048780487806,6.585365853658537,10.121951219512196,2.96875,0.865234375,-1.0390625
352,1.146,IMU1,17.073170731707318,6.2804878048780495,10.426829268292684,2.95703125,0.892578125,-1.0732421875
353,1.146,IMU2,15.79268292682927,7.25609756097561,10.0,2.9677734375,0.86328125,-1.05078125
354,1.156,IMU0,14.146341463414636,-2.9268292682926833,5.0,3.23046875,0.8369140625,-1.14453125
355,1.156,IMU1,16.097560975609756,-4.085365853658537,5.121951219512195,3.166015625,0.904296875,-1.1513671875
356,1.156,IMU2,15.182926829268293,-2.804878048780488,4.695121951219512,3.181640625,0.8447265625,-1.146484375
357,1.166,IMU0,14.878048780487806,-3.7195121951219514,6.341463414634147,3.30078125,0.8779296875,-1.2216796875
358,1.166,IMU1,17.865853658536587,-4.939024390243903,6.951219512195123,3.30078125,0.935546875,-1.138671875
359,1.166,IMU2,16.097560975609756,-3.658536585365854,6.463414634146342,3.3046875,0.890625,-1.162109375
360,1.176,IMU0,15.731707317073171,-0.6097560975609757,8.048780487804878,3.4697265625,0.8408203125,-1.2451171875
361,1.176,IMU1,18.353658536585368,-1.2804878048780488,8.170731707317074,3.4443359375,0.8720703125,-1.2890625
362,1.176,IMU2,16.890243902439025,-0.24390243902439027,7.8048780487804885,3.4580078125,0.8310546875,-1.244140625
363,1.186,IMU0,13.597560975609758,-0.9756097560975611,4.024390243902439,3.6025390625,0.7822265625,-1.3916015625
364,1.186,IMU1,15.79268292682927,-1.4634146341463417,4.024390243902439,3.56640625,0.8505859375,-1.3828125
365,1.186,IMU2,14.817073170731708,-0.24390243902439027,3.7195121951219514,3.576171875,0.798828125,-1.3818359375
366,1.196,IMU0,10.426829268292684,2.987804878048781,-0.24390243902439027,3.7626953125,0.8251953125,-1.400390625
367,1.196,IMU1,12.926829268292684,2.0121951219512195,0.06097560975609757,3.7255859375,0.861328125,-1.4248046875
368,1.196,IMU2,11.463414634146343,3.536585365853659,-0.426829268292683,3.748046875,0.810546875,-1.3818359375
369,1.206,IMU0,8.536585365853659,5.2439024390243905,-1.524390243902439,3.7763671875,0.7802734375,-1.486328125
370,1.206,IMU1,10.731707317073171,3.8414634146341466,-1.2804878048780488,3.75,0.8388671875,-1.4482421875
371,1.206,IMU2,9.756097560975611,5.121951219512195,-1.707317073170732,3.7548828125,0.7919921875,-1.4619140625
372,1.216,IMU0,6.951219512195123,5.426829268292684,-3.048780487804878,3.8642578125,0.7744140625,-1.4521484375
373,1.216,IMU1,8.719512195121952,4.695121951219512,-2.5609756097560976,3.794921875,0.849609375,-1.4970703125
374,1.216,IMU2,7.682926829268293,6.219512195121951,-3.048780487804878,3.8203125,0.7939453125,-1.48046875
375,1.226,IMU0,5.2439024390243905,7.25609756097561,-1.4634146341463417,3.7958984375,0.8251953125,-1.4697265625
376,1.226,IMU1,7.926829268292684,6.7682926829268295,-0.853658536585366,3.767578125,0.8740234375,-1.470703125
377,1.226,IMU2,6.341463414634147,7.926829268292684,-1.3414634146341464,3.7958984375,0.82421875,-1.4677734375
378,1.236,IMU0,5.548780487804878,11.219512195121952,3.048780487804878,3.767578125,0.8359375,-1.533203125
379,1.236,IMU1,7.560975609756098,10.792682926829269,3.658536585365854,3.75,0.8798828125,-1.484375
380,1.236,IMU2,6.2804878048780495,11.646341463414634,3.1707317073170733,3.7744140625,0.8310546875,-1.484375
381,1.246,IMU0,4.024390243902439,13.109756097560977,4.085365853658537,3.650390625,0.693359375,-1.5166015625
382,1.246,IMU1,4.146341463414634,12.926829268292684,3.5975609756097566,3.580078125,0.7265625,-1.5029296875
383,1.246,IMU2,3.536585365853659,13.719512195121952,3.1707317073170733,3.5859375,0.6796875,-1.484375
384,1.256,IMU0,-3.7195121951219514,16.890243902439025,-6.7682926829268295,3.5537109375,0.5908203125,-1.4716796875
385,1.256,IMU1,-2.682926829268293,16.097560975609756,-7.25609756097561,3.498046875,0.64453125,-1.4580078125
386,1.256,IMU2,-3.353658536585366,17.25609756097561,-7.743902439024391,3.50390625,0.5966796875,-1.439453125
387,1.266,IMU0,-9.390243902439025,10.548780487804878,-13.719512195121952,3.484375,0.634765625,-1.3916015625
388,1.266,IMU1,-7.317073170731708,8.719512195121952,-13.475609756097562,3.4453125,0.6865234375,-1.369140625
389,1.266,IMU2,-7.743902439024391,10.121951219512196,-14.146341463414636,3.4619140625,0.6376953125,-1.3681640625
390,1.276,IMU0,-7.8048780487804885,1.3414634146341464,-8.658536585365855,3.3955078125,0.63671875,-1.369140625
391,1.276,IMU1,-4.878048780487806,-1.2195121951219514,-7.865853658536586,3.357421875,0.6796875,-1.326171875
392,1.276,IMU2,-6.402439024390245,0.3658536585365854,-8.414634146341465,3.380859375,0.6328125,-1.31640625
393,1.286,IMU0,-7.439024390243903,-4.817073170731708,-2.5,3.2568359375,0.5927734375,-1.421875
394,1.286,IMU1,-4.75609756097561,-6.402439024390245,-2.378048780487805,3.1953125,0.6552734375,-1.4306640625
395,1.286,IMU2,-6.463414634146342,-5.0,-2.9268292682926833,3.2177734375,0.6103515625,-1.419921875
396,1.296,IMU0,-5.853658536585367,-1.2195121951219514,0.5487804878048781,3.18359375,0.49609375,-1.4287109375
397,1.296,IMU1,-3.963414634146342,-2.439024390243903,0.853658536585366,3.12890625,0.5517578125,-1.4560546875
398,1.296,IMU2,-5.426829268292684,-1.1585365853658538,0.426829268292683,3.13671875,0.5078125,-1.4453125
399,1.306,IMU0,-9.878048780487806,-0.7317073170731708,-5.853658536585367,3.22265625,0.466796875,-1.4296875
400,1.306,IMU1,-7.926829268292684,-2.073170731707317,-5.426829268292684,3.17578125,0.5107421875,-1.3828125
401,1.306,IMU2,-9.451219512195122,-0.24390243902439027,-5.914634146341464,3.181640625,0.466796875,-1.37109375
402,1.316,IMU0,-14.51219512195122,-1.7682926829268295,-16.158536585365855,3.26171875,0.4091796875,-1.3837890625
403,1.316,IMU1,-12.682926829268293,-2.6219512195121952,-15.670731707317074,3.20703125,0.462890625,-1.376953125
404,1.316,IMU2,-14.390243902439027,-0.853658536585366,-16.219512195121954,3.203125,0.416015625,-1.361328125
405,1.326,IMU0,-19.26829268292683,-0.9756097560975611,-25.670731707317074,3.232421875,0.4931640625,-1.3955078125
406,1.326,IMU1,-17.926829268292686,-2.1341463414634148,-25.426829268292686,3.193359375,0.537109375,-1.3701171875
407,1.326,IMU2,-19.512195121951223,-0.48780487804878053,-25.914634146341466,3.20703125,0.4931640625,-1.357421875
408,1.336,IMU0,-21.097560975609756,-5.182926829268293,-31.280487804878053,3.1953125,0.3818359375,-1.3623046875
409,1.336,IMU1,-18.78048780487805,-6.890243902439025,-30.792682926829272,3.1435546875,0.4365234375,-1.3544921875
410,1.336,IMU2,-20.60975609756098,-5.2439024390243905,-31.463414634146343,3.142578125,0.3876953125,-1.3193359375
411,1.346,IMU0,-29.451219512195124,-3.1707317073170733,-48.78048780487805,3.10546875,0.4033203125,-1.3310546875
412,1.346,IMU1,-27.865853658536587,-5.0,-48.170731707317074,3.056640625,0.4580078125,-1.333984375
413,1.346,IMU2,-28.231707317073173,-3.231707317073171,-49.024390243902445,3.0546875,0.4111328125,-1.3173828125
414,1.356,IMU0,-34.63414634146342,-4.939024390243903,-61.82926829268293,3.0732421875,0.3935546875,-1.328125
415,1.356,IMU1,-33.109756097560975,-6.7682926829268295,-61.21951219512196,3.0205078125,0.4384765625,-1.3125
416,1.356,IMU2,-33.59756097560976,-4.75609756097561,-62.19512195121952,3.01171875,0.3994140625,-1.3037109375
417,1.366,IMU0,-40.91463414634147,-2.439024390243903,-82.6219512195122,3.076171875,0.4140625,-1.318359375
418,1.366,IMU1,-39.57317073170732,-4.207317073170732,-81.89024390243902,3.02734375,0.4541015625,-1.3095703125
419,1.366,IMU2,-39.87804878048781,-1.9512195121951221,-82.98780487804879,3.0234375,0.419921875,-1.2958984375
420,1.376,IMU0,-43.04878048780488,-6.158536585365854,-96.09756097560977,3.0703125,0.3115234375,-1.2333984375
421,1.376,IMU1,-41.768292682926834,-7.926829268292684,-95.3658536585366,3.0234375,0.3623046875,-1.224609375
422,1.376,IMU2,-42.50000000000001,-5.670731707317073,-96.52439024390245,3.0009765625,0.3173828125,-1.2060546875
423,1.386,IMU0,-51.89024390243903,-4.573170731707317,-121.21951219512196,3.0927734375,0.298828125,-1.2900390625
424,1.386,IMU1,-50.1219512195122,-6.402439024390245,-120.42682926829269,3.0439453125,0.3359375,-1.2392578125
425,1.386,IMU2,-51.21951219512196,-4.146341463414634,-121.64634146341464,3.0341796875,0.3115234375,-1.2470703125
426,1.396,IMU0,-51.646341463414636,-6.2804878048780495,-122.19512195121952,3.009765625,0.4140625,-1.2568359375
427,1.396,IMU1,-50.0609756097561,-8.353658536585366,-122.07317073170732,2.9921875,0.466796875,-1.2685546875
428,1.396,IMU2,-51.34146341463415,-6.158536585365854,-122.43902439024392,3.0244140625,0.4189453125,-1.2421875
429,1.406,IMU0,-51.03658536585366,-2.5,-122.19512195121952,2.9501953125,-0.0400390625,-1.26171875
430,1.406,IMU1,-48.71951219512196,-4.634146341463415,-121.21951219512196,2.8798828125,0.0146484375,-1.2333984375
431,1.406,IMU2,-50.487804878048784,-2.804878048780488,-122.8658536585366,2.845703125,-0.037109375,-1.2265625
432,1.416,IMU0,-77.19512195121952,0.7317073170731708,-187.07317073170734,2.98046875,-0.3427734375,-1.1923828125
433,1.416,IMU1,-76.15853658536587,-1.3414634146341464,-185.06097560975613,2.865234375,-0.2900390625,-1.1435546875
434,1.416,IMU2,-78.10975609756099,1.0975609756097562,-188.2926829268293,2.791015625,-0.3212890625,-1.0986328125
435,1.426,IMU0,-98.71951219512196,-2.7439024390243905,-244.08536585365854,2.8369140625,-0.0927734375,-1.1474609375
436,1.426,IMU1,-98.35365853658537,-5.670731707317073,-242.8658536585366,2.779296875,-0.0380859375,-1.1416015625
437,1.426,IMU2,-99.39024390243904,-2.5,-244.69512195121953,2.7509765625,-0.0654296875,-1.123046875
438,1.436,IMU0,-108.59756097560977,-0.6097560975609757,-275.4268292682927,2.755859375,-0.083984375,-1.2255859375
439,1.436,IMU1,-107.6829268292683,-4.146341463414634,-274.0853658536586,2.705078125,-0.0263671875,-1.19921875
440,1.436,IMU2,-109.69512195121952,-0.48780487804878053,-276.1585365853659,2.6611328125,-0.0439453125,-1.1767578125
441,1.446,IMU0,-115.1829268292683,11.036585365853659,-290.1219512195122,2.62890625,0.1220703125,-1.1953125
442,1.446,IMU1,-115.54878048780489,7.8048780487804885,-289.45121951219517,2.6025390625,0.1796875,-1.181640625
443,1.446,IMU2,-116.52439024390245,12.134146341463415,-290.2439024390244,2.6142578125,0.1640625,-1.185546875
444,1.456,IMU0,-115.3658536585366,19.32926829268293,-295.6707317073171,2.6923828125,-0.0322265625,-1.123046875
445,1.456,IMU1,-115.73170731707319,16.585365853658537,-294.51219512195127,2.6474609375,0.0419921875,-1.125
446,1.456,IMU2,-116.09756097560977,19.75609756097561,-296.1585365853659,2.6328125,-0.0107421875,-1.06640625
447,1.466,IMU0,-126.95121951219514,20.243902439024392,-322.8658536585366,2.681640625,-0.1240234375,-1.1474609375
448,1.466,IMU1,-127.13414634146342,17.073170731707318,-321.5243902439025,2.626953125,-0.0556640625,-1.1318359375
449,1.466,IMU2,-127.98780487804879,20.54878048780488,-323.6585365853659,2.6064453125,-0.0771484375,-1.0869140625
450,1.476,IMU0,-131.76829268292684,20.0,-335.2439024390244,2.646484375,0.03515625,-1.1181640625
451,1.476,IMU1,-132.19512195121953,17.134146341463417,-334.32926829268297,2.6171875,0.1025390625,-1.09375
452,1.476,IMU2,-132.25609756097563,20.243902439024392,-335.4268292682927,2.6337890625,0.076171875,-1.0771484375
453,1.486,IMU0,-131.82926829268294,10.365853658536587,-331.1585365853659,2.443359375,-0.013671875,-1.126953125
454,1.486,IMU1,-132.6829268292683,7.682926829268293,-330.4268292682927,2.42578125,0.048828125,-1.1123046875
455,1.486,IMU2,-132.4390243902439,11.28048780487805,-331.219512195122,2.44140625,0.037109375,-1.1318359375
456,1.496,IMU0,-127.25609756097562,11.28048780487805,-315.9756097560976,2.263671875,0.1376953125,-0.9892578125
457,1.496,IMU1,-127.8658536585366,8.963414634146343,-315.7317073170732,2.28125,0.1923828125,-0.978515625
458,1.496,IMU2,-127.8048780487805,11.890243902439025,-315.3048780487805,2.3212890625,0.1767578125,-0.9482421875
459,1.506,IMU0,-113.04878048780489,9.51219512195122,-274.45121951219517,2.1357421875,0.02734375,-0.95703125
460,1.506,IMU1,-113.35365853658537,6.402439024390245,-274.32926829268297,2.150390625,0.0849609375,-0.96875
461,1.506,IMU2,-113.53658536585367,10.792682926829269,-273.7804878048781,2.1875,0.04296875,-0.9189453125
462,1.516,IMU0,-104.14634146341464,4.024390243902439,-242.01219512195124,2.1396484375,0.1025390625,-0.876953125
463,1.516,IMU1,-104.20731707317074,1.1585365853658538,-242.07317073170734,2.1689453125,0.1484375,-0.892578125
464,1.516,IMU2,-104.08536585365854,5.0,-240.91463414634148,2.2236328125,0.1484375,-0.9150390625
465,1.526,IMU0,-78.35365853658537,0.9756097560975611,-177.8658536585366,2.2373046875,0.0166015625,-0.7099609375
466,1.526,IMU1,-77.31707317073172,-1.402439024390244,-178.47560975609758,2.271484375,0.0751953125,-0.73828125
467,1.526,IMU2,-77.13414634146342,0.3658536585365854,-176.21951219512198,2.34375,0.01953125,-0.78515625
468,1.536,IMU0,-67.8048780487805,-11.585365853658537,-141.40243902439025,2.208984375,-0.021484375,-0.939453125
469,1.536,IMU1,-66.40243902439025,-14.146341463414636,-141.64634146341464,2.234375,0.01953125,-0.953125
470,1.536,IMU2,-66.89024390243902,-10.670731707317074,-140.4878048780488,2.2626953125,-0.01953125,-0.904296875
471,1.546,IMU0,-48.10975609756098,-1.6463414634146343,-102.19512195121952,2.2265625,-0.125,-0.884765625
472,1.546,IMU1,-47.01219512195122,-3.658536585365854,-102.37804878048782,2.2353515625,-0.0810546875,-0.9052734375
473,1.546,IMU2,-46.58536585365854,-1.3414634146341464,-101.15853658536587,2.2724609375,-0.1328125,-0.8798828125
474,1.556,IMU0,-40.304878048780495,5.548780487804878,-84.57317073170732,2.3818359375,-0.2783203125,-0.873046875
475,1.556,IMU1,-38.90243902439025,4.207317073170732,-84.39024390243902,2.3740234375,-0.236328125,-0.875
476,1.556,IMU2,-39.75609756097561,5.975609756097562,-84.26829268292684,2.3974609375,-0.2900390625,-0.849609375
477,1.566,IMU0,-34.75609756097561,3.5975609756097566,-74.51219512195122,2.4560546875,-0.3603515625,-0.8984375
478,1.566,IMU1,-33.170731707317074,1.829268292682927,-74.20731707317074,2.4423828125,-0.3173828125,-0.896484375
479,1.566,IMU2,-34.451219512195124,4.2682926829268295,-74.45121951219512,2.4609375,-0.375,-0.869140625
480,1.576,IMU0,-31.34146341463415,1.9512195121951221,-68.90243902439025,2.5732421875,-0.5009765625,-0.818359375
481,1.576,IMU1,-29.451219512195124,0.7317073170731708,-68.41463414634147,2.5478515625,-0.455078125,-0.8154296875
482,1.576,IMU2,-30.853658536585368,2.3170731707317076,-69.26829268292684,2.560546875,-0.521484375,-0.7919921875
483,1.586,IMU0,-33.47560975609756,-2.3170731707317076,-77.6829268292683,2.6435546875,-0.5986328125,-0.8369140625
484,1.586,IMU1,-31.463414634146343,-3.8414634146341466,-77.01219512195122,2.609375,-0.556640625,-0.8359375
485,1.586,IMU2,-33.59756097560976,-1.829268292682927,-78.65853658536587,2.6103515625,-0.599609375,-0.8232421875
486,1.596,IMU0,-33.84146341463415,-9.02439024390244,-81.03658536585367,2.5234375,-0.4970703125,-0.7880859375
487,1.596,IMU1,-32.31707317073171,-10.182926829268293,-80.73170731707317,2.517578125,-0.4609375,-0.7900390625
488,1.596,IMU2,-33.170731707317074,-8.292682926829269,-80.79268292682927,2.525390625,-0.5,-0.791015625
489,1.606,IMU0,-30.000000000000004,-5.7926829268292686,-73.53658536585367,2.5029296875,-0.578125,-0.83203125
490,1.606,IMU1,-27.926829268292686,-7.01219512195122,-73.10975609756098,2.486328125,-0.5419921875,-0.80859375
491,1.606,IMU2,-29.451219512195124,-4.634146341463415,-73.84146341463415,2.484375,-0.5859375,-0.814453125
492,1.616,IMU0,-32.743902439024396,-0.3658536585365854,-85.54878048780489,2.5478515625,-0.7265625,-0.8203125
493,1.616,IMU1,-30.731707317073173,-1.524390243902439,-84.75609756097562,2.513671875,-0.693359375,-0.7685546875
494,1.616,IMU2,-32.743902439024396,0.5487804878048781,-86.89024390243904,2.4833984375,-0.71875,-0.796875
495,1.626,IMU0,-36.34146341463415,1.6463414634146343,-95.67073170731709,2.541015625,-0.6181640625,-0.7509765625
496,1.626,IMU1,-34.75609756097561,0.24390243902439027,-95.2439024390244,2.5263671875,-0.5830078125,-0.728515625
497,1.626,IMU2,-36.15853658536586,1.6463414634146343,-95.67073170731709,2.53515625,-0.59765625,-0.7822265625
498,1.636,IMU0,-33.59756097560976,0.6707317073170732,-86.40243902439025,2.5458984375,-0.4736328125,-0.7724609375
499,1.636,IMU1,-31.951219512195124,-0.6707317073170732,-86.28048780487805,2.5556640625,-0.4365234375,-0.75
500,1.636,IMU2,-33.23170731707317,1.0365853658536586,-85.0609756097561,2.59375,-0.47265625,-0.7705078125
501,1.646,IMU0,-26.707317073170735,0.7926829268292683,-67.6219512195122,2.6201171875,-0.5595703125,-0.814453125
502,1.646,IMU1,-25.000000000000004,-0.7317073170731708,-67.31707317073172,2.609375,-0.51953125,-0.7978515625
503,1.646,IMU2,-25.426829268292686,0.6707317073170732,-67.19512195121952,2.6474609375,-0.57421875,-0.8017578125
504,1.656,IMU0,-25.426829268292686,-2.682926829268293,-57.743902439024396,2.58203125,-0.5048828125,-0.818359375
505,1.656,IMU1,-23.84146341463415,-4.146341463414634,-57.6219512195122,2.58984375,-0.4697265625,-0.8271484375
506,1.656,IMU2,-24.26829268292683,-2.439024390243903,-56.707317073170735,2.615234375,-0.490234375,-0.83203125
507,1.666,IMU0,-17.378048780487806,-3.1707317073170733,-36.58536585365854,2.6181640625,-0.5380859375,-0.86328125
508,1.666,IMU1,-15.487804878048783,-4.329268292682928,-36.58536585365854,2.6162109375,-0.5009765625,-0.83203125
509,1.666,IMU2,-16.463414634146343,-3.4756097560975614,-35.85365853658537,2.64453125,-0.53515625,-0.8662109375
510,1.676,IMU0,-16.03658536585366,-3.231707317073171,-26.58536585365854,2.6298828125,-0.5498046875,-0.8525390625
511,1.676,IMU1,-14.573170731707318,-5.060975609756098,-26.463414634146343,2.62890625,-0.5166015625,-0.8642578125
512,1.676,IMU2,-14.878048780487806,-3.231707317073171,-26.28048780487805,2.6181640625,-0.521484375,-0.880859375
513,1.686,IMU0,-11.707317073170733,-4.2682926829268295,-16.585365853658537,2.6513671875,-0.5615234375,-0.91796875
514,1.686,IMU1,-10.30487804878049,-5.3048780487804885,-16.158536585365855,2.6416015625,-0.525390625,-0.9033203125
515,1.686,IMU2,-10.731707317073171,-3.7195121951219514,-16.70731707317073,2.623046875,-0.5439453125,-0.958984375
516,1.696,IMU0,-12.500000000000002,-5.121951219512195,-12.378048780487806,2.505859375,-0.4873046875,-0.9169921875
517,1.696,IMU1,-10.487804878048781,-5.060975609756098,-11.463414634146343,2.50390625,-0.45703125,-0.8740234375
518,1.696,IMU2,-10.731707317073171,-3.780487804878049,-12.073170731707318,2.470703125,-0.4638671875,-0.947265625
519,1.706,IMU0,-6.829268292682928,3.231707317073171,-3.048780487804878,2.583984375,-0.4677734375,-0.87109375
520,1.706,IMU1,-5.121951219512195,2.5609756097560976,-2.1341463414634148,2.5537109375,-0.4130859375,-0.890625
521,1.706,IMU2,-5.2439024390243905,3.780487804878049,-2.7439024390243905,2.560546875,-0.4521484375,-0.8974609375
522,1.716,IMU0,-5.853658536585367,1.3414634146341464,-0.3658536585365854,2.615234375,-0.5302734375,-0.8818359375
523,1.716,IMU1,-4.085365853658537,0.5487804878048781,-0.6097560975609757,2.578125,-0.474609375,-0.8935546875
524,1.716,IMU2,-4.817073170731708,2.073170731707317,-1.1585365853658538,2.5732421875,-0.5146484375,-0.900390625
525,1.726,IMU0,-4.695121951219512,1.9512195121951221,-5.487804878048781,2.6181640625,-0.5771484375,-0.8896484375
526,1.726,IMU1,-3.231707317073171,1.4634146341463417,-5.731707317073171,2.568359375,-0.515625,-0.890625
527,1.726,IMU2,-4.390243902439025,2.987804878048781,-6.219512195121951,2.55859375,-0.5517578125,-0.8896484375
528,1.736,IMU0,-5.121951219512195,2.1341463414634148,-7.8048780487804885,2.626953125,-0.4716796875,-0.91015625
529,1.736,IMU1,-3.231707317073171,0.9756097560975611,-6.7682926829268295,2.6064453125,-0.4248046875,-0.923828125
530,1.736,IMU2,-4.207317073170732,2.25609756097561,-7.317073170731708,2.6123046875,-0.4638671875,-0.927734375
531,1.746,IMU0,-5.0,-0.30487804878048785,-0.6097560975609757,2.6171875,-0.46875,-0.9560546875
532,1.746,IMU1,-2.9268292682926833,-1.4634146341463417,0.0,2.5927734375,-0.408203125,-0.97265625
533,1.746,IMU2,-4.51219512195122,-0.12195121951219513,-0.5487804878048781,2.5947265625,-0.443359375,-0.98046875
534,1.756,IMU0,-3.1707317073170733,2.5609756097560976,6.097560975609756,2.5400390625,-0.470703125,-0.9189453125
535,1.756,IMU1,-1.3414634146341464,1.9512195121951221,6.707317073170732,2.5224609375,-0.4248046875,-0.9287109375
536,1.756,IMU2,-2.987804878048781,3.1707317073170733,6.219512195121951,2.5234375,-0.4580078125,-0.9365234375
537,1.766,IMU0,-5.426829268292684,5.7926829268292686,5.975609756097562,2.484375,-0.4716796875,-0.9287109375
538,1.766,IMU1,-3.1707317073170733,4.939024390243903,6.036585365853659,2.4609375,-0.427734375,-0.939453125
539,1.766,IMU2,-4.390243902439025,6.585365853658537,5.426829268292684,2.4599609375,-0.4599609375,-0.94140625
540,1.776,IMU0,-6.951219512195123,9.26829268292683,3.658536585365854,2.50390625,-0.439453125,-0.943359375
541,1.776,IMU1,-5.487804878048781,8.292682926829269,3.7195121951219514,2.4716796875,-0.3896484375,-0.9287109375
542,1.776,IMU2,-6.707317073170732,9.817073170731708,2.987804878048781,2.470703125,-0.4189453125,-0.9306640625
543,1.786,IMU0,-6.585365853658537,10.121951219512196,4.75609756097561,2.4931640625,-0.3916015625,-0.9287109375
544,1.786,IMU1,-4.207317073170732,9.085365853658537,5.2439024390243905,2.490234375,-0.3515625,-0.9306640625
545,1.786,IMU2,-5.121951219512195,10.853658536585368,4.75609756097561,2.4970703125,-0.3857421875,-0.966796875
546,1.796,IMU0,-7.865853658536586,7.500000000000001,4.451219512195122,2.5302734375,-0.384765625,-0.9619140625
547,1.796,IMU1,-5.609756097560976,5.548780487804878,4.75609756097561,2.5205078125,-0.34375,-0.9482421875
548,1.796,IMU2,-6.402439024390245,7.01219512195122,4.207317073170732,2.5234375,-0.3828125,-0.958984375
549,1.806,IMU0,-5.7926829268292686,7.317073170731708,7.073170731707318,2.494140625,-0.306640625,-1.015625
550,1.806,IMU1,-4.024390243902439,6.036585365853659,8.048780487804878,2.494140625,-0.2734375,-0.994140625
551,1.806,IMU2,-4.085365853658537,7.8048780487804885,7.621951219512196,2.5048828125,-0.318359375,-0.9541015625
552,1.816,IMU0,-1.0975609756097562,10.548780487804878,17.743902439024392,2.4228515625,-0.271484375,-1.01953125
553,1.816,IMU1,1.0365853658536586,9.146341463414634,19.085365853658537,2.4208984375,-0.2578125,-0.9775390625
554,1.816,IMU2,0.6097560975609757,10.548780487804878,18.78048780487805,2.4326171875,-0.3037109375,-0.9462890625
555,1.826,IMU0,0.24390243902439027,15.426829268292684,21.52439024390244,2.4208984375,-0.3427734375,-1.0078125
556,1.826,IMU1,1.8902439024390245,14.207317073170733,21.82926829268293,2.40234375,-0.3173828125,-0.9326171875
557,1.826,IMU2,0.7926829268292683,16.03658536585366,21.219512195121954,2.4013671875,-0.3544921875,-0.919921875
558,1.836,IMU0,0.3658536585365854,12.439024390243903,24.695121951219516,2.310546875,-0.212890625,-0.9521484375
559,1.836,IMU1,2.3170731707317076,11.951219512195124,25.731707317073173,2.2822265625,-0.185546875,-0.9091796875
560,1.836,IMU2,1.829268292682927,13.841463414634148,25.48780487804878,2.3125,-0.2099609375,-0.97265625
561,1.846,IMU0,3.414634146341464,20.0609756097561,30.000000000000004,2.1962890625,-0.357421875,-0.9091796875
562,1.846,IMU1,5.182926829268293,18.963414634146343,30.365853658536587,2.1728515625,-0.3271484375,-0.904296875
563,1.846,IMU2,4.695121951219512,20.121951219512198,29.634146341463417,2.1611328125,-0.3505859375,-0.900390625
564,1.856,IMU0,4.390243902439025,29.26829268292683,30.121951219512198,2.13671875,-0.2587890625,-0.9326171875
565,1.856,IMU1,5.7926829268292686,27.926829268292686,30.30487804878049,2.099609375,-0.2197265625,-0.923828125
566,1.856,IMU2,5.609756097560976,29.451219512195124,30.182926829268297,2.1279296875,-0.26171875,-0.9091796875
567,1.866,IMU0,7.01219512195122,36.82926829268293,37.6219512195122,2.1689453125,-0.2734375,-0.927734375
568,1.866,IMU1,8.719512195121952,36.21951219512196,37.80487804878049,2.158203125,-0.2451171875,-0.892578125
569,1.866,IMU2,7.8048780487804885,37.25609756097561,37.6829268292683,2.1669921875,-0.26953125,-0.94921875
570,1.876,IMU0,10.060975609756099,42.6829268292683,43.963414634146346,2.1787109375,-0.298828125,-0.9140625
571,1.876,IMU1,12.195121951219512,41.58536585365854,44.08536585365854,2.1689453125,-0.26953125,-0.9091796875
572,1.876,IMU2,11.219512195121952,42.987804878048784,44.024390243902445,2.1884765625,-0.3203125,-0.8916015625
573,1.886,IMU0,11.219512195121952,47.86585365853659,47.804878048780495,2.15625,-0.310546875,-0.966796875
574,1.886,IMU1,13.170731707317074,46.646341463414636,48.10975609756098,2.13671875,-0.279296875,-0.982421875
575,1.886,IMU2,12.80487804878049,48.35365853658537,47.86585365853659,2.140625,-0.326171875,-0.9248046875
576,1.896,IMU0,12.01219512195122,50.304878048780495,49.39024390243903,2.15625,-0.326171875,-0.9638671875
577,1.896,IMU1,13.719512195121952,49.146341463414636,49.75609756097561,2.1376953125,-0.29296875,-0.966796875
578,1.896,IMU2,13.536585365853659,50.426829268292686,49.32926829268293,2.138671875,-0.3330078125,-0.919921875
579,1.906,IMU0,12.317073170731708,55.60975609756098,47.987804878048784,2.2177734375,-0.3232421875,-0.994140625
580,1.906,IMU1,14.451219512195124,54.81707317073171,48.41463414634147,2.197265625,-0.2890625,-1.0185546875
581,1.906,IMU2,13.719512195121952,56.524390243902445,47.926829268292686,2.1904296875,-0.3271484375,-0.95703125
582,1.916,IMU0,11.707317073170733,54.69512195121952,45.54878048780488,2.1826171875,-0.28125,-1.00390625
583,1.916,IMU1,13.353658536585368,53.90243902439025,45.97560975609756,2.16796875,-0.2509765625,-0.98046875
584,1.916,IMU2,12.317073170731708,55.243902439024396,45.60975609756098,2.1650390625,-0.296875,-0.958984375
585,1.926,IMU0,10.731707317073171,57.19512195121952,47.13414634146342,2.1328125,-0.1474609375,-1.0146484375
586,1.926,IMU1,11.951219512195124,56.34146341463415,47.37804878048781,2.12890625,-0.1240234375,-1.0078125
587,1.926,IMU2,12.439024390243903,58.47560975609757,47.50000000000001,2.1513671875,-0.171875,-0.98046875
588,1.936,IMU0,16.402439024390244,65.54878048780489,56.646341463414636,2.0654296875,-0.158203125,-1.017578125
589,1.936,IMU1,18.597560975609756,64.75609756097562,56.89024390243903,2.05078125,-0.1357421875,-0.9814453125
590,1.936,IMU2,17.621951219512198,66.09756097560977,56.21951219512196,2.068359375,-0.173828125,-1.0048828125
591,1.946,IMU0,17.31707317073171,74.39024390243902,57.926829268292686,2.06640625,-0.1591796875,-1.0966796875
592,1.946,IMU1,18.658536585365855,73.84146341463415,58.41463414634147,2.0400390625,-0.134765625,-1.0546875
593,1.946,IMU2,19.02439024390244,74.32926829268294,58.10975609756098,2.0341796875,-0.171875,-1.0576171875
594,1.956,IMU0,15.914634146341465,76.46341463414635,53.84146341463415,2.0888671875,-0.1357421875,-1.1064453125
595,1.956,IMU1,17.012195121951223,76.15853658536587,54.451219512195124,2.0625,-0.1064453125,-1.083984375
596,1.956,IMU2,17.5,76.58536585365854,53.963414634146346,2.0576171875,-0.146484375,-1.052734375
597,1.966,IMU0,15.54878048780488,80.54878048780489,50.1219512195122,2.08984375,-0.126953125,-1.1552734375
598,1.966,IMU1,16.82926829268293,80.2439024390244,50.79268292682927,2.05859375,-0.09765625,-1.119140625
599,1.966,IMU2,17.012195121951223,80.85365853658537,50.54878048780488,2.048828125,-0.1279296875,-1.1376953125
600,1.976,IMU0,15.182926829268293,85.48780487804879,46.524390243902445,2.08203125,-0.1650390625,-1.126953125
601,1.976,IMU1,16.097560975609756,85.3048780487805,47.31707317073171,2.052734375,-0.1298828125,-1.0986328125
602,1.976,IMU2,16.463414634146343,86.03658536585367,47.07317073170732,2.0302734375,-0.16796875,-1.0546875
603,1.986,IMU0,11.585365853658537,93.47560975609757,37.31707317073171,2.0546875,-0.15234375,-1.1181640625
604,1.986,IMU1,12.621951219512196,92.98780487804879,37.987804878048784,2.03125,-0.119140625,-1.1220703125
605,1.986,IMU2,13.29268292682927,94.26829268292684,37.6829268292683,2.01953125,-0.158203125,-1.0703125
606,1.996,IMU0,10.609756097560977,93.84146341463415,35.30487804878049,2.0439453125,-0.0625,-1.0986328125
607,1.996,IMU1,11.158536585365855,93.47560975609757,35.73170731707317,2.03125,-0.0341796875,-1.0703125
608,1.996,IMU2,12.01219512195122,94.63414634146342,35.0609756097561,2.0390625,-0.0673828125,-1.0576171875
609,2.006,IMU0,12.439024390243903,90.54878048780489,39.024390243902445,2.0576171875,-0.1396484375,-1.134765625
610,2.006,IMU1,13.353658536585368,89.75609756097562,39.69512195121951,2.0341796875,-0.10546875,-1.1103515625
611,2.006,IMU2,13.475609756097562,91.58536585365854,39.451219512195124,2.03125,-0.13671875,-1.0498046875
612,2.016,IMU0,7.926829268292684,90.54878048780489,28.04878048780488,2.005859375,-0.197265625,-1.1328125
613,2.016,IMU1,8.841463414634147,89.81707317073172,28.902439024390247,1.97265625,-0.1689453125,-1.130859375
614,2.016,IMU2,10.182926829268293,91.34146341463415,28.780487804878053,1.9619140625,-0.205078125,-1.0732421875
615,2.026,IMU0,4.695121951219512,92.6219512195122,17.439024390243905,1.9853515625,-0.0810546875,-1.15234375
616,2.026,IMU1,5.426829268292684,92.13414634146342,18.10975609756098,1.9677734375,-0.0517578125,-1.166015625
617,2.026,IMU2,5.609756097560976,92.92682926829269,17.804878048780488,1.974609375,-0.083984375,-1.150390625
618,2.036,IMU0,5.609756097560976,92.8658536585366,17.5609756097561,2.0302734375,-0.078125,-1.1416015625
619,2.036,IMU1,5.853658536585367,92.8048780487805,18.231707317073173,2.0078125,-0.052734375,-1.134765625
620,2.036,IMU2,6.52439024390244,93.59756097560977,17.865853658536587,2.009765625,-0.08984375,-1.123046875
621,2.046,IMU0,5.3048780487804885,91.76829268292684,15.54878048780488,2.0185546875,-0.09375,-1.1416015625
622,2.046,IMU1,5.853658536585367,91.52439024390245,16.158536585365855,1.998046875,-0.06640625,-1.1396484375
623,2.046,IMU2,6.2804878048780495,92.13414634146342,15.79268292682927,2.0,-0.0986328125,-1.1328125
624,2.056,IMU0,5.975609756097562,92.25609756097562,15.975609756097562,2.0224609375,-0.0302734375,-1.2041015625
625,2.056,IMU1,6.52439024390244,91.58536585365854,16.52439024390244,2.001953125,-0.0048828125,-1.205078125
626,2.056,IMU2,6.951219512195123,92.37804878048782,16.097560975609756,2.0087890625,-0.0361328125,-1.2265625
627,2.066,IMU0,7.317073170731708,86.46341463414635,17.865853658536587,2.068359375,-0.052734375,-1.1591796875
628,2.066,IMU1,8.536585365853659,86.40243902439025,18.414634146341466,2.04296875,-0.0205078125,-1.1337890625
629,2.066,IMU2,8.475609756097562,87.6219512195122,17.98780487804878,2.0419921875,-0.056640625,-1.1142578125
630,2.076,IMU0,6.52439024390244,81.09756097560977,14.085365853658537,1.970703125,-0.095703125,-1.1728515625
631,2.076,IMU1,8.353658536585366,80.67073170731707,14.573170731707318,1.947265625,-0.060546875,-1.197265625
632,2.076,IMU2,7.743902439024391,82.43902439024392,14.207317073170733,1.947265625,-0.0849609375,-1.197265625
633,2.086,IMU0,4.75609756097561,78.17073170731707,13.414634146341465,1.94921875,-0.01171875,-1.1328125
634,2.086,IMU1,6.036585365853659,76.70731707317074,13.78048780487805,1.9423828125,0.0166015625,-1.1337890625
635,2.086,IMU2,4.75609756097561,78.90243902439025,13.414634146341465,1.955078125,-0.0126953125,-1.1376953125
636,2.096,IMU0,8.719512195121952,64.20731707317074,21.03658536585366,1.9638671875,-0.0703125,-1.1904296875
637,2.096,IMU1,10.487804878048781,62.926829268292686,21.402439024390247,1.9462890625,-0.0439453125,-1.177734375
638,2.096,IMU2,9.390243902439025,65.2439024390244,21.03658536585366,1.9462890625,-0.076171875,-1.1787109375
639,2.106,IMU0,8.536585365853659,56.28048780487806,21.646341463414636,1.900390625,-0.103515625,-1.251953125
640,2.106,IMU1,10.914634146341465,55.1219512195122,22.012195121951223,1.87890625,-0.0771484375,-1.21875
641,2.106,IMU2,9.390243902439025,56.646341463414636,21.707317073170735,1.8759765625,-0.107421875,-1.2158203125
642,2.116,IMU0,8.292682926829269,52.31707317073171,22.195121951219512,1.919921875,-0.04296875,-1.322265625
643,2.116,IMU1,10.609756097560977,51.768292682926834,22.500000000000004,1.8984375,-0.0146484375,-1.33984375
644,2.116,IMU2,9.146341463414634,53.78048780487806,22.195121951219512,1.90234375,-0.0439453125,-1.3369140625
645,2.126,IMU0,8.841463414634147,46.28048780487805,25.121951219512198,1.974609375,-0.0380859375,-1.2978515625
646,2.126,IMU1,10.548780487804878,46.34146341463415,25.54878048780488,1.951171875,-0.013671875,-1.2607421875
647,2.126,IMU2,9.146341463414634,48.04878048780488,25.182926829268293,1.953125,-0.0458984375,-1.2587890625
648,2.136,IMU0,6.829268292682928,37.31707317073171,23.29268292682927,1.9833984375,-0.064453125,-1.3369140625
649,2.136,IMU1,9.695121951219512,36.58536585365854,23.658536585365855,1.962890625,-0.0341796875,-1.3291015625
650,2.136,IMU2,7.560975609756098,38.23170731707317,23.29268292682927,1.9609375,-0.06640625,-1.3232421875
651,2.146,IMU0,7.378048780487806,31.463414634146343,21.463414634146343,1.9033203125,-0.08203125,-1.3203125
652,2.146,IMU1,9.756097560975611,30.54878048780488,21.82926829268293,1.8779296875,-0.048828125,-1.3115234375
653,2.146,IMU2,8.414634146341465,31.646341463414636,21.34146341463415,1.869140625,-0.0830078125,-1.2958984375
654,2.156,IMU0,3.231707317073171,21.951219512195124,14.817073170731708,1.806640625,-0.142578125,-1.330078125
655,2.156,IMU1,5.487804878048781,21.097560975609756,15.243902439024392,1.78125,-0.12109375,-1.3056640625
656,2.156,IMU2,4.024390243902439,22.195121951219512,14.756097560975611,1.76953125,-0.1455078125,-1.306640625
657,2.166,IMU0,0.9146341463414634,17.134146341463417,9.451219512195122,1.7177734375,-0.0771484375,-1.26953125
658,2.166,IMU1,3.7195121951219514,15.914634146341465,9.695121951219512,1.701171875,-0.0546875,-1.2646484375
659,2.166,IMU2,1.707317073170732,17.31707317073171,9.207317073170733,1.6962890625,-0.0791015625,-1.2646484375
660,2.176,IMU0,0.7317073170731708,14.390243902439027,9.573170731707318,1.62109375,0.0390625,-1.3251953125
661,2.176,IMU1,2.3170731707317076,13.963414634146343,9.939024390243903,1.6044921875,0.060546875,-1.3466796875
662,2.176,IMU2,0.7317073170731708,14.756097560975611,9.51219512195122,1.609375,0.0361328125,-1.3271484375
663,2.186,IMU0,2.5,15.243902439024392,7.743902439024391,1.5283203125,-0.0546875,-1.3447265625
664,2.186,IMU1,4.329268292682928,14.695121951219514,8.292682926829269,1.498046875,-0.03125,-1.3232421875
665,2.186,IMU2,3.7195121951219514,16.219512195121954,7.682926829268293,1.49609375,-0.05859375,-1.3232421875
666,2.196,IMU0,-2.5,13.353658536585368,1.0975609756097562,1.48828125,0.0556640625,-1.3857421875
667,2.196,IMU1,-0.426829268292683,12.317073170731708,1.3414634146341464,1.470703125,0.0830078125,-1.3837890625
668,2.196,IMU2,-1.6463414634146343,13.597560975609758,0.9146341463414634,1.474609375,0.0517578125,-1.38671875
669,2.206,IMU0,4.451219512195122,19.085365853658537,7.682926829268293,1.5771484375,0.0673828125,-1.294921875
670,2.206,IMU1,6.402439024390245,18.658536585365855,7.926829268292684,1.5546875,0.09765625,-1.2880859375
671,2.206,IMU2,5.182926829268293,19.207317073170735,7.500000000000001,1.5615234375,0.0615234375,-1.2724609375
672,2.216,IMU0,3.048780487804878,8.231707317073171,5.853658536585367,1.62109375,-0.009765625,-1.3271484375
673,2.216,IMU1,5.060975609756098,7.987804878048781,6.158536585365854,1.5986328125,0.0107421875,-1.2978515625
674,2.216,IMU2,4.451219512195122,8.719512195121952,5.548780487804878,1.591796875,-0.0126953125,-1.306640625
675,2.226,IMU0,-0.30487804878048785,-1.5853658536585367,1.2195121951219514,1.595703125,-0.064453125,-1.4052734375
676,2.226,IMU1,2.439024390243903,-2.987804878048781,1.524390243902439,1.5712890625,-0.04296875,-1.4033203125
677,2.226,IMU2,0.7926829268292683,-1.0975609756097562,0.9146341463414634,1.5576171875,-0.06640625,-1.3974609375
678,2.236,IMU0,-4.817073170731708,-2.8658536585365857,-3.231707317073171,1.5751953125,-0.0390625,-1.4169921875
679,2.236,IMU1,-2.7439024390243905,-4.146341463414634,-2.9268292682926833,1.5546875,-0.017578125,-1.427734375
680,2.236,IMU2,-3.8414634146341466,-1.7682926829268295,-3.5975609756097566,1.548828125,-0.0400390625,-1.404296875
681,2.246,IMU0,-3.1097560975609757,-0.9756097560975611,0.853658536585366,1.5888671875,-0.0439453125,-1.3916015625
682,2.246,IMU1,-0.7926829268292683,-2.5,1.2195121951219514,1.5703125,-0.01953125,-1.3818359375
683,2.246,IMU2,-0.7317073170731708,-0.30487804878048785,0.426829268292683,1.572265625,-0.041015625,-1.3798828125
684,2.256,IMU0,-2.7439024390243905,-2.7439024390243905,3.414634146341464,1.5615234375,-0.0380859375,-1.3662109375
685,2.256,IMU1,-0.5487804878048781,-4.451219512195122,4.024390243902439,1.5498046875,-0.0166015625,-1.3935546875
686,2.256,IMU2,-1.0975609756097562,-2.3170731707317076,3.1097560975609757,1.5458984375,-0.0458984375,-1.3916015625
687,2.266,IMU0,-2.8658536585365857,-4.207317073170732,4.451219512195122,1.6298828125,-0.0732421875,-1.474609375
688,2.266,IMU1,-0.30487804878048785,-6.890243902439025,4.451219512195122,1.599609375,-0.0419921875,-1.4462890625
689,2.266,IMU2,-1.2804878048780488,-4.451219512195122,4.024390243902439,1.6015625,-0.068359375,-1.4560546875
690,2.276,IMU0,-3.414634146341464,-9.207317073170733,3.8414634146341466,1.5966796875,-0.107421875,-1.400390625
691,2.276,IMU1,-0.426829268292683,-10.548780487804878,3.5975609756097566,1.5810546875,-0.08203125,-1.3857421875
692,2.276,IMU2,-2.5,-8.719512195121952,3.414634146341464,1.5625,-0.1123046875,-1.3759765625
693,2.286,IMU0,-5.0,-12.74390243902439,1.4634146341463417,1.5751953125,-0.0888671875,-1.380859375
694,2.286,IMU1,-2.25609756097561,-14.146341463414636,1.6463414634146343,1.568359375,-0.0751953125,-1.361328125
695,2.286,IMU2,-3.2926829268292686,-12.80487804878049,1.0365853658536586,1.5546875,-0.0869140625,-1.357421875
696,2.296,IMU0,-5.487804878048781,-11.036585365853659,2.0121951219512195,1.609375,-0.01953125,-1.349609375
697,2.296,IMU1,-3.414634146341464,-13.29268292682927,2.439024390243903,1.603515625,-0.021484375,-1.3154296875
698,2.296,IMU2,-4.2682926829268295,-10.975609756097562,1.707317073170732,1.6025390625,-0.02734375,-1.353515625
699,2.306,IMU0,-6.219512195121951,-4.75609756097561,2.804878048780488,1.6171875,-0.0703125,-1.37890625
700,2.306,IMU1,-4.085365853658537,-6.341463414634147,2.9268292682926833,1.609375,-0.0673828125,-1.3291015625
701,2.306,IMU2,-4.878048780487806,-4.75609756097561,2.5,1.603515625,-0.08203125,-1.36328125
702,2.316,IMU0,-7.500000000000001,-0.06097560975609757,-0.06097560975609757,1.638671875,-0.029296875,-1.2998046875
703,2.316,IMU1,-5.0,-1.707317073170732,0.06097560975609757,1.607421875,-0.0205078125,-1.2646484375
704,2.316,IMU2,-5.609756097560976,-0.24390243902439027,-0.426829268292683,1.6142578125,-0.046875,-1.251953125
705,2.326,IMU0,-7.8048780487804885,0.9756097560975611,-5.2439024390243905,1.525390625,-0.044921875,-1.2978515625
706,2.326,IMU1,-5.853658536585367,0.06097560975609757,-5.670731707317073,1.4794921875,-0.0205078125,-1.2802734375
707,2.326,IMU2,-7.01219512195122,0.9756097560975611,-5.7926829268292686,1.4814453125,-0.052734375,-1.25390625
708,2.336,IMU0,-7.621951219512196,-1.3414634146341464,-11.036585365853659,1.404296875,-0.0654296875,-1.248046875
709,2.336,IMU1,-6.463414634146342,-2.7439024390243905,-11.158536585365855,1.384765625,-0.0068359375,-1.26171875
710,2.336,IMU2,-7.317073170731708,-1.402439024390244,-11.52439024390244,1.3828125,-0.04296875,-1.2724609375
711,2.346,IMU0,-1.2804878048780488,2.682926829268293,-1.6463414634146343,1.2548828125,0.0244140625,-1.162109375
712,2.346,IMU1,0.7317073170731708,1.707317073170732,0.06097560975609757,1.259765625,0.0244140625,-1.1669921875
713,2.346,IMU2,0.0,2.9268292682926833,-1.2195121951219514,1.2802734375,0.01953125,-1.2255859375
714,2.356,IMU0,2.25609756097561,-1.0365853658536586,8.170731707317074,1.318359375,0.015625,-1.310546875
715,2.356,IMU1,4.146341463414634,-1.5853658536585367,8.963414634146343,1.2998046875,0.0224609375,-1.30078125
716,2.356,IMU2,3.780487804878049,-0.426829268292683,8.109756097560977,1.30859375,0.0,-1.265625
717,2.366,IMU0,5.3048780487804885,3.231707317073171,8.475609756097562,1.3583984375,-0.107421875,-1.3037109375
718,2.366,IMU1,7.439024390243903,2.1341463414634148,8.109756097560977,1.337890625,-0.09375,-1.2705078125
719,2.366,IMU2,7.134146341463415,3.4756097560975614,7.8048780487804885,1.328125,-0.107421875,-1.30859375
720,2.376,IMU0,1.2195121951219514,1.829268292682927,2.5609756097560976,1.3798828125,-0.0654296875,-1.2685546875
721,2.376,IMU1,3.780487804878049,0.0,2.804878048780488,1.3623046875,-0.0322265625,-1.2666015625
722,2.376,IMU2,3.048780487804878,1.829268292682927,2.3170731707317076,1.353515625,-0.0654296875,-1.2109375
723,2.386,IMU0,-1.7682926829268295,-9.329268292682928,-0.3658536585365854,1.3662109375,-0.0263671875,-1.2646484375
724,2.386,IMU1,0.12195121951219513,-10.731707317073171,-0.06097560975609757,1.3515625,-0.00390625,-1.2783203125
725,2.386,IMU2,-0.9146341463414634,-8.353658536585366,-0.5487804878048781,1.3486328125,-0.017578125,-1.294921875
726,2.396,IMU0,0.1829268292682927,-2.987804878048781,1.402439024390244,1.29296875,-0.0224609375,-1.2783203125
727,2.396,IMU1,1.8902439024390245,-4.634146341463415,1.7682926829268295,1.279296875,-0.0263671875,-1.201171875
728,2.396,IMU2,0.48780487804878053,-3.1707317073170733,1.2195121951219514,1.279296875,-0.0322265625,-1.2333984375
729,2.406,IMU0,-1.5853658536585367,-4.573170731707317,-0.12195121951219513,1.1982421875,-0.01953125,-1.3642578125
730,2.406,IMU1,0.9756097560975611,-6.829268292682928,0.1829268292682927,1.1845703125,-0.00390625,-1.322265625
731,2.406,IMU2,-0.48780487804878053,-5.853658536585367,-0.426829268292683,1.189453125,-0.025390625,-1.318359375
732,2.416,IMU0,-0.853658536585366,7.378048780487806,1.0975609756097562,1.1728515625,-0.0283203125,-1.283203125
733,2.416,IMU1,0.06097560975609757,6.036585365853659,1.5853658536585367,1.1572265625,-0.00390625,-1.27734375
734,2.416,IMU2,-1.0975609756097562,6.890243902439025,0.9756097560975611,1.158203125,-0.029296875,-1.2451171875
735,2.426,IMU0,-1.4634146341463417,17.012195121951223,0.0,1.1982421875,0.009765625,-1.296875
736,2.426,IMU1,-0.7317073170731708,15.243902439024392,0.426829268292683,1.1796875,0.0224609375,-1.3056640625
737,2.426,IMU2,-1.402439024390244,16.03658536585366,-0.1829268292682927,1.1826171875,-0.0048828125,-1.28125
738,2.436,IMU0,0.5487804878048781,17.98780487804878,4.085365853658537,1.1728515625,0.0234375,-1.2529296875
739,2.436,IMU1,1.4634146341463417,15.609756097560977,4.51219512195122,1.1552734375,0.0400390625,-1.2177734375
740,2.436,IMU2,0.7926829268292683,16.70731707317073,3.780487804878049,1.1533203125,0.0146484375,-1.234375
741,2.446,IMU0,-0.06097560975609757,21.707317073170735,5.426829268292684,1.1650390625,-0.0419921875,-1.2802734375
742,2.446,IMU1,2.378048780487805,19.75609756097561,5.853658536585367,1.1376953125,-0.0205078125,-1.2763671875
743,2.446,IMU2,1.0365853658536586,21.82926829268293,5.548780487804878,1.125,-0.0419921875,-1.255859375
744,2.456,IMU0,-3.353658536585366,25.243902439024392,3.2926829268292686,1.1533203125,0.0146484375,-1.263671875
745,2.456,IMU1,-0.7317073170731708,23.59756097560976,3.536585365853659,1.140625,0.0380859375,-1.26171875
746,2.456,IMU2,-2.8658536585365857,25.670731707317074,3.1097560975609757,1.146484375,0.0263671875,-1.251953125
747,2.466,IMU0,-5.670731707317073,27.5609756097561,2.8658536585365857,1.203125,0.046875,-1.23046875
748,2.466,IMU1,-3.1097560975609757,26.219512195121954,3.1097560975609757,1.18359375,0.056640625,-1.2080078125
749,2.466,IMU2,-4.207317073170732,27.926829268292686,2.682926829268293,1.1845703125,0.0322265625,-1.216796875
750,2.476,IMU0,-4.695121951219512,26.09756097560976,4.024390243902439,1.2431640625,0.0087890625,-1.2763671875
751,2.476,IMU1,-1.7682926829268295,24.32926829268293,4.2682926829268295,1.21875,0.0283203125,-1.2880859375
752,2.476,IMU2,-2.5,25.975609756097562,3.780487804878049,1.2138671875,0.0029296875,-1.28125
753,2.486,IMU0,-7.25609756097561,22.134146341463417,1.6463414634146343,1.22265625,0.029296875,-1.2783203125
754,2.486,IMU1,-4.390243902439025,20.426829268292686,1.7682926829268295,1.2021484375,0.05078125,-1.2607421875
755,2.486,IMU2,-5.670731707317073,22.012195121951223,1.3414634146341464,1.2001953125,0.03515625,-1.2529296875
756,2.496,IMU0,-10.121951219512196,21.219512195121954,0.426829268292683,1.2138671875,0.0322265625,-1.2353515625
757,2.496,IMU1,-7.8048780487804885,20.243902439024392,0.6707317073170732,1.1943359375,0.048828125,-1.2001953125
758,2.496,IMU2,-8.048780487804878,21.463414634146343,0.06097560975609757,1.19140625,0.02734375,-1.201171875
759,2.506,IMU0,-8.536585365853659,21.82926829268293,3.5975609756097566,1.1435546875,0.052734375,-1.27734375
760,2.506,IMU1,-6.158536585365854,21.158536585365855,3.658536585365854,1.134765625,0.0703125,-1.265625
761,2.506,IMU2,-6.951219512195123,22.439024390243905,3.048780487804878,1.1416015625,0.05078125,-1.2626953125
762,2.516,IMU0,-8.902439024390244,25.000000000000004,5.731707317073171,1.1708984375,0.015625,-1.265625
763,2.516,IMU1,-6.707317073170732,24.02439024390244,5.975609756097562,1.1533203125,0.0322265625,-1.2646484375
764,2.516,IMU2,-7.8048780487804885,25.792682926829272,5.487804878048781,1.1513671875,0.01171875,-1.255859375
765,2.526,IMU0,-8.109756097560977,29.08536585365854,5.670731707317073,1.140625,-0.0048828125,-1.2705078125
766,2.526,IMU1,-5.609756097560976,28.475609756097562,5.853658536585367,1.1220703125,0.0068359375,-1.2685546875
767,2.526,IMU2,-7.25609756097561,29.39024390243903,5.426829268292684,1.119140625,-0.0126953125,-1.2666015625
768,2.536,IMU0,-9.146341463414634,30.792682926829272,3.048780487804878,1.16796875,0.03125,-1.318359375
769,2.536,IMU1,-8.109756097560977,29.939024390243905,3.414634146341464,1.1455078125,0.046875,-1.3115234375
770,2.536,IMU2,-9.26829268292683,30.54878048780488,2.987804878048781,1.1416015625,0.02734375,-1.3095703125
771,2.546,IMU0,-8.902439024390244,30.54878048780488,3.2926829268292686,1.171875,-0.0087890625,-1.1884765625
772,2.546,IMU1,-8.231707317073171,30.243902439024392,3.658536585365854,1.15625,0.0185546875,-1.2080078125
773,2.546,IMU2,-9.207317073170733,31.03658536585366,3.1707317073170733,1.15234375,-0.0068359375,-1.193359375
774,2.556,IMU0,-9.756097560975611,27.31707317073171,3.048780487804878,1.181640625,0.005859375,-1.2177734375
775,2.556,IMU1,-8.353658536585366,27.621951219512198,3.4756097560975614,1.1640625,0.0224609375,-1.203125
776,2.556,IMU2,-9.146341463414634,27.987804878048784,2.9268292682926833,1.1591796875,0.0009765625,-1.1923828125
777,2.566,IMU0,-8.963414634146343,24.451219512195124,3.9024390243902443,1.1787109375,0.0048828125,-1.203125
778,2.566,IMU1,-6.707317073170732,23.78048780487805,4.146341463414634,1.1611328125,0.0234375,-1.189453125
779,2.566,IMU2,-8.292682926829269,25.54878048780488,3.658536585365854,1.162109375,0.00390625,-1.1904296875
780,2.576,IMU0,-8.719512195121952,22.31707317073171,6.585365853658537,1.1572265625,0.0556640625,-1.17578125
781,2.576,IMU1,-7.500000000000001,20.79268292682927,6.890243902439025,1.1416015625,0.076171875,-1.173828125
782,2.576,IMU2,-8.109756097560977,22.073170731707318,6.341463414634147,1.1455078125,0.052734375,-1.1494140625
783,2.586,IMU0,-5.670731707317073,18.231707317073173,13.78048780487805,1.0908203125,0.0380859375,-1.201171875
784,2.586,IMU1,-5.609756097560976,17.134146341463417,14.207317073170733,1.0771484375,0.0576171875,-1.193359375
785,2.586,IMU2,-4.085365853658537,18.475609756097562,13.414634146341465,1.076171875,0.0322265625,-1.17578125
786,2.596,IMU0,-6.890243902439025,22.682926829268293,11.951219512195124,1.15234375,-0.013671875,-1.2021484375
787,2.596,IMU1,-5.731707317073171,21.707317073170735,12.317073170731708,1.1328125,0.0087890625,-1.173828125
788,2.596,IMU2,-6.158536585365854,22.80487804878049,11.707317073170733,1.119140625,-0.0146484375,-1.1875
789,2.606,IMU0,-7.439024390243903,25.914634146341466,7.865853658536586,1.1708984375,0.0263671875,-1.146484375
790,2.606,IMU1,-6.463414634146342,25.60975609756098,8.231707317073171,1.1552734375,0.0439453125,-1.1416015625
791,2.606,IMU2,-6.829268292682928,26.76829268292683,7.621951219512196,1.1484375,0.0244140625,-1.1357421875
792,2.616,IMU0,-10.548780487804878,15.487804878048783,5.670731707317073,1.1669921875,0.021484375,-1.1650390625
793,2.616,IMU1,-8.109756097560977,14.817073170731708,5.914634146341464,1.1494140625,0.0341796875,-1.150390625
794,2.616,IMU2,-9.695121951219512,15.79268292682927,5.3048780487804885,1.1416015625,0.0234375,-1.1591796875
795,2.626,IMU0,-7.134146341463415,13.04878048780488,8.048780487804878,1.0654296875,0.03515625,-1.1357421875
796,2.626,IMU1,-4.695121951219512,11.951219512195124,8.170731707317074,1.052734375,0.056640625,-1.1455078125
797,2.626,IMU2,-6.585365853658537,13.414634146341465,7.743902439024391,1.052734375,0.029296875,-1.134765625
798,2.636,IMU0,-6.219512195121951,12.317073170731708,8.597560975609756,1.0751953125,0.048828125,-1.1875
799,2.636,IMU1,-3.963414634146342,11.52439024390244,8.78048780487805,1.0546875,0.0693359375,-1.181640625
800,2.636,IMU2,-4.939024390243903,13.29268292682927,8.231707317073171,1.0537109375,0.0419921875,-1.17578125
801,2.646,IMU0,-4.451219512195122,14.207317073170733,7.378048780487806,1.0966796875,-0.0009765625,-1.169921875
802,2.646,IMU1,-1.829268292682927,13.231707317073171,7.621951219512196,1.0703125,0.0166015625,-1.1552734375
803,2.646,IMU2,-3.414634146341464,15.609756097560977,7.01219512195122,1.06640625,0.0009765625,-1.1591796875
804,2.656,IMU0,-4.024390243902439,17.378048780487806,4.817073170731708,1.1298828125,0.07421875,-1.15234375
805,2.656,IMU1,-0.9756097560975611,16.28048780487805,5.0,1.1083984375,0.0830078125,-1.134765625
806,2.656,IMU2,-2.9268292682926833,18.04878048780488,4.390243902439025,1.11328125,0.0791015625,-1.1748046875
807,2.666,IMU0,-0.9146341463414634,11.28048780487805,7.317073170731708,1.123046875,0.0810546875,-1.1572265625
808,2.666,IMU1,1.9512195121951221,9.51219512195122,7.560975609756098,1.10546875,0.1005859375,-1.1591796875
809,2.666,IMU2,0.0,10.609756097560977,7.01219512195122,1.1015625,0.0791015625,-1.1416015625
810,2.676,IMU0,1.4634146341463417,8.292682926829269,8.353658536585366,1.146484375,0.0703125,-1.1279296875
811,2.676,IMU1,3.780487804878049,7.134146341463415,8.597560975609756,1.123046875,0.0888671875,-1.0986328125
812,2.676,IMU2,3.048780487804878,7.621951219512196,7.926829268292684,1.126953125,0.0625,-1.11328125
813,2.686,IMU0,-0.48780487804878053,2.7439024390243905,5.975609756097562,1.083984375,0.0634765625,-1.1123046875
814,2.686,IMU1,2.5,1.4634146341463417,6.158536585365854,1.0693359375,0.087890625,-1.1220703125
815,2.686,IMU2,0.48780487804878053,2.682926829268293,5.731707317073171,1.0751953125,0.0556640625,-1.09765625
816,2.696,IMU0,1.8902439024390245,3.8414634146341466,6.951219512195123,1.0703125,0.0380859375,-1.1875
817,2.696,IMU1,3.963414634146342,2.439024390243903,7.317073170731708,1.048828125,0.05859375,-1.1767578125
818,2.696,IMU2,2.682926829268293,3.963414634146342,6.585365853658537,1.0390625,0.0234375,-1.138671875
819,2.706,IMU0,3.5975609756097566,9.451219512195122,6.7682926829268295,1.060546875,0.052734375,-1.1298828125
820,2.706,IMU1,5.670731707317073,8.170731707317074,7.134146341463415,1.0458984375,0.0693359375,-1.1044921875
821,2.706,IMU2,4.75609756097561,9.390243902439025,6.646341463414635,1.044921875,0.0498046875,-1.1767578125
822,2.716,IMU0,0.7317073170731708,4.695121951219512,3.353658536585366,1.076171875,0.0537109375,-1.220703125
823,2.716,IMU1,2.7439024390243905,3.536585365853659,3.7195121951219514,1.0595703125,0.068359375,-1.2333984375
824,2.716,IMU2,1.829268292682927,4.939024390243903,2.987804878048781,1.052734375,0.064453125,-1.1962890625
825,2.726,IMU0,2.439024390243903,8.292682926829269,4.146341463414634,1.0712890625,0.06640625,-1.201171875
826,2.726,IMU1,4.451219512195122,7.317073170731708,4.573170731707317,1.0498046875,0.083984375,-1.1796875
827,2.726,IMU2,4.329268292682928,7.682926829268293,3.9024390243902443,1.046875,0.056640625,-1.169921875
828,2.736,IMU0,1.402439024390244,11.341463414634147,0.426829268292683,1.048828125,0.078125,-1.240234375
829,2.736,IMU1,3.5975609756097566,10.30487804878049,0.853658536585366,1.0283203125,0.0986328125,-1.25
830,2.736,IMU2,2.987804878048781,12.439024390243903,0.06097560975609757,1.0234375,0.0830078125,-1.2548828125
831,2.746,IMU0,-0.426829268292683,11.097560975609756,-2.25609756097561,1.1259765625,0.146484375,-1.248046875
832,2.746,IMU1,2.9268292682926833,10.121951219512196,-2.0121951219512195,1.1083984375,0.1640625,-1.2294921875
833,2.746,IMU2,1.0365853658536586,10.365853658536587,-2.6219512195121952,1.099609375,0.150390625,-1.2060546875
834,2.756,IMU0,2.3170731707317076,7.439024390243903,5.609756097560976,0.9658203125,0.2275390625,-1.1015625
835,2.756,IMU1,5.365853658536586,7.317073170731708,5.487804878048781,0.9619140625,0.244140625,-1.0986328125
836,2.756,IMU2,3.780487804878049,7.621951219512196,5.670731707317073,0.953125,0.2333984375,-1.140625
837,2.766,IMU0,4.085365853658537,5.548780487804878,9.878048780487806,0.6298828125,0.2353515625,-1.0986328125
838,2.766,IMU1,7.01219512195122,4.634146341463415,10.0,0.62109375,0.244140625,-1.0869140625
839,2.766,IMU2,5.670731707317073,7.134146341463415,9.756097560975611,0.59765625,0.2265625,-1.091796875
840,2.776,IMU0,6.7682926829268295,11.646341463414634,7.926829268292684,0.240234375,0.28125,-0.9208984375
841,2.776,IMU1,9.573170731707318,11.036585365853659,8.170731707317074,0.2275390625,0.279296875,-0.9365234375
842,2.776,IMU2,8.048780487804878,12.439024390243903,7.621951219512196,0.19921875,0.2763671875,-0.8583984375
843,2.786,IMU0,13.414634146341465,17.865853658536587,11.28048780487805,-0.1357421875,0.2998046875,-0.646484375
844,2.786,IMU1,15.914634146341465,16.951219512195124,11.463414634146343,-0.1337890625,0.30078125,-0.640625
845,2.786,IMU2,14.51219512195122,18.719512195121954,11.585365853658537,-0.1494140625,0.2783203125,-0.681640625
846,2.796,IMU0,18.353658536585368,11.829268292682928,16.402439024390244,-0.3525390625,0.2978515625,-0.6826171875
847,2.796,IMU1,21.28048780487805,10.914634146341465,16.646341463414636,-0.3525390625,0.2958984375,-0.6591796875
848,2.796,IMU2,19.878048780487806,12.926829268292684,16.52439024390244,-0.3701171875,0.3173828125,-0.66015625
849,2.806,IMU0,20.60975609756098,8.170731707317074,20.48780487804878,-0.5947265625,0.3662109375,-0.572265625
850,2.806,IMU1,23.475609756097562,7.865853658536586,20.914634146341466,-0.5966796875,0.353515625,-0.576171875
851,2.806,IMU2,21.890243902439025,9.085365853658537,20.426829268292686,-0.6337890625,0.36328125,-0.4931640625
852,2.816,IMU0,19.939024390243905,14.695121951219514,26.34146341463415,-0.99609375,0.4580078125,-0.3359375
853,2.816,IMU1,22.5609756097561,15.426829268292684,28.53658536585366,-0.966796875,0.458984375,-0.328125
854,2.816,IMU2,21.34146341463415,16.097560975609756,27.31707317073171,-0.9892578125,0.46875,-0.3212890625
855,2.826,IMU0,24.207317073170735,19.573170731707318,63.23170731707317,-1.388671875,0.4814453125,-0.068359375
856,2.826,IMU1,27.439024390243905,17.682926829268293,66.76829268292684,-1.365234375,0.4697265625,-0.0791015625
857,2.826,IMU2,26.09756097560976,19.085365853658537,65.2439024390244,-1.3291015625,0.4794921875,-0.1015625
858,2.836,IMU0,39.268292682926834,14.756097560975611,96.15853658536587,-1.544921875,0.615234375,-0.0732421875
859,2.836,IMU1,44.146341463414636,14.146341463414636,98.96341463414635,-1.517578125,0.6416015625,-0.0810546875
860,2.836,IMU2,42.13414634146342,14.878048780487806,97.7439024390244,-1.494140625,0.6484375,-0.111328125
861,2.846,IMU0,70.1829268292683,27.987804878048784,132.25609756097563,-1.603515625,0.896484375,-0.1708984375
862,2.846,IMU1,76.09756097560977,31.58536585365854,136.58536585365854,-1.5791015625,0.9111328125,-0.2275390625
863,2.846,IMU2,74.20731707317074,30.792682926829272,135.2439024390244,-1.529296875,0.9228515625,-0.28515625
864,2.856,IMU0,109.93902439024392,64.69512195121952,176.70731707317074,-1.7041015625,0.9638671875,-0.0400390625
865,2.856,IMU1,116.15853658536587,67.43902439024392,180.2439024390244,-1.6748046875,0.9716796875,-0.0517578125
866,2.856,IMU2,114.51219512195122,66.34146341463415,179.45121951219514,-1.6435546875,0.9892578125,-0.1162109375
867,2.866,IMU0,152.9878048780488,94.87804878048782,215.18292682926833,-1.7119140625,1.00390625,-0.123046875
868,2.866,IMU1,158.71951219512198,99.26829268292684,219.57317073170734,-1.677734375,1.0078125,-0.166015625
869,2.866,IMU2,157.8048780487805,97.37804878048782,218.90243902439028,-1.64453125,1.0322265625,-0.2197265625
870,2.876,IMU0,190.7926829268293,140.1219512195122,254.93902439024393,-1.6806640625,0.912109375,-0.150390625
871,2.876,IMU1,195.5487804878049,146.34146341463415,259.20731707317077,-1.6494140625,0.9033203125,-0.2021484375
872,2.876,IMU2,195.4268292682927,143.84146341463415,258.9024390243903,-1.6240234375,0.9365234375,-0.24609375
873,2.886,IMU0,217.8048780487805,185.1219512195122,287.3780487804878,-1.60546875,0.8154296875,-0.2705078125
874,2.886,IMU1,220.609756097561,191.58536585365854,290.6707317073171,-1.5888671875,0.802734375,-0.291015625
875,2.886,IMU2,221.15853658536588,188.59756097560978,290.7317073170732,-1.5830078125,0.83984375,-0.326171875
876,2.896,IMU0,231.28048780487808,231.95121951219514,299.51219512195127,-1.42578125,0.6220703125,-0.2353515625
877,2.896,IMU1,233.0487804878049,237.9268292682927,301.219512195122,-1.431640625,0.6328125,-0.2294921875
878,2.896,IMU2,234.20731707317074,234.87804878048783,301.70731707317077,-1.453125,0.6708984375,-0.2607421875
879,2.906,IMU0,233.78048780487808,253.65853658536588,295.4268292682927,-1.2353515625,0.47265625,-0.193359375
880,2.906,IMU1,234.08536585365854,258.109756097561,296.0975609756098,-1.2568359375,0.5078125,-0.212890625
881,2.906,IMU2,235.609756097561,255.3658536585366,296.70731707317077,-1.2939453125,0.5419921875,-0.224609375
882,2.916,IMU0,230.24390243902442,265.8536585365854,280.8536585365854,-1.0986328125,0.4775390625,-0.2021484375
883,2.916,IMU1,230.00000000000003,269.69512195121956,281.4024390243903,-1.123046875,0.5087890625,-0.205078125
884,2.916,IMU2,231.70731707317074,267.13414634146346,282.07317073170736,-1.158203125,0.5380859375,-0.2138671875
885,2.926,IMU0,225.3048780487805,272.19512195121956,266.5243902439025,-0.9814453125,0.4736328125,-0.2373046875
886,2.926,IMU1,224.57317073170734,276.4634146341464,267.07317073170736,-1.0068359375,0.484375,-0.25390625
887,2.926,IMU2,226.46341463414637,273.9634146341464,267.7439024390244,-1.0439453125,0.5107421875,-0.2626953125
888,2.936,IMU0,214.93902439024393,273.4146341463415,252.8658536585366,-0.8603515625,0.47265625,-0.2275390625
889,2.936,IMU1,213.96341463414635,275.3658536585366,253.78048780487808,-0.876953125,0.49609375,-0.2041015625
890,2.936,IMU2,215.85365853658539,273.109756097561,254.39024390243904,-0.908203125,0.5185546875,-0.2138671875
891,2.946,IMU0,205.609756097561,263.4756097560976,243.2926829268293,-0.763671875,0.4931640625,-0.330078125
892,2.946,IMU1,205.7317073170732,266.0365853658537,245.18292682926833,-0.7861328125,0.5048828125,-0.33203125
893,2.946,IMU2,207.50000000000003,263.9024390243903,245.7317073170732,-0.8095703125,0.5244140625,-0.3427734375
894,2.956,IMU0,197.01219512195124,267.8658536585366,235.85365853658539,-0.7060546875,0.5830078125,-0.35546875
895,2.956,IMU1,196.89024390243904,270.4268292682927,237.74390243902442,-0.71484375,0.6015625,-0.3583984375
896,2.956,IMU2,198.84146341463418,268.4756097560976,238.1707317073171,-0.7333984375,0.6181640625,-0.373046875
897,2.966,IMU0,194.45121951219514,269.0853658536586,239.45121951219514,-0.67578125,0.685546875,-0.3505859375
898,2.966,IMU1,194.20731707317074,271.5853658536586,240.97560975609758,-0.68359375,0.701171875,-0.3505859375
899,2.966,IMU2,196.09756097560978,269.69512195121956,241.58536585365854,-0.685546875,0.716796875,-0.3701171875
900,2.976,IMU0,197.6829268292683,274.1463414634147,256.70731707317077,-0.59765625,0.8212890625,-0.3642578125
901,2.976,IMU1,197.37804878048783,276.5853658536586,258.0487804878049,-0.5908203125,0.83984375,-0.37890625
902,2.976,IMU2,199.32926829268294,274.75609756097566,258.8414634146342,-0.57421875,0.857421875,-0.408203125
903,2.986,IMU0,209.93902439024393,282.8658536585366,287.25609756097566,-0.5478515625,0.84375,-0.3896484375
904,2.986,IMU1,210.00000000000003,285.6707317073171,288.5365853658537,-0.5419921875,0.8662109375,-0.408203125
905,2.986,IMU2,212.01219512195124,283.4756097560976,289.51219512195127,-0.5166015625,0.888671875,-0.447265625
906,2.996,IMU0,221.46341463414637,293.5365853658537,314.39024390243907,-0.474609375,0.6484375,-0.322265625
907,2.996,IMU1,221.40243902439028,296.4024390243903,315.7317073170732,-0.474609375,0.6796875,-0.337890625
908,2.996,IMU2,223.59756097560978,294.0853658536586,316.70731707317077,-0.470703125,0.7021484375,-0.373046875
909,3.006,IMU0,233.1707317073171,297.7439024390244,328.9634146341464,-0.1337890625,0.669921875,-0.2998046875
910,3.006,IMU1,232.8658536585366,301.219512195122,330.4268292682927,-0.1455078125,0.7041015625,-0.32421875
911,3.006,IMU2,235.06097560975613,298.3536585365854,331.4634146341464,-0.1337890625,0.7314453125,-0.359375
912,3.016,IMU0,244.32926829268294,285.0,362.7439024390244,0.4658203125,0.859375,-0.49609375
913,3.016,IMU1,244.45121951219514,288.9024390243903,363.6585365853659,0.4814453125,0.9052734375,-0.525390625
914,3.016,IMU2,246.28048780487808,285.5487804878049,365.3658536585366,0.5419921875,0.93359375,-0.57421875
915,3.026,IMU0,270.3658536585366,256.2804878048781,424.57317073170736,0.73046875,0.7890625,-0.51171875
916,3.026,IMU1,271.5853658536586,260.1829268292683,425.06097560975616,0.763671875,0.8564453125,-0.5546875
917,3.026,IMU2,273.3536585365854,256.5243902439025,427.19512195121956,0.8232421875,0.8876953125,-0.6044921875
918,3.036,IMU0,293.9634146341464,225.6707317073171,486.6463414634147,1.013671875,0.8447265625,-0.5244140625
919,3.036,IMU1,295.9146341463415,230.3048780487805,486.89024390243907,1.0576171875,0.9267578125,-0.57421875
920,3.036,IMU2,297.01219512195127,225.5487804878049,489.39024390243907,1.130859375,0.97265625,-0.6064453125
921,3.046,IMU0,322.9878048780488,175.1219512195122,563.7804878048781,1.072265625,0.7626953125,-0.5205078125
922,3.046,IMU1,326.5243902439025,179.75609756097563,563.5975609756098,1.125,0.87109375,-0.56640625
923,3.046,IMU2,327.13414634146346,174.81707317073173,566.5243902439025,1.189453125,0.9267578125,-0.607421875
924,3.056,IMU0,340.3048780487805,134.51219512195124,617.5609756097562,0.9501953125,0.5146484375,-0.3955078125
925,3.056,IMU1,344.81707317073176,139.63414634146343,617.6219512195122,0.9609375,0.6318359375,-0.41796875
926,3.056,IMU2,344.26829268292687,133.71951219512195,619.5731707317074,0.9990234375,0.7109375,-0.4423828125
927,3.066,IMU0,353.7804878048781,91.95121951219512,646.8902439024391,0.78125,0.349609375,-0.43359375
928,3.066,IMU1,359.26829268292687,96.95121951219512,646.9512195121952,0.7802734375,0.474609375,-0.4521484375
929,3.066,IMU2,358.2926829268293,91.34146341463415,648.5975609756098,0.7919921875,0.5595703125,-0.4609375
930,3.076,IMU0,363.0487804878049,71.03658536585367,665.4878048780488,0.6708984375,0.275390625,-0.447265625
931,3.076,IMU1,369.1463414634147,75.91463414634147,665.4268292682927,0.6728515625,0.4052734375,-0.453125
932,3.076,IMU2,367.8658536585366,70.60975609756098,667.1341463414635,0.69140625,0.490234375,-0.46875
933,3.086,IMU0,370.7926829268293,52.987804878048784,677.8048780487806,0.5986328125,0.197265625,-0.34765625
934,3.086,IMU1,377.01219512195127,57.743902439024396,677.8658536585366,0.5888671875,0.326171875,-0.357421875
935,3.086,IMU2,375.5487804878049,52.31707317073171,679.1463414634147,0.5830078125,0.4248046875,-0.36328125
936,3.096,IMU0,376.4634146341464,34.87804878048781,682.439024390244,0.4931640625,0.1455078125,-0.4169921875
937,3.096,IMU1,383.0487804878049,39.51219512195122,682.5000000000001,0.48828125,0.2783203125,-0.4169921875
938,3.096,IMU2,381.2804878048781,34.57317073170732,683.7804878048781,0.48046875,0.37109375,-0.443359375
939,3.106,IMU0,385.6707317073171,29.39024390243903,689.329268292683,0.4052734375,0.08984375,-0.3486328125
940,3.106,IMU1,392.37804878048786,34.024390243902445,689.3902439024391,0.4013671875,0.22265625,-0.359375
941,3.106,IMU2,390.7317073170732,28.780487804878053,690.7926829268293,0.3984375,0.3251953125,-0.3837890625
942,3.116,IMU0,394.1463414634147,21.34146341463415,691.5243902439025,0.3857421875,-0.00390625,-0.373046875
943,3.116,IMU1,401.0975609756098,26.09756097560976,691.5853658536586,0.3779296875,0.1337890625,-0.373046875
944,3.116,IMU2,399.26829268292687,20.79268292682927,692.9878048780488,0.3759765625,0.2294921875,-0.3798828125
945,3.126,IMU0,400.3048780487805,13.170731707317074,692.0121951219513,0.294921875,-0.09765625,-0.30859375
946,3.126,IMU1,407.37804878048786,17.865853658536587,692.1341463414635,0.2890625,0.0341796875,-0.3125
947,3.126,IMU2,405.24390243902445,12.500000000000002,693.2317073170732,0.2705078125,0.1513671875,-0.3212890625
948,3.136,IMU0,404.1463414634147,13.536585365853659,692.1341463414635,0.2021484375,-0.17578125,-0.3232421875
949,3.136,IMU1,411.2804878048781,18.10975609756098,692.2560975609757,0.201171875,-0.0390625,-0.328125
950,3.136,IMU2,409.26829268292687,13.231707317073171,693.5975609756098,0.1962890625,0.056640625,-0.3310546875
951,3.146,IMU0,407.8658536585366,11.28048780487805,692.8658536585366,0.234375,-0.322265625,-0.2646484375
952,3.146,IMU1,415.06097560975616,16.219512195121954,692.9878048780488,0.2275390625,-0.185546875,-0.25390625
953,3.146,IMU2,412.62195121951225,10.487804878048781,694.1463414634147,0.2080078125,-0.083984375,-0.251953125
954,3.156,IMU0,402.50000000000006,-3.8414634146341466,686.4634146341464,0.203125,-0.365234375,-0.236328125
955,3.156,IMU1,409.93902439024396,0.9756097560975611,686.6463414634147,0.19921875,-0.2314453125,-0.2216796875
956,3.156,IMU2,406.95121951219517,-5.0,687.5000000000001,0.1650390625,-0.1337890625,-0.2236328125
957,3.166,IMU0,397.68292682926835,-15.182926829268293,680.1829268292684,0.1025390625,-0.3779296875,-0.2314453125
958,3.166,IMU1,409.93902439024396,0.9756097560975611,686.6463414634147,0.19921875,-0.2314453125,-0.2216796875
959,3.166,IMU2,402.37804878048786,-16.097560975609756,681.4024390243903,0.0859375,-0.1494140625,-0.2255859375
960,3.176,IMU0,395.8536585365854,-21.097560975609756,682.9878048780488,-0.060546875,-0.4150390625,-0.17578125
961,3.176,IMU1,403.5975609756098,-16.585365853658537,682.9268292682927,-0.0517578125,-0.2900390625,-0.166015625
962,3.176,IMU2,400.7317073170732,-21.585365853658537,684.3902439024391,-0.0615234375,-0.1767578125,-0.158203125
963,3.186,IMU0,394.1463414634147,-29.81707317073171,686.3414634146342,-0.2412109375,-0.419921875,-0.16015625
964,3.186,IMU1,401.95121951219517,-25.48780487804878,686.1585365853659,-0.228515625,-0.2958984375,-0.1474609375
965,3.186,IMU2,399.20731707317077,-30.30487804878049,687.6219512195122,-0.2490234375,-0.1767578125,-0.146484375
966,3.196,IMU0,394.75609756097566,-29.81707317073171,690.8536585365854,-0.3876953125,-0.392578125,-0.1201171875
967,3.196,IMU1,402.62195121951225,-25.54878048780488,690.7317073170732,-0.3701171875,-0.265625,-0.111328125
968,3.196,IMU2,399.93902439024396,-29.939024390243905,692.3780487804879,-0.3818359375,-0.162109375,-0.1044921875
969,3.206,IMU0,395.8536585365854,-29.87804878048781,696.829268292683,-0.533203125,-0.4111328125,-0.0166015625
970,3.206,IMU1,403.719512195122,-25.426829268292686,696.7682926829269,-0.5234375,-0.2890625,-0.00390625
971,3.206,IMU2,401.0365853658537,-30.731707317073173,697.9268292682927,-0.53515625,-0.1748046875,-0.01953125
972,3.216,IMU0,395.3658536585366,-31.03658536585366,699.3902439024391,-0.654296875,-0.4697265625,0.021484375
973,3.216,IMU1,403.2317073170732,-26.707317073170735,699.2682926829269,-0.6416015625,-0.3486328125,0.037109375
974,3.216,IMU2,400.24390243902445,-31.402439024390247,700.3658536585366,-0.6689453125,-0.2265625,0.044921875
975,3.226,IMU0,393.2926829268293,-32.743902439024396,697.0731707317074,-0.7607421875,-0.51953125,0.0595703125
976,3.226,IMU1,401.3414634146342,-28.414634146341466,696.8902439024391,-0.7470703125,-0.3974609375,0.0791015625
977,3.226,IMU2,397.9268292682927,-33.47560975609756,697.9268292682927,-0.7763671875,-0.2890625,0.0859375
978,3.236,IMU0,386.4634146341464,-34.390243902439025,695.0000000000001,-0.8369140625,-0.5888671875,0.1015625
979,3.236,IMU1,394.45121951219517,-30.243902439024392,694.939024390244,-0.82421875,-0.47265625,0.1220703125
980,3.236,IMU2,390.9756097560976,-34.69512195121951,695.7926829268293,-0.8525390625,-0.3564453125,0.1376953125
981,3.246,IMU0,376.3414634146342,-38.53658536585366,692.3780487804879,-0.875,-0.572265625,0.1044921875
982,3.246,IMU1,384.39024390243907,-34.32926829268293,692.2560975609757,-0.8671875,-0.4599609375,0.1259765625
983,3.246,IMU2,380.8536585365854,-39.451219512195124,692.9878048780488,-0.888671875,-0.341796875,0.1318359375
984,3.256,IMU0,366.219512195122,-44.024390243902445,691.5243902439025,-0.927734375,-0.6240234375,0.109375
985,3.256,IMU1,374.51219512195127,-40.0609756097561,691.1585365853659,-0.9140625,-0.5126953125,0.140625
986,3.256,IMU2,370.2439024390244,-44.63414634146342,692.1951219512196,-0.9365234375,-0.3935546875,0.146484375
987,3.266,IMU0,354.0243902439025,-49.69512195121952,690.3658536585366,-0.9609375,-0.60546875,0.1044921875
988,3.266,IMU1,362.50000000000006,-45.79268292682927,689.939024390244,-0.94921875,-0.4931640625,0.1376953125
989,3.266,IMU2,358.109756097561,-51.28048780487806,690.7317073170732,-0.966796875,-0.3876953125,0.1337890625
990,3.276,IMU0,343.0487804878049,-55.365853658536594,687.8048780487806,-0.9814453125,-0.5830078125,0.0322265625
991,3.276,IMU1,351.4024390243903,-51.82926829268293,687.2560975609757,-0.966796875,-0.4765625,0.0625
992,3.276,IMU2,347.25609756097566,-55.85365853658537,688.109756097561,-0.98828125,-0.3544921875,0.076171875
993,3.286,IMU0,330.9146341463415,-55.73170731707317,686.5243902439025,-0.9609375,-0.5302734375,0.0068359375
994,3.286,IMU1,339.51219512195127,-52.13414634146342,685.9756097560976,-0.951171875,-0.427734375,0.0390625
995,3.286,IMU2,335.00000000000006,-56.89024390243903,686.5853658536586,-0.9599609375,-0.3125,0.03515625
996,3.296,IMU0,318.9024390243903,-54.63414634146342,683.8414634146342,-0.9443359375,-0.5166015625,-0.091796875
997,3.296,IMU1,327.43902439024396,-51.585365853658544,683.048780487805,-0.9267578125,-0.412109375,-0.0615234375
998,3.296,IMU2,323.2926829268293,-54.69512195121952,684.0243902439025,-0.9697265625,-0.310546875,-0.05078125
999,3.306,IMU0,307.7439024390244,-48.90243902439025,684.6341463414635,-0.8876953125,-0.3994140625,-0.1875
1000,3.306,IMU1,316.0975609756098,-45.97560975609756,683.7804878048781,-0.8759765625,-0.2939453125,-0.158203125
1001,3.306,IMU2,311.95121951219517,-48.23170731707317,684.939024390244,-0.8896484375,-0.20703125,-0.1474609375
1002,3.316,IMU0,299.1463414634147,-43.04878048780488,688.109756097561,-0.8662109375,-0.3505859375,-0.1845703125
1003,3.316,IMU1,307.4390243902439,-40.0,687.1341463414635,-0.8515625,-0.2451171875,-0.158203125
1004,3.316,IMU2,303.7804878048781,-43.65853658536586,688.4756097560976,-0.8583984375,-0.150390625,-0.1875
1005,3.326,IMU0,292.07317073170736,-37.987804878048784,693.048780487805,-0.8076171875,-0.28125,-0.2216796875
1006,3.326,IMU1,300.3658536585366,-35.1829268292683,691.9512195121952,-0.79296875,-0.1767578125,-0.2080078125
1007,3.326,IMU2,296.76829268292687,-37.31707317073171,693.2926829268293,-0.822265625,-0.0634765625,-0.1865234375
1008,3.336,IMU0,287.31707317073176,-32.01219512195122,699.2682926829269,-0.8330078125,-0.1708984375,-0.181640625
1009,3.336,IMU1,295.3658536585366,-29.08536585365854,698.109756097561,-0.81640625,-0.0703125,-0.162109375
1010,3.336,IMU2,291.82926829268297,-32.6219512195122,699.7560975609757,-0.8271484375,0.0625,-0.158203125
1011,3.346,IMU0,283.5365853658537,-24.390243902439025,710.3048780487806,-0.83984375,-0.0478515625,-0.166015625
1012,3.346,IMU1,290.9756097560976,-21.03658536585366,710.4878048780488,-0.818359375,0.0595703125,-0.14453125
1013,3.346,IMU2,287.9268292682927,-24.878048780487806,711.4024390243903,-0.8115234375,0.1767578125,-0.138671875
1014,3.356,IMU0,275.3048780487805,-23.84146341463415,722.1341463414635,-0.775390625,-0.02734375,-0.26171875
1015,3.356,IMU1,283.9024390243903,-21.03658536585366,720.7317073170732,-0.76171875,0.083984375,-0.23046875
1016,3.356,IMU2,279.63414634146346,-23.658536585365855,722.5609756097562,-0.779296875,0.1884765625,-0.205078125
1017,3.366,IMU0,262.2560975609756,-18.78048780487805,730.2439024390245,-0.775390625,-0.029296875,-0.2724609375
1018,3.366,IMU1,269.26829268292687,-14.878048780487806,729.3902439024391,-0.765625,0.08203125,-0.251953125
1019,3.366,IMU2,266.1585365853659,-18.414634146341466,730.2439024390245,-0.779296875,0.197265625,-0.205078125
1020,3.376,IMU0,240.97560975609758,-3.231707317073171,726.6463414634147,-0.759765625,-0.3115234375,-0.3701171875
1021,3.376,IMU1,246.03658536585368,0.9756097560975611,723.4756097560976,-0.779296875,-0.197265625,-0.3173828125
1022,3.376,IMU2,243.1707317073171,-2.0121951219512195,724.0853658536586,-0.81640625,-0.091796875,-0.28515625
1023,3.386,IMU0,194.45121951219514,32.37804878048781,680.8536585365854,-0.5732421875,-0.5537109375,-0.5693359375
1024,3.386,IMU1,197.50000000000003,37.07317073170732,672.8048780487806,-0.6162109375,-0.4423828125,-0.5576171875
1025,3.386,IMU2,195.00000000000003,34.81707317073171,672.8048780487806,-0.71484375,-0.3466796875,-0.5205078125
1026,3.396,IMU0,147.8658536585366,56.82926829268293,614.8170731707318,-0.11328125,-0.13671875,-0.54296875
1027,3.396,IMU1,151.09756097560978,57.926829268292686,610.1219512195122,-0.1318359375,-0.017578125,-0.5087890625
1028,3.396,IMU2,148.84146341463415,55.91463414634147,610.4268292682927,-0.208984375,0.0126953125,-0.470703125
1029,3.406,IMU0,123.17073170731709,54.57317073170732,596.829268292683,-0.09375,-0.0849609375,-0.6083984375
1030,3.406,IMU1,127.8048780487805,57.19512195121952,594.939024390244,-0.0966796875,-0.0205078125,-0.5859375
1031,3.406,IMU2,125.67073170731709,56.03658536585366,595.4268292682927,-0.11328125,0.04296875,-0.578125
1032,3.416,IMU0,105.42682926829269,91.34146341463415,571.4634146341464,0.1396484375,-0.2626953125,-0.771484375
1033,3.416,IMU1,109.51219512195122,94.75609756097562,564.7560975609756,0.107421875,-0.197265625,-0.74609375
1034,3.416,IMU2,107.7439024390244,93.90243902439025,564.2073170731708,-0.01171875,-0.1376953125,-0.744140625
1035,3.426,IMU0,69.14634146341464,100.1829268292683,492.86585365853665,0.728515625,-0.3134765625,-0.828125
1036,3.426,IMU1,69.75609756097562,99.45121951219512,484.0243902439025,0.666015625,-0.2236328125,-0.7939453125
1037,3.426,IMU2,67.5609756097561,98.47560975609757,482.74390243902445,0.5205078125,-0.2177734375,-0.7373046875
1038,3.436,IMU0,39.451219512195124,89.69512195121952,418.3536585365854,0.9296875,0.021484375,-0.669921875
1039,3.436,IMU1,43.41463414634147,87.98780487804879,412.68292682926835,0.8837890625,0.0849609375,-0.693359375
1040,3.436,IMU2,42.926829268292686,89.20731707317074,417.07317073170736,0.798828125,0.0908203125,-0.6591796875
1041,3.446,IMU0,25.914634146341466,77.7439024390244,367.62195121951225,1.1669921875,-0.0126953125,-0.6435546875
1042,3.446,IMU1,28.658536585365855,73.10975609756098,361.6463414634147,1.103515625,0.0654296875,-0.60546875
1043,3.446,IMU2,26.82926829268293,71.89024390243902,360.3658536585366,1.0224609375,0.0419921875,-0.603515625
1044,3.456,IMU0,1.6463414634146343,33.47560975609756,311.2804878048781,1.05859375,0.060546875,-0.619140625
1045,3.456,IMU1,4.451219512195122,30.0609756097561,305.6707317073171,0.98046875,0.1025390625,-0.603515625
1046,3.456,IMU2,4.451219512195122,32.926829268292686,309.51219512195127,0.931640625,0.0986328125,-0.5732421875
1047,3.466,IMU0,-15.54878048780488,18.902439024390244,271.1585365853659,0.912109375,0.107421875,-0.62109375
1048,3.466,IMU1,-12.926829268292684,17.195121951219512,267.25609756097566,0.83984375,0.123046875,-0.5693359375
1049,3.466,IMU2,-15.243902439024392,17.865853658536587,266.219512195122,0.822265625,0.1337890625,-0.5634765625
1050,3.476,IMU0,-37.13414634146342,-1.2195121951219514,234.81707317073173,0.7939453125,0.1748046875,-0.548828125
1051,3.476,IMU1,-34.146341463414636,-4.817073170731708,230.3048780487805,0.7353515625,0.1943359375,-0.5380859375
1052,3.476,IMU2,-34.69512195121951,-1.829268292682927,232.68292682926833,0.69921875,0.1982421875,-0.5009765625
1053,3.486,IMU0,-58.84146341463415,-9.939024390243903,197.6829268292683,0.638671875,0.189453125,-0.5361328125
1054,3.486,IMU1,-54.32926829268293,-11.890243902439025,196.82926829268294,0.578125,0.2353515625,-0.4892578125
1055,3.486,IMU2,-55.1219512195122,-9.634146341463415,198.53658536585368,0.5517578125,0.2109375,-0.482421875
1056,3.496,IMU0,-70.1219512195122,-15.426829268292684,175.97560975609758,0.5361328125,0.2734375,-0.4677734375
1057,3.496,IMU1,-67.19512195121952,-17.378048780487806,173.2317073170732,0.484375,0.2705078125,-0.439453125
1058,3.496,IMU2,-68.17073170731707,-15.670731707317074,173.90243902439025,0.478515625,0.28125,-0.4365234375
1059,3.506,IMU0,-80.60975609756099,-15.853658536585368,154.69512195121953,0.4111328125,0.27734375,-0.4580078125
1060,3.506,IMU1,-76.28048780487805,-18.10975609756098,153.65853658536588,0.380859375,0.291015625,-0.4365234375
1061,3.506,IMU2,-77.5,-15.731707317073171,154.26829268292684,0.357421875,0.2666015625,-0.4208984375
1062,3.516,IMU0,-88.47560975609757,-14.329268292682928,139.14634146341464,0.37109375,0.3125,-0.37890625
1063,3.516,IMU1,-84.39024390243902,-16.82926829268293,138.109756097561,0.330078125,0.3125,-0.3623046875
1064,3.516,IMU2,-85.85365853658537,-14.756097560975611,138.41463414634148,0.3203125,0.3125,-0.3515625
1065,3.526,IMU0,-93.41463414634147,-13.963414634146343,125.48780487804879,0.30859375,0.2822265625,-0.3515625
1066,3.526,IMU1,-89.57317073170732,-16.52439024390244,124.45121951219514,0.2861328125,0.2998046875,-0.3310546875
1067,3.526,IMU2,-91.15853658536587,-14.085365853658537,124.63414634146342,0.2705078125,0.2939453125,-0.328125
1068,3.536,IMU0,-98.29268292682927,-12.01219512195122,112.31707317073172,0.2265625,0.3330078125,-0.3095703125
1069,3.536,IMU1,-94.57317073170732,-14.51219512195122,111.28048780487806,0.201171875,0.3466796875,-0.2978515625
1070,3.536,IMU2,-96.28048780487806,-11.890243902439025,111.58536585365854,0.18359375,0.330078125,-0.296875
1071,3.546,IMU0,-98.71951219512196,-10.121951219512196,101.40243902439025,0.2080078125,0.365234375,-0.2724609375
1072,3.546,IMU1,-95.2439024390244,-12.74390243902439,100.3658536585366,0.1865234375,0.3818359375,-0.2578125
1073,3.546,IMU2,-96.95121951219512,-10.487804878048781,100.3658536585366,0.16796875,0.37109375,-0.26953125
1074,3.556,IMU0,-98.10975609756099,-7.01219512195122,93.35365853658537,0.1796875,0.3662109375,-0.2451171875
1075,3.556,IMU1,-94.75609756097562,-9.634146341463415,92.25609756097562,0.1630859375,0.3798828125,-0.2353515625
1076,3.556,IMU2,-96.58536585365854,-7.378048780487806,92.07317073170732,0.1474609375,0.369140625,-0.2509765625
1077,3.566,IMU0,-95.3658536585366,-6.707317073170732,83.41463414634147,0.171875,0.3564453125,-0.1875
1078,3.566,IMU1,-92.01219512195122,-9.207317073170733,82.5609756097561,0.1494140625,0.3720703125,-0.18359375
1079,3.566,IMU2,-93.96341463414635,-6.646341463414635,82.6219512195122,0.13671875,0.365234375,-0.193359375
1080,3.576,IMU0,-91.40243902439025,-10.24390243902439,70.42682926829269,0.1669921875,0.3759765625,-0.16796875
1081,3.576,IMU1,-88.29268292682927,-12.74390243902439,69.75609756097562,0.1376953125,0.388671875,-0.16796875
1082,3.576,IMU2,-90.3658536585366,-10.30487804878049,69.87804878048782,0.107421875,0.3759765625,-0.1796875
1083,3.586,IMU0,-84.20731707317074,-7.987804878048781,56.21951219512196,0.1279296875,0.3251953125,-0.1298828125
1084,3.586,IMU1,-81.15853658536587,-10.30487804878049,55.60975609756098,0.1025390625,0.337890625,-0.125
1085,3.586,IMU2,-82.92682926829269,-7.743902439024391,55.54878048780488,0.0791015625,0.326171875,-0.134765625
1086,3.596,IMU0,-82.13414634146342,-12.195121951219512,41.15853658536586,0.1103515625,0.3193359375,-0.1416015625
1087,3.596,IMU1,-79.08536585365854,-14.573170731707318,40.670731707317074,0.0888671875,0.3291015625,-0.1298828125
1088,3.596,IMU2,-80.73170731707317,-11.951219512195124,40.426829268292686,0.068359375,0.3125,-0.1318359375
1089,3.606,IMU0,-75.97560975609757,-13.353658536585368,26.646341463414636,0.111328125,0.41796875,-0.0869140625
1090,3.606,IMU1,-73.41463414634147,-15.731707317073171,26.28048780487805,0.0888671875,0.4267578125,-0.1005859375
1091,3.606,IMU2,-75.48780487804879,-13.29268292682927,26.09756097560976,0.0693359375,0.412109375,-0.126953125
1092,3.616,IMU0,-57.43902439024391,-13.231707317073171,16.219512195121954,0.1455078125,0.4560546875,-0.1513671875
1093,3.616,IMU1,-55.00000000000001,-15.487804878048783,15.914634146341465,0.130859375,0.46484375,-0.1611328125
1094,3.616,IMU2,-57.13414634146342,-13.841463414634148,15.426829268292684,0.125,0.4501953125,-0.1865234375
1095,3.626,IMU0,-44.75609756097561,-13.78048780487805,11.341463414634147,0.154296875,0.4287109375,-0.1357421875
1096,3.626,IMU1,-42.25609756097561,-15.426829268292684,11.097560975609756,0.134765625,0.439453125,-0.1357421875
1097,3.626,IMU2,-44.08536585365854,-12.987804878048781,10.731707317073171,0.119140625,0.4287109375,-0.1484375
1098,3.636,IMU0,-35.54878048780488,-15.914634146341465,7.25609756097561,0.1416015625,0.4560546875,-0.123046875
1099,3.636,IMU1,-33.170731707317074,-17.621951219512198,7.134146341463415,0.12890625,0.4677734375,-0.123046875
1100,3.636,IMU2,-35.0609756097561,-15.670731707317074,6.646341463414635,0.123046875,0.4580078125,-0.1455078125
1101,3.646,IMU0,-23.78048780487805,-13.78048780487805,6.219512195121951,0.1640625,0.4619140625,-0.158203125
1102,3.646,IMU1,-21.463414634146343,-15.30487804878049,6.158536585365854,0.1552734375,0.4736328125,-0.16015625
1103,3.646,IMU2,-23.29268292682927,-13.658536585365855,5.548780487804878,0.1552734375,0.46484375,-0.173828125
