,ts,acc_x,acc_y,acc_z
0,22925,-1,-1,0
1,22935,0,-1,0
2,22945,0,-1,0
3,22955,0,-1,0
4,22965,0,-1,0
5,22975,-1,-1,0
6,22985,0,-1,0
7,22995,0,-1,0
8,23005,-1,-1,0
9,23015,0,-1,0
10,23025,-1,-1,0
11,23035,0,-1,0
12,23045,-1,-1,0
13,23055,-1,-1,0
14,23065,0,-1,0
15,23075,0,-1,0
16,23085,-1,-1,0
17,23095,0,-1,0
18,23105,0,-1,0
19,23115,0,-1,0
20,23125,0,-1,0
21,23135,-1,-1,0
22,23145,0,-1,0
23,23155,-1,-1,0
24,23165,0,0,0
25,23175,-1,-1,0
26,23185,-1,-2,0
27,23195,-1,-1,0
28,23205,-1,-1,0
29,23215,-1,-1,0
30,23225,-1,0,0
31,23235,0,-1,0
32,23245,0,-1,0
33,23255,-1,-1,0
34,23265,0,0,0
35,23275,0,0,0
36,23285,-1,-1,0
37,23295,-1,-1,0
38,23305,-1,-1,0
39,23315,-1,-1,0
40,23325,-1,-1,0
41,23335,-1,-1,0
42,23345,-1,-1,0
43,23355,0,-1,0
44,23365,0,-1,0
45,23375,-1,-1,0
46,23385,-1,-1,0
47,23395,0,-1,0
48,23405,0,0,0
49,23415,0,-1,0
50,23425,-1,-1,0
51,23435,-1,-1,0
52,23445,0,-1,0
53,23455,-1,-1,0
54,23465,-1,-1,0
55,23475,0,0,0
56,23485,0,0,0
57,23495,-1,-1,0
58,23505,-1,0,0
59,23515,-1,-1,0
60,23525,-1,-1,0
61,23535,-1,-1,0
62,23545,0,0,0
63,23555,-1,-1,0
64,23565,-1,-1,0
65,23575,0,-1,0
66,23585,-1,-1,0
67,23595,0,-1,0
68,23605,0,-1,0
69,23615,-1,-1,0
70,23625,0,-1,0
71,23635,0,-1,0
72,23645,-1,-1,0
73,23655,-1,-1,0
74,23665,-1,-1,0
75,23675,-1,-1,0
76,23685,-1,-1,0
77,23695,-1,-1,0
78,23705,-1,-1,0
79,23715,-1,-1,0
80,23725,-1,0,0
81,23735,0,-1,0
82,23745,0,-1,0
83,23755,0,-1,0
84,23765,-1,-1,0
85,23775,0,-1,0
86,23785,0,-1,0
87,23795,0,-1,0
88,23805,0,-1,0
89,23815,0,-1,0
90,23825,0,-1,0
91,23835,0,-1,0
92,23845,0,0,0
93,23855,-1,-1,0
94,23865,0,-1,0
95,23875,-1,-1,0
96,23885,0,0,0
97,23895,-1,-1,0
98,23905,0,-1,0
99,23915,0,-1,0
100,23925,-1,-1,0
101,23935,-1,-1,0
102,23945,-1,-1,0
103,23955,0,-1,0
104,23965,-1,-1,0
105,23975,-1,-1,0
106,23985,-1,-1,0
107,23995,0,-1,0
108,24005,0,-1,0
109,24015,-1,-1,0
110,24025,0,-1,0
111,24035,-1,-1,0
112,24045,0,-1,0
113,24055,-1,-1,0
114,24065,-1,-1,0
115,24075,-1,-1,0
116,24085,0,-1,0
117,24095,-1,-1,0
118,24105,0,-1,0
119,24115,0,-1,0
120,24125,0,-1,0
121,24135,-1,-1,0
122,24145,-1,-1,0
123,24155,-1,-1,0
124,24165,0,-1,0
125,24175,-1,-1,0
126,24185,0,-1,0
127,24195,0,-1,0
128,24205,-1,-1,0
129,24215,-1,-1,0
130,24225,-1,-1,0
131,24235,0,-1,0
132,24245,-1,-1,0
133,24255,0,-1,0
134,24265,0,-1,0
135,24275,0,-1,0
136,24285,-1,-1,0
137,24295,0,-1,0
138,24305,0,-1,0
139,24315,0,-1,0
140,24325,0,-1,0
141,24335,-1,-1,0
142,24345,0,-1,0
143,24355,0,-1,0
144,24365,0,-1,0
145,24375,0,-1,0
146,24385,0,-1,0
147,24395,0,-1,0
148,24405,-1,-1,0
149,24415,0,-1,0
150,24425,-1,-1,0
151,24435,-1,-1,0
152,24445,0,-1,0
153,24455,0,-1,0
154,24465,-1,-1,0
155,24475,0,-1,0
156,24485,-1,-1,0
157,24495,0,-1,0
158,24505,0,-1,0
159,24515,0,-1,0
160,24525,0,-1,0
161,24535,0,0,0
162,24545,0,-1,0
163,24555,0,-1,0
164,24565,0,-1,0
165,24575,-1,-1,0
166,24585,-1,-1,0
167,24595,0,-1,0
168,24605,0,-2,0
169,24615,0,-1,0
170,24625,0,-1,0
171,24635,-1,-1,0
172,24645,0,-1,0
173,24655,-1,-1,0
174,24665,-1,-1,0
175,24675,0,0,0
176,24685,0,-1,0
177,24695,0,-1,0
178,24705,0,-1,0
179,24715,-1,-1,0
180,24725,0,-1,0
181,24735,-1,-1,0
182,24745,0,0,0
183,24755,0,-1,0
184,24765,0,-1,0
185,24775,0,-1,0
186,24785,-1,-1,0
187,24795,0,-1,0
188,24805,0,-1,0
189,24815,0,-1,0
190,24825,-1,-1,0
191,24835,0,-1,0
192,24845,0,-1,0
193,24855,-1,-1,0
194,24865,-1,-1,0
195,24875,-1,-1,0
196,24885,-1,0,0
197,24895,0,-1,0
198,24905,-1,-1,0
199,24915,-1,-1,0
200,24925,0,-1,0
201,24935,0,-1,0
202,24945,0,-1,0
203,24955,-1,-1,0
204,24965,0,-1,0
205,24975,0,-2,0
206,24985,0,0,0
207,24995,0,-1,0
208,25005,0,-1,0
209,25015,0,-1,0
210,25025,-1,-1,0
211,25035,0,0,0
212,25045,0,-1,0
213,25055,0,-1,0
214,25065,0,-1,0
215,25075,0,-1,0
216,25085,-1,-1,0
217,25095,0,-1,0
218,25105,0,-1,0
219,25115,0,-1,0
220,25125,-1,-1,0
221,25135,0,0,0
222,25145,0,-1,0
223,25155,-1,-1,0
224,25165,0,-1,0
225,25175,-1,-1,0
226,25185,0,-1,0
227,25195,0,-1,0
228,25205,-1,-1,0
229,25215,0,-1,0
230,25225,0,-1,0
231,25235,-1,-1,0
232,25245,0,-1,0
233,25255,-1,-1,0
234,25265,0,-1,0
235,25275,0,-1,0
236,25285,0,-1,0
237,25295,-1,-1,0
238,25305,-1,-1,0
239,25315,0,-2,0
240,25325,0,-1,0
241,25335,0,-1,0
242,25345,-1,-1,0
243,25355,0,-1,0
244,25365,0,-1,0
245,25375,-1,0,0
246,25385,-1,-1,0
247,25395,0,0,0
248,25405,0,-1,0
249,25415,0,-1,0
250,25425,-1,-1,0
251,25435,0,0,0
252,25445,0,-1,0
253,25455,0,0,0
254,25465,-1,-1,0
255,25475,-1,-1,0
256,25485,0,-1,0
257,25495,0,-1,0
258,25505,0,-1,0
259,25515,0,-1,0
260,25525,0,-1,0
261,25535,0,0,0
262,25545,0,-1,0
263,25555,0,-1,0
264,25565,0,-1,0
265,25575,-1,-1,0
266,25585,0,-1,0
267,25595,-1,-1,0
268,25605,-1,-1,0
269,25615,0,-1,0
270,25625,0,-1,0
271,25635,-1,-1,0
272,25645,0,-1,0
273,25655,0,-1,0
274,25665,0,0,0
275,25675,-1,-1,0
276,25685,0,-1,0
277,25695,-1,-1,0
278,25705,-1,-1,0
279,25715,0,-1,0
280,25725,0,-1,0
281,25735,0,0,0
282,25745,-1,-1,0
283,25755,0,-1,0
284,25765,-1,-1,0
285,25775,0,0,0
286,25785,0,-1,0
287,25795,0,-1,0
288,25805,0,-2,0
289,25815,0,0,0
290,25825,-1,-1,0
291,25835,0,-1,0
292,25845,0,-1,0
293,25855,0,0,0
294,25865,0,-1,0
295,25875,0,0,0
296,25885,0,-1,0
297,25895,0,0,0
298,25905,0,-1,0
299,25915,0,-1,0
300,25925,0,-1,0
301,25935,-1,-1,0
302,25945,0,-1,0
303,25955,0,-1,0
304,25965,0,-1,0
305,25975,0,-1,0
306,25985,0,-1,0
307,25995,-1,-1,0
308,26005,0,-1,0
309,26015,-1,-1,0
310,26025,0,-1,0
311,26035,0,-1,0
312,26045,0,-1,0
313,26055,-1,-1,0
314,26065,0,-1,0
315,26075,0,-1,0
316,26085,0,-1,0
317,26095,-1,-1,0
318,26105,0,0,0
319,26115,0,-1,0
320,26125,0,-1,0
321,26135,0,-2,0
322,26145,0,-1,0
323,26155,0,0,0
324,26165,-1,-1,0
325,26175,0,0,0
326,26185,0,-1,0
327,26195,0,-1,0
328,26205,-1,-1,0
329,26215,0,-1,0
330,26225,0,-1,0
331,26235,0,-1,0
332,26245,0,-1,0
333,26255,0,-1,0
334,26265,0,-1,0
335,26275,0,-1,0
336,26285,-1,0,0
337,26295,0,-1,0
338,26305,0,0,0
339,26315,0,-1,0
340,26325,0,0,0
341,26335,0,-1,0
342,26345,0,-1,0
343,26355,0,-1,0
344,26365,0,-1,0
345,26375,0,-1,0
346,26385,0,-1,0
347,26395,0,-1,0
348,26405,0,-1,0
349,26415,-1,-1,0
350,26425,-1,-1,0
351,26435,0,-1,0
352,26445,-1,-1,0
353,26455,0,-1,0
354,26465,0,-1,0
355,26475,0,-1,0
356,26485,0,-2,0
357,26495,0,0,0
358,26505,0,-1,0
359,26515,0,-1,0
360,26525,-1,-1,0
361,26535,-1,-1,0
362,26545,0,-1,0
363,26555,0,-1,0
364,26565,0,-1,0
365,26575,0,-1,0
366,26585,0,-1,0
367,26595,0,-1,0
368,26605,0,-1,0
369,26615,-1,-1,0
370,26625,0,-1,0
371,26635,0,-1,0
372,26645,0,-2,0
373,26655,0,-1,0
374,26665,0,-1,0
375,26675,0,-1,0
376,26685,0,-1,0
377,26695,0,-1,0
378,26705,0,-1,0
379,26715,0,-2,0
380,26725,0,-1,0
381,26735,0,-2,0
382,26745,0,-1,0
383,26755,0,-2,0
384,26765,0,-1,0
385,26775,0,-2,0
386,26785,0,-1,0
387,26795,0,-1,0
388,26805,0,-1,0
389,26815,0,-1,0
390,26825,0,-1,0
391,26835,0,0,0
392,26845,0,-1,0
393,26855,0,-1,0
394,26865,0,-1,0
395,26875,0,-1,0
396,26885,0,-1,0
397,26895,0,-1,0
398,26905,0,-1,0
399,26915,0,-1,0
400,26925,0,-1,0
401,26935,0,-1,0
402,26945,0,-1,0
403,26955,0,-1,0
404,26965,0,-1,0
405,26975,0,-1,0
406,26985,-1,-1,0
407,26995,0,-1,0
408,27005,0,-1,0
409,27015,-1,-1,0
410,27025,0,0,0
411,27035,0,-1,0
412,27045,0,-1,0
413,27055,0,0,0
414,27065,0,-1,0
415,27075,0,-1,0
416,27085,-1,-1,0
417,27095,-1,-1,0
418,27105,0,-1,0
419,27115,0,0,0
420,27125,0,-1,0
421,27135,-1,-1,0
422,27145,0,0,0
423,27155,0,0,0
424,27165,0,-1,0
425,27175,0,-1,0
426,27185,0,-1,0
427,27195,-1,-1,0
428,27205,-1,-1,0
429,27215,-1,-1,0
430,27225,-1,-1,0
431,27235,-1,-1,0
432,27245,-1,-1,0
433,27255,0,-1,0
434,27265,-1,-1,0
435,27275,-1,-1,0
436,27285,-1,-2,0
437,27295,-1,-1,0
438,27305,0,-1,0
439,27315,0,-1,0
440,27325,0,-1,0
441,27335,0,-1,0
442,27345,-1,-1,0
443,27355,0,-1,0
444,27365,0,-1,0
445,27375,0,-1,0
446,27385,0,-1,0
447,27395,-1,-1,0
448,27405,-1,-1,0
449,27415,0,-1,0
450,27425,0,-1,0
451,27435,0,-1,0
452,27445,0,-1,0
453,27455,0,-1,0
454,27465,0,-1,0
455,27475,-1,-1,0
456,27485,0,-1,0
457,27495,-1,-1,0
458,27505,0,-1,0
459,27515,-1,-1,0
460,27525,0,-1,0
461,27535,0,-1,0
462,27545,0,-1,0
463,27555,-1,-1,0
464,27565,-1,-1,0
465,27575,0,-1,0
466,27585,1,-1,0
467,27595,0,-1,0
468,27605,-1,-1,0
469,27615,-1,-1,0
470,27625,0,-1,0
471,27635,-1,-1,0
472,27645,0,-1,0
473,27655,0,-1,0
474,27665,-1,-1,0
475,27675,0,-1,0
476,27685,0,-1,0
477,27695,0,-1,0
478,27705,0,-1,0
479,27715,0,-1,0
480,27725,-1,-1,0
481,27735,0,-1,0
482,27745,-1,-1,0
483,27755,0,-1,0
484,27765,0,-1,0
485,27775,0,-1,0
486,27785,-1,-1,0
487,27795,0,-1,0
488,27805,-1,-1,0
489,27815,0,-1,0
490,27825,0,-1,0
491,27835,-1,-1,0
492,27845,0,-1,0
493,27855,0,-1,0
494,27865,0,-1,0
495,27875,0,-1,0
496,27885,0,-1,0
497,27895,0,-1,0
498,27905,0,-1,0
499,27915,0,-1,0
500,27925,0,-1,0
501,27935,0,-1,0
502,27945,0,-1,0
503,27955,0,-1,0
504,27965,0,-1,0
505,27975,0,-1,0
506,27985,0,-1,0
507,27995,0,-1,0
508,28005,0,-1,0
509,28015,0,-1,0
510,28025,0,-1,0
511,28035,0,-1,0
512,28045,-1,-1,0
513,28055,0,-1,0
514,28065,0,-1,0
515,28075,0,-1,0
516,28085,0,-1,0
517,28095,-1,-1,0
518,28105,0,-1,0
519,28115,0,-1,0
520,28125,0,-1,0
521,28135,0,-1,0
522,28145,0,-1,0
523,28155,0,-1,0
524,28165,0,-1,0
525,28175,0,-1,0
526,28185,0,-1,0
527,28195,-1,-1,0
528,28205,0,-1,0
529,28215,0,-1,0
530,28225,0,-1,0
531,28235,-1,-1,0
532,28245,0,-1,0
533,28255,0,-1,0
534,28265,0,-1,0
535,28275,0,-1,0
536,28285,0,-1,0
537,28295,-1,-1,0
538,28305,0,-1,0
539,28315,0,-1,0
540,28325,0,-1,0
541,28335,0,-1,0
542,28345,0,-1,0
543,28355,0,-1,0
544,28365,0,-1,0
545,28375,0,-1,0
546,28385,0,-1,0
547,28395,0,-1,0
548,28405,0,-1,0
549,28415,0,-1,0
550,28425,-1,-1,0
551,28435,0,-1,0
552,28445,-1,-1,0
553,28455,0,-1,0
554,28465,0,-1,0
555,28475,-1,-1,0
556,28485,0,-1,0
557,28495,-1,-1,0
558,28505,0,-1,0
559,28515,0,-1,0
560,28525,-1,-1,0
561,28535,0,-1,0
562,28545,0,-1,0
563,28555,0,-1,0
564,28565,0,-1,0
565,28575,-1,-1,0
566,28585,0,-1,0
567,28595,-1,-1,0
568,28605,0,-1,0
569,28615,-1,-1,0
570,28625,0,-1,0
571,28635,0,-1,0
572,28645,0,-1,0
573,28655,0,-1,0
574,28665,0,-1,0
575,28675,0,-1,0
576,28685,0,-1,0
577,28695,0,-1,0
578,28705,0,-1,0
579,28715,0,-1,0
580,28725,0,-1,0
581,28735,0,-1,0
582,28745,0,-1,0
583,28755,0,-1,0
584,28765,0,-1,0
585,28775,0,-1,0
586,28785,0,-1,0
587,28795,0,-1,0
588,28805,0,-1,0
589,28815,0,-1,0
590,28825,0,-1,0
591,28835,0,-1,0
592,28845,0,-1,0
593,28855,0,-1,0
594,28865,0,-1,0
595,28875,0,-1,0
596,28885,0,-1,0
597,28895,-1,-1,0
598,28905,0,-1,0
599,28915,0,-1,0
600,28925,-1,-1,0
601,28935,0,-1,0
602,28945,0,-1,0
603,28955,0,-1,0
604,28965,0,-1,0
605,28975,0,-1,0
606,28985,0,-1,0
607,28995,0,-1,0
608,29005,0,-1,0
609,29015,0,-1,0
610,29025,0,-1,0
611,29035,0,-1,0
612,29045,0,-1,0
613,29055,0,-1,0
614,29065,0,-1,0
615,29075,-1,-1,0
616,29085,0,-1,0
617,29095,-1,-1,0
618,29105,0,-1,0
619,29115,0,-1,0
620,29125,-1,-1,0
621,29135,0,-1,0
622,29145,0,-1,0
623,29155,0,-1,0
624,29165,-1,-1,0
625,29175,0,-1,0
626,29185,0,-1,0
627,29195,-1,-1,0
628,29205,0,-1,0
629,29215,-1,-1,0
630,29225,0,-1,0
631,29235,0,-1,0
632,29245,-1,-1,0
633,29255,0,-1,0
634,29265,0,-1,0
635,29275,0,-1,0
636,29285,0,-1,0
637,29295,-1,-1,0
638,29305,0,-1,0
639,29315,0,-1,0
640,29325,0,-1,0
641,29335,0,-1,0
642,29345,-1,-1,0
643,29355,-1,-1,0
644,29365,0,-1,0
645,29375,-1,-1,0
646,29385,0,-1,0
647,29395,0,-1,0
648,29405,-1,-1,0
649,29415,0,-1,0
650,29425,0,-1,0
651,29435,-1,-1,0
652,29445,0,-1,0
653,29455,0,-1,0
654,29465,0,-1,0
655,29475,-1,-1,0
656,29485,0,-1,0
657,29495,0,-1,0
658,29505,0,-1,0
659,29515,-1,-1,0
660,29525,0,-1,0
661,29535,0,-1,0
662,29545,0,-1,0
663,29555,0,-1,0
664,29565,0,-1,0
665,29575,-1,-1,0
666,29585,0,-1,0
667,29595,-1,-1,0
668,29605,0,-1,0
669,29615,0,-1,0
670,29625,-1,-1,0
671,29635,0,-1,0
672,29645,-1,-1,0
673,29655,0,-1,0
674,29665,0,-1,0
675,29675,-1,-1,0
676,29685,0,-1,0
677,29695,0,-1,0
678,29705,0,-1,0
679,29715,0,-1,0
680,29725,0,-1,0
681,29735,0,-1,0
682,29745,0,-1,0
683,29755,0,-1,0
684,29765,0,-1,0
685,29775,0,-1,0
686,29785,0,-1,0
687,29795,-1,-1,0
688,29805,0,-1,0
689,29815,0,-1,0
690,29825,0,-1,0
691,29835,0,-1,0
692,29845,0,-1,0
693,29855,0,-1,0
694,29865,-1,-1,0
695,29875,0,-1,0
696,29885,0,-1,0
697,29895,0,-1,0
698,29905,-1,-1,0
699,29915,0,-1,0
700,29925,0,-1,0
701,29935,0,-1,0
702,29945,0,-1,0
703,29955,0,-1,0
704,29965,0,-1,0
705,29975,0,-1,0
706,29985,0,-1,0
707,29995,0,-1,0
708,30005,0,-1,0
709,30015,0,-1,0
710,30025,0,-1,0
711,30035,0,-1,0
712,30045,-1,-1,0
713,30055,0,-1,0
714,30065,0,-1,0
715,30075,-1,-1,0
716,30085,0,-1,0
717,30095,0,-1,0
718,30105,0,-1,0
719,30115,0,-1,0
720,30125,0,-1,0
721,30135,0,-1,0
722,30145,0,-1,0
723,30155,0,-1,0
724,30165,0,-1,0
725,30175,0,-1,0
726,30185,0,-1,0
727,30195,0,-1,0
728,30205,-1,-1,0
729,30215,0,-1,0
730,30225,0,-1,0
731,30235,-1,-1,0
732,30245,-1,-1,0
733,30255,0,-1,0
734,30265,-1,-1,0
735,30275,0,-1,0
736,30285,0,-1,0
737,30295,0,-1,0
738,30305,0,-1,0
739,30315,-1,-1,0
740,30325,0,-1,0
741,30335,0,-1,0
742,30345,0,-1,0
743,30355,0,-1,0
744,30365,0,-1,0
745,30375,-1,-1,0
746,30385,0,-1,0
747,30395,0,-1,0
748,30405,0,-1,0
749,30415,0,-1,0
750,30425,0,-1,0
751,30435,0,-1,0
752,30445,0,-1,0
753,30455,0,-1,0
754,30465,0,-1,0
755,30475,0,-1,0
756,30485,0,-1,0
757,30495,0,-1,0
758,30505,0,-1,0
759,30515,0,-1,0
760,30525,0,-1,0
761,30535,0,-1,0
762,30545,0,-1,0
763,30555,0,-1,0
764,30565,0,-1,0
765,30575,0,-1,0
766,30585,0,-1,0
767,30595,0,-1,0
768,30605,0,-1,0
769,30615,0,-1,0
770,30625,0,-1,0
771,30635,-1,-1,0
772,30645,0,-1,0
773,30655,0,-1,0
774,30665,0,-1,0
775,30675,-1,-1,0
776,30685,0,-1,0
777,30695,0,-1,0
778,30705,-1,-1,0
779,30715,0,-1,0
780,30725,0,-1,0
781,30735,0,-1,0
782,30745,0,-1,0
783,30755,-1,-1,0
784,30765,-1,-1,0
785,30775,0,-1,0
786,30785,0,-1,0
787,30795,-1,-1,0
788,30805,0,-1,0
789,30815,0,-1,0
790,30825,0,-1,0
791,30835,0,-1,0
792,30845,0,-1,0
793,30855,0,-1,0
794,30865,0,-1,0
795,30875,0,-1,0
796,30885,0,-1,0
797,30895,0,-1,0
798,30905,0,-1,0
799,30915,-1,-1,0
800,30925,-1,-1,0
801,30935,0,-1,0
802,30945,-1,-1,0
803,30955,0,-1,0
804,30965,0,-1,0
805,30975,-1,-1,0
806,30985,0,-1,0
807,30995,0,-1,0
808,31005,-1,-1,0
809,31015,0,-1,0
810,31025,0,-1,0
811,31035,0,-1,0
812,31045,-1,-1,0
813,31055,0,-1,0
814,31065,0,-1,0
815,31075,-1,-1,0
816,31085,0,-1,0
817,31095,0,0,0
818,31105,-1,-1,0
819,31115,0,-1,0
820,31125,0,-1,0
821,31135,0,-1,0
822,31145,-1,-1,0
823,31155,0,-1,0
824,31165,0,-1,0
825,31175,-1,-1,0
826,31185,-1,-1,0
827,31195,-1,-1,0
828,31205,-1,-1,0
829,31215,-1,-1,0
830,31225,-1,-1,0
831,31235,0,-1,0
832,31245,0,-1,0
833,31255,-1,-1,0
834,31265,-1,-1,0
835,31275,0,-1,0
836,31285,-1,-1,0
837,31295,0,-1,0
838,31305,-1,-1,0
839,31315,-1,-1,0
840,31325,0,-1,0
841,31335,0,-1,0
842,31345,0,-1,0
843,31355,-1,-1,0
844,31365,0,-1,0
845,31375,-1,-1,0
846,31385,-1,-1,0
847,31395,0,-1,0
848,31405,-1,-1,0
849,31415,0,-1,0
850,31425,0,-1,0
851,31435,0,-1,0
852,31445,0,-1,0
853,31455,0,-1,0
854,31465,0,-1,0
855,31475,-1,-1,0
856,31485,-1,-1,0
857,31495,0,-1,0
858,31505,-1,-1,0
859,31515,0,-1,0
860,31525,-1,-1,0
861,31535,-1,-1,0
862,31545,-1,-1,0
863,31555,-1,-1,0
864,31565,0,-1,0
865,31575,0,-1,0
866,31585,-1,-1,0
867,31595,0,-1,0
868,31605,-1,-1,0
869,31615,-1,-1,0
870,31625,-1,-1,0
871,31635,0,-1,0
872,31645,0,-1,0
873,31655,-1,-1,0
874,31665,0,-1,0
875,31675,0,-1,0
876,31685,-1,-1,0
877,31695,0,-1,0
878,31705,-1,-1,0
879,31715,0,-1,0
880,31725,0,-1,0
881,31735,0,-1,0
882,31745,0,-1,0
883,31755,0,-1,0
884,31765,-1,-1,0
885,31775,-1,-1,0
886,31785,-1,-1,0
887,31795,0,-1,0
888,31805,-1,-1,0
889,31815,-1,-1,0
890,31825,-1,0,0
891,31835,-1,0,0
892,31845,0,-1,0
893,31855,-1,-1,0
894,31865,0,-1,0
895,31875,-1,-1,0
896,31885,0,-1,0
897,31895,-1,-1,0
898,31905,0,-1,0
899,31915,-1,-1,0
900,31925,-1,-1,0
901,31935,-1,-1,0
902,31945,-1,-1,0
903,31955,-1,-2,0
904,31965,-1,-1,0
905,31975,0,0,0
906,31985,-1,0,0
907,31995,-1,-2,0
908,32005,0,-2,0
909,32015,-1,-1,0
910,32025,0,-1,0
911,32035,-1,-2,0
912,32045,-1,0,0
913,32055,-1,-1,0
914,32065,0,0,0
915,32075,-1,-1,0
916,32085,0,-1,0
917,32095,-1,-1,0
918,32105,0,-1,0
919,32115,-1,-1,0
920,32125,-1,-1,0
921,32135,0,-1,0
922,32145,-1,-1,0
923,32155,0,-1,0
924,32165,-1,-2,0
925,32175,0,-1,0
926,32185,-1,-1,0
927,32195,0,-1,0
928,32205,-1,-1,0
929,32215,0,-1,0
930,32225,-1,-1,0
931,32235,0,-1,0
932,32245,-1,-1,0
933,32255,0,-1,0
934,32265,-1,-1,0
935,32275,0,-1,0
936,32285,-1,-1,0
937,32295,0,-1,0
938,32305,-1,-1,0
939,32315,-1,-1,0
940,32325,0,-1,0
941,32335,-1,-1,0
942,32345,0,-1,0
943,32355,-1,-1,0
944,32365,-1,-1,0
945,32375,0,-1,0
946,32385,-1,-1,0
947,32395,1,-1,0
948,32405,-1,-1,0
949,32415,-1,-1,0
950,32425,0,-1,0
951,32435,-1,-1,0
952,32445,0,-1,0
953,32455,-1,0,0
954,32465,-1,-1,0
955,32475,0,0,0
956,32485,-1,-1,0
957,32495,-1,-1,0
958,32505,0,-2,0
959,32515,0,-1,0
960,32525,0,-1,0
961,32535,-1,-1,0
962,32545,-1,-2,0
963,32555,0,-1,0
964,32565,0,-1,0
965,32575,-1,-1,0
966,32585,-1,-1,0
967,32595,-1,-1,0
968,32605,-1,0,0
969,32615,-1,-1,0
970,32625,-1,-1,0
971,32635,0,-1,0
972,32645,0,-2,0
973,32655,0,-1,0
974,32665,-1,-1,0
975,32675,-1,-1,0
976,32685,0,-1,0
977,32695,-1,-1,0
978,32705,-1,-1,0
979,32715,0,-1,0
980,32725,-1,-2,0
981,32735,0,0,0
982,32745,-1,-2,0
983,32755,0,0,0
984,32765,-1,-2,0
985,32775,0,0,0
986,32785,-1,-1,0
987,32795,0,-2,0
988,32805,-1,1,0
989,32815,0,0,0
990,32825,-1,-2,0
991,32835,-1,-3,0
992,32845,-1,-3,0
993,32855,0,-2,0
994,32865,-1,-2,0
995,32875,0,-2,0
996,32885,0,-2,0
997,32895,-1,-2,0
998,32905,-1,-2,0
999,32915,-1,-3,0
1000,32925,0,-2,0
1001,32935,-1,-2,0
1002,32945,-1,-2,0
1003,32955,-1,-2,0
1004,32965,-1,-1,0
1005,32975,-1,-1,0
1006,32985,0,-1,0
1007,32995,-1,-1,0
1008,33005,0,-1,0
1009,33015,-1,-2,0
1010,33025,-1,-2,0
1011,33035,-1,-2,0
1012,33045,-1,-2,0
1013,33055,-1,-1,0
1014,33065,0,-2,0
1015,33075,0,-1,0
1016,33085,-1,0,0
1017,33095,0,-1,0
1018,33105,0,-1,0
1019,33115,-1,-1,0
1020,33125,-1,-1,0
1021,33135,-1,-2,0
1022,33145,0,-1,0
1023,33155,-1,-2,0
1024,33165,0,-2,0
1025,33175,-1,0,0
1026,33185,0,0,0
1027,33195,-1,-2,0
1028,33205,0,0,0
1029,33215,-1,-1,0
1030,33225,-1,-1,0
1031,33235,-1,-1,0
1032,33245,-1,-2,0
1033,33255,0,-1,0
1034,33265,-1,-2,0
1035,33275,-1,-1,0
1036,33285,-1,-1,0
1037,33295,-1,-1,0
1038,33305,-1,-1,0
1039,33315,-1,-1,0
1040,33325,0,-1,0
1041,33335,-1,-1,0
1042,33345,-1,-2,0
1043,33355,-1,-1,0
1044,33365,0,-1,0
1045,33375,-1,-1,0
1046,33385,-1,-1,0
1047,33395,0,-1,0
1048,33405,-1,-1,0
1049,33415,0,-1,0
1050,33425,-1,-1,0
1051,33435,-1,-1,0
1052,33445,0,-1,0
1053,33455,0,-1,0
1054,33465,-1,-1,0
1055,33475,-1,-1,0
1056,33485,-1,0,0
1057,33495,-1,-1,0
1058,33505,-1,-1,0
1059,33515,-1,-1,0
1060,33525,-1,-2,0
1061,33535,-1,-1,0
1062,33545,0,-1,0
1063,33555,-1,-2,0
1064,33565,-1,0,0
1065,33575,0,-1,0
1066,33585,-1,-1,0
1067,33595,0,0,0
1068,33605,-1,-2,0
1069,33615,-1,-1,0
1070,33625,0,-1,0
1071,33635,-1,-2,0
1072,33645,0,-1,0
1073,33655,0,-1,0
1074,33665,-1,-1,0
1075,33675,0,-1,0
1076,33685,-1,-1,0
1077,33695,0,-2,0
1078,33705,-1,-1,0
1079,33715,-1,-1,0
1080,33725,0,-1,0
1081,33735,-1,-2,0
1082,33745,0,-1,0
1083,33755,-1,-2,0
1084,33765,0,-1,0
1085,33775,-1,-2,0
1086,33785,-1,-1,0
1087,33795,0,-1,0
1088,33805,-1,-1,0
1089,33815,0,-1,0
1090,33825,-1,-2,0
1091,33835,0,-1,0
1092,33845,0,-1,0
1093,33855,-1,-1,0
1094,33865,0,-1,0
1095,33875,0,-1,0
1096,33885,-1,-1,0
1097,33895,0,-2,0
1098,33905,0,-1,0
1099,33915,0,-1,0
1100,33925,0,-1,0
1101,33935,-1,-1,0
1102,33945,-1,-2,0
1103,33955,0,-1,0
1104,33965,-1,-1,0
1105,33975,0,-1,0
1106,33985,-1,-2,0
1107,33995,0,-1,0
1108,34005,-1,-1,0
1109,34015,-1,-2,0
1110,34025,0,-1,0
1111,34035,-1,-1,0
1112,34045,0,-1,0
1113,34055,-1,-1,0
1114,34065,-1,-1,0
1115,34075,0,-1,0
1116,34085,0,-1,0
1117,34095,-1,-2,0
1118,34105,-1,-1,0
1119,34115,0,-1,0
1120,34125,-1,-1,0
1121,34135,-1,-1,0
1122,34145,0,-1,0
1123,34155,-1,-1,0
1124,34165,-1,-1,0
1125,34175,0,-1,0
1126,34185,-1,-2,0
1127,34195,-1,-1,0
1128,34205,0,-1,0
1129,34215,-1,-1,0
1130,34225,-1,-2,0
1131,34235,-1,-1,0
1132,34245,0,-1,0
1133,34255,0,-2,0
1134,34265,0,-1,0
1135,34275,0,-2,0
1136,34285,0,-1,0
1137,34295,0,-1,0
1138,34305,0,-1,0
1139,34315,0,-1,0
1140,34325,0,-1,0
1141,34335,-1,-2,0
1142,34345,0,-2,0
1143,34355,0,-1,0
1144,34365,-1,-1,0
1145,34375,0,-2,0
1146,34385,0,-1,0
1147,34395,-1,-1,0
1148,34405,0,-1,0
1149,34415,0,-1,0
1150,34425,0,-1,0
1151,34435,-1,-1,0
1152,34445,0,-1,0
1153,34455,0,-1,0
1154,34465,0,-1,0
1155,34475,-1,-1,0
1156,34485,-1,-1,0
1157,34495,0,-1,0
1158,34505,0,-1,0
1159,34515,0,-1,0
1160,34525,0,-1,0
1161,34535,-1,-1,0
1162,34545,0,-1,0
1163,34555,0,-1,0
1164,34565,-1,-1,0
1165,34575,0,-1,0
1166,34585,-1,-1,0
1167,34595,-1,-1,0
1168,34605,0,-1,0
1169,34615,-1,-1,0
1170,34625,-1,-1,0
1171,34635,0,-1,0
1172,34645,-1,-1,0
1173,34655,0,-1,0
1174,34665,1,-1,0
1175,34675,-1,-1,0
1176,34685,0,-1,0
1177,34695,-1,-1,0
1178,34705,0,-1,0
1179,34715,0,-1,0
1180,34725,-1,-1,0
1181,34735,0,-1,0
1182,34745,-1,-1,0
1183,34755,0,-1,0
1184,34765,0,-1,0
1185,34775,0,-1,0
1186,34785,-1,-1,0
1187,34795,0,-1,0
1188,34805,-1,-1,0
1189,34815,-1,-2,0
1190,34825,0,-2,0
1191,34835,0,-1,0
1192,34845,0,-1,0
1193,34855,0,-1,0
1194,34865,0,-1,0
1195,34875,-1,-2,0
1196,34885,0,-1,0
1197,34895,-1,-2,0
1198,34905,-1,-2,0
1199,34915,0,-1,0
1200,34925,-1,-1,0
1201,34935,0,-1,0
1202,34945,-1,-1,0
1203,34955,0,-1,0
1204,34965,-1,-1,0
1205,34975,0,-1,0
1206,34985,0,0,0
1207,34995,0,-1,0
1208,35005,-1,-1,0
1209,35015,0,-1,0
1210,35025,-1,-1,0
1211,35035,0,-1,0
1212,35045,0,-1,0
1213,35055,-1,-2,0
1214,35065,-1,-1,0
1215,35075,-1,-1,0
1216,35085,-1,-1,0
1217,35095,0,-1,0
1218,35105,-1,-1,0
1219,35115,-1,-1,0
1220,35125,0,-1,0
1221,35135,-1,-2,0
1222,35145,-1,-1,0
1223,35155,0,-1,0
1224,35165,-1,-1,0
1225,35175,0,-1,0
1226,35185,0,-1,0
1227,35195,-1,-2,0
1228,35205,0,-1,0
1229,35215,0,-1,0
1230,35225,-1,-1,0
1231,35235,0,-1,0
1232,35245,0,-1,0
1233,35255,-1,-1,0
1234,35265,0,-1,0
1235,35275,-1,-1,0
1236,35285,-1,-1,0
1237,35295,0,-1,0
1238,35305,-1,-1,0
1239,35315,0,-1,0
1240,35325,-1,-1,0
1241,35335,-1,-1,0
1242,35345,0,-1,0
1243,35355,-1,-2,0
1244,35365,0,-2,0
1245,35375,-1,-1,0
1246,35385,-1,-1,0
1247,35395,0,-1,0
1248,35405,-1,-1,0
1249,35415,0,-1,0
1250,35425,-1,0,0
1251,35435,0,-1,0
1252,35445,-1,0,0
1253,35455,-1,-1,0
1254,35465,0,-2,0
1255,35475,0,-1,0
1256,35485,-1,0,0
1257,35495,-1,-1,0
1258,35505,0,-1,0
1259,35515,-1,-1,0
1260,35525,0,-1,0
1261,35535,0,-1,0
1262,35545,-1,-1,0
1263,35555,0,-1,0
1264,35565,0,-1,0
1265,35575,-1,-1,0
1266,35585,0,0,0
1267,35595,-1,-1,0
1268,35605,0,-1,0
1269,35615,-1,-1,0
1270,35625,0,-1,0
1271,35635,-1,-2,0
1272,35645,0,-2,0
1273,35655,-1,-1,0
1274,35665,0,0,0
1275,35675,-1,-1,0
1276,35685,0,-2,0
1277,35695,0,-1,0
1278,35705,0,-1,0
1279,35715,-1,0,0
1280,35725,0,0,0
1281,35735,-1,-1,0
1282,35745,0,-1,0
1283,35755,0,-1,0
1284,35765,-1,-1,0
1285,35775,0,-1,0
1286,35785,-1,-1,0
1287,35795,0,-1,0
1288,35805,0,-1,0
1289,35815,-1,-2,0
1290,35825,0,-2,0
1291,35835,-1,-1,0
1292,35845,0,-1,0
1293,35855,-1,-1,0
1294,35865,0,0,0
1295,35875,-1,0,0
1296,35885,-1,-2,0
1297,35895,-1,-1,0
1298,35905,0,-1,0
1299,35915,0,-2,0
1300,35925,-1,-1,0
1301,35935,0,-1,0
1302,35945,-1,-1,0
1303,35955,0,0,0
1304,35965,0,-1,0
1305,35975,-1,0,0
1306,35985,0,1,0
1307,35995,-1,-1,0
1308,36005,0,0,0
1309,36015,-1,-2,0
1310,36025,0,0,0
1311,36035,-1,-1,0
1312,36045,0,0,0
1313,36055,0,-1,0
1314,36065,0,0,0
1315,36075,-1,-2,0
1316,36085,-1,0,0
1317,36095,-1,-2,0
1318,36105,-1,-1,0
1319,36115,-1,-2,0
1320,36125,-1,-1,0
1321,36135,-1,-2,0
1322,36145,0,0,0
1323,36155,-1,-2,0
1324,36165,0,0,0
1325,36175,0,-1,0
1326,36185,0,-1,0
1327,36195,-1,0,0
1328,36205,0,-1,0
1329,36215,-1,-1,0
1330,36225,-1,-1,0
1331,36235,-1,-1,0
1332,36245,-1,-1,0
1333,36255,0,0,0
1334,36265,0,-1,0
1335,36275,0,-1,0
1336,36285,0,0,0
1337,36295,-1,1,0
1338,36305,-1,0,0
1339,36315,0,0,0
1340,36325,-1,-2,0
1341,36335,-1,-2,0
1342,36345,0,-1,0
1343,36355,-1,0,0
1344,36365,-1,-1,0
1345,36375,-1,-1,0
1346,36385,0,-2,0
1347,36395,-1,-1,0
1348,36405,0,-1,0
1349,36415,0,-1,0
1350,36425,0,-1,0
1351,36435,-1,-1,0
1352,36445,-1,-1,0
1353,36455,-1,-1,0
1354,36465,0,-1,0
1355,36475,-1,-1,0
1356,36485,0,-1,0
1357,36495,-1,-1,0
1358,36505,0,-1,0
1359,36515,0,-1,0
1360,36525,-1,-1,0
1361,36535,0,-1,0
1362,36545,0,-1,0
1363,36555,-1,-1,0
1364,36565,0,-1,0
1365,36575,-1,-1,0
1366,36585,-1,-1,0
1367,36595,0,-1,0
1368,36605,0,-1,0
1369,36615,0,-1,0
1370,36625,-1,-1,0
1371,36635,-1,-1,0
1372,36645,-1,-1,0
1373,36655,-1,-1,0
1374,36665,-1,-1,0
1375,36675,-1,-1,0
1376,36685,-1,-1,0
1377,36695,0,-1,0
1378,36705,-1,-1,0
1379,36715,0,-2,0
1380,36725,-1,-2,0
1381,36735,-1,-1,0
1382,36745,0,-1,0
1383,36755,-1,-1,0
1384,36765,0,-1,0
1385,36775,0,-1,0
1386,36785,-1,-1,0
1387,36795,-1,-1,0
1388,36805,0,-1,0
1389,36815,-1,-1,0
1390,36825,-1,-1,0
1391,36835,0,-1,0
1392,36845,0,-1,0
1393,36855,0,-1,0
1394,36865,0,-1,0
1395,36875,-1,-1,0
1396,36885,0,-1,0
1397,36895,0,-1,0
1398,36905,-1,-1,0
1399,36915,0,-2,0
1400,36925,-1,-1,0
1401,36935,-1,-1,0
1402,36945,-1,-1,0
1403,36955,0,-1,0
1404,36965,0,-1,0
1405,36975,-1,-1,0
1406,36985,0,-1,0
1407,36995,-1,-1,0
1408,37005,-1,-2,0
1409,37015,-1,-1,0
1410,37025,0,-1,0
1411,37035,0,-1,0
1412,37045,0,-1,0
1413,37055,0,-1,0
1414,37065,0,-1,0
1415,37075,0,-1,0
1416,37085,0,-1,0
1417,37095,-1,-1,0
1418,37105,0,-2,0
1419,37115,0,-1,0
1420,37125,0,-1,0
1421,37135,-1,-1,0
1422,37145,0,-1,0
1423,37155,0,-1,0
1424,37165,-1,-1,0
1425,37175,-1,-1,0
1426,37185,0,-1,0
1427,37195,0,-1,0
1428,37205,0,-1,0
1429,37215,0,-1,0
1430,37225,0,-1,0
1431,37235,-1,-1,0
1432,37245,0,-1,0
1433,37255,-1,-1,0
1434,37265,-1,-1,0
1435,37275,0,-1,0
1436,37285,-1,-1,0
1437,37295,0,-1,0
1438,37305,0,-1,0
1439,37315,-1,-1,0
1440,37325,-1,-2,0
1441,37335,-1,-1,0
1442,37345,0,-1,0
1443,37355,0,-1,0
1444,37365,-1,-1,0
1445,37375,0,-1,0
1446,37385,-1,-2,0
1447,37395,0,-1,0
1448,37405,-1,-1,0
1449,37415,0,-1,0
1450,37425,0,-1,0
1451,37435,-1,-1,0
1452,37445,-1,-1,0
1453,37455,0,0,0
1454,37465,-1,-1,0
1455,37475,-1,-1,0
1456,37485,0,-2,0
1457,37495,-1,-1,0
1458,37505,-1,-2,0
1459,37515,-1,-1,0
1460,37525,0,-1,0
1461,37535,-1,-1,0
1462,37545,-1,-2,0
1463,37555,-1,-1,0
1464,37565,0,-1,0
1465,37575,0,-1,0
1466,37585,-1,-1,0
1467,37595,-1,-1,0
1468,37605,0,-2,0
1469,37615,-1,-1,0
1470,37625,0,-2,0
1471,37635,0,0,0
1472,37645,0,-1,0
1473,37655,-1,-1,0
1474,37665,-1,-1,0
1475,37675,0,0,0
1476,37685,0,-1,0
1477,37695,-1,-2,0
1478,37705,-1,-1,0
1479,37715,0,-1,0
1480,37725,-1,-1,0
1481,37735,-1,-1,0
1482,37745,0,-1,0
1483,37755,-1,-2,0
1484,37765,0,0,0
1485,37775,0,-1,0
1486,37785,-1,-1,0
1487,37795,-1,-1,0
1488,37805,-1,-1,0
1489,37815,-1,-1,0
1490,37825,0,-1,0
1491,37835,-1,-1,0
1492,37845,-1,-1,0
1493,37855,0,-1,0
1494,37865,-1,-1,0
1495,37875,-1,-1,0
1496,37885,-1,-2,0
1497,37895,0,-1,0
1498,37905,-1,-1,0
1499,37915,-1,-1,0
1500,37925,-1,0,0
1501,37935,0,0,0
1502,37945,-1,-1,0
1503,37955,-1,-2,0
1504,37965,-1,-1,0
1505,37975,0,-1,0
1506,37985,-1,-1,0
1507,37995,-1,-1,0
1508,38005,0,-1,0
1509,38015,0,-2,0
1510,38025,-1,-1,0
1511,38035,0,-1,0
1512,38045,0,-1,0
1513,38055,-1,-2,0
1514,38065,-1,-2,0
1515,38075,0,0,0
1516,38085,-1,-1,0
1517,38095,0,-1,0
1518,38105,0,-1,0
1519,38115,-1,-2,0
1520,38125,-1,-2,0
1521,38135,-1,-1,0
1522,38145,0,-1,0
1523,38155,-1,-1,0
1524,38165,-1,-2,0
1525,38175,-1,-1,0
1526,38185,-1,0,0
1527,38195,0,-1,0
1528,38205,0,-1,0
1529,38215,0,-2,0
1530,38225,-1,-2,0
1531,38235,-1,-2,0
1532,38245,0,-1,0
1533,38255,0,0,0
1534,38265,-1,-1,0
1535,38275,-1,-1,0
1536,38285,-1,-2,0
1537,38295,-1,-1,0
1538,38305,0,-1,0
1539,38315,0,-1,0
1540,38325,-1,-1,0
1541,38335,-1,-1,0
1542,38345,-1,-2,0
1543,38355,-1,-2,0
1544,38365,0,-1,0
1545,38375,0,-1,0
1546,38385,-1,-1,0
1547,38395,0,-1,0
1548,38405,0,-1,0
1549,38415,0,-1,0
1550,38425,-1,-1,0
1551,38435,-1,-1,0
1552,38445,-1,-2,0
1553,38455,-1,-1,0
1554,38465,0,-1,0
1555,38475,-1,-1,0
1556,38485,-1,-1,0
1557,38495,0,-1,0
1558,38505,-1,-1,0
1559,38515,-1,-2,0
1560,38525,0,0,0
1561,38535,-1,-2,0
1562,38545,0,-1,0
1563,38555,-1,-2,0
1564,38565,0,-1,0
1565,38575,0,-1,0
1566,38585,-1,-2,0
1567,38595,0,-1,0
1568,38605,-1,-1,0
1569,38615,0,0,0
1570,38625,-1,-2,0
1571,38635,-1,-1,0
1572,38645,0,-1,0
1573,38655,-1,-2,0
1574,38665,0,-2,0
1575,38675,-1,-2,0
1576,38685,-1,-1,0
1577,38695,-1,-1,0
1578,38705,-1,-1,0
1579,38715,0,-1,0
1580,38725,-1,-1,0
1581,38735,-1,0,0
1582,38745,0,-1,0
1583,38755,-1,-2,0
1584,38765,0,-2,0
1585,38775,-1,-1,0
1586,38785,0,-1,0
1587,38795,-1,-1,0
1588,38805,0,0,0
1589,38815,-1,-1,0
1590,38825,-1,-2,0
1591,38835,0,0,0
1592,38845,0,-1,0
1593,38855,-1,-1,0
1594,38865,0,-1,0
1595,38875,-1,-1,0
1596,38885,-1,-1,0
1597,38895,-1,-1,0
1598,38905,-1,-1,0
1599,38915,-1,-1,0
1600,38925,-1,-1,0
1601,38935,0,-1,0
1602,38945,-1,-1,0
1603,38955,-1,-1,0
1604,38965,-1,-1,0
1605,38975,-1,-1,0
1606,38985,0,-1,0
1607,38995,0,-1,0
1608,39005,0,-1,0
1609,39015,-1,-1,0
1610,39025,-1,-1,0
1611,39035,-1,-1,0
1612,39045,-1,-1,0
1613,39055,0,-1,0
1614,39065,0,-1,0
1615,39075,-1,-1,0
1616,39085,0,-1,0
1617,39095,-1,-1,0
1618,39105,-1,-2,0
1619,39115,-1,-2,0
1620,39125,0,-1,0
1621,39135,-1,-1,0
1622,39145,-1,-1,0
1623,39155,-1,-1,0
1624,39165,-1,-1,0
1625,39175,-1,-2,0
1626,39185,-1,-1,0
1627,39195,0,-1,0
1628,39205,-1,-1,0
1629,39215,0,-1,0
1630,39225,-1,-2,0
1631,39235,-1,-2,0
1632,39245,0,-2,0
1633,39255,-1,-2,0
1634,39265,-1,-2,0
1635,39275,0,-2,0
1636,39285,0,-1,0
1637,39295,-1,-1,0
1638,39305,-1,-1,0
1639,39315,-1,-1,0
1640,39325,-1,-1,0
1641,39335,0,-1,0
1642,39345,-1,-2,0
1643,39355,-1,-2,0
1644,39365,-1,-2,0
1645,39375,-1,-2,0
1646,39385,-1,-2,0
1647,39395,0,-2,0
1648,39405,0,-1,0
1649,39415,-1,-2,0
1650,39425,-1,-2,0
1651,39435,0,-2,0
1652,39445,-1,-2,0
1653,39455,-1,-2,0
1654,39465,-1,-2,0
1655,39475,0,-2,0
1656,39485,0,-1,0
1657,39495,-2,-1,0
1658,39505,-1,-1,0
1659,39515,-1,-2,0
1660,39525,0,-1,0
1661,39535,-1,-1,0
1662,39545,0,-2,0
1663,39555,-1,-1,0
1664,39565,-1,-1,0
1665,39575,-1,-2,0
1666,39585,0,-1,0
1667,39595,-1,-1,0
1668,39605,-1,-2,0
1669,39615,-1,-2,0
1670,39625,-1,-1,0
1671,39635,-1,-2,0
1672,39645,-1,-1,0
1673,39655,0,-1,0
1674,39665,-1,-1,0
1675,39675,-1,-2,0
1676,39685,-1,-1,0
1677,39695,0,-2,0
1678,39705,-1,-1,0
1679,39715,0,-1,0
1680,39725,-1,-1,0
1681,39735,-1,-1,0
1682,39745,0,-2,0
1683,39755,-1,-2,0
1684,39765,-1,-1,0
1685,39775,-1,-1,0
1686,39785,0,-1,0
1687,39795,-1,-1,0
1688,39805,-1,-2,0
1689,39815,-1,-1,0
1690,39825,-1,-2,0
1691,39835,-1,-1,0
1692,39845,0,-1,0
1693,39855,-1,-1,0
1694,39865,-1,-1,0
1695,39875,-1,-2,0
1696,39885,-1,-2,0
1697,39895,-1,-2,0
1698,39905,-1,-1,0
1699,39915,-1,-1,0
1700,39925,-1,-2,0
1701,39935,-1,-2,0
1702,39945,-1,-1,0
1703,39955,-1,-2,0
1704,39965,-1,-1,0
1705,39975,-1,-2,0
1706,39985,0,-1,0
1707,39995,-1,-2,0
1708,40005,0,-1,0
1709,40015,-1,-2,0
1710,40025,0,-1,0
1711,40035,0,0,0
1712,40045,-1,-1,0
1713,40055,0,-3,0
1714,40065,-1,-1,0
1715,40075,-1,-1,0
1716,40085,0,-2,0
1717,40095,-1,-1,0
1718,40105,-1,-1,0
1719,40115,-1,-2,0
1720,40125,0,-3,0
1721,40135,-1,-2,0
1722,40145,-1,-1,0
1723,40155,-1,-2,0
1724,40165,-1,-2,0
1725,40175,-1,-3,0
1726,40185,-1,-1,0
1727,40195,-1,-2,0
1728,40205,-1,-2,0
1729,40215,-1,-2,0
1730,40225,-1,-2,0
1731,40235,-1,-1,0
1732,40245,0,-2,0
1733,40255,0,-1,0
1734,40265,-1,-2,0
1735,40275,-1,-1,0
1736,40285,-1,-2,0
1737,40295,-1,-2,0
1738,40305,0,-2,0
1739,40315,-1,-1,0
1740,40325,-1,-1,0
1741,40335,0,-1,0
1742,40345,-1,-2,0
1743,40355,0,-2,0
1744,40365,-1,-2,0
1745,40375,-1,-2,0
1746,40385,0,-1,0
1747,40395,-1,-1,0
1748,40405,-1,-2,0
1749,40415,-1,-2,0
1750,40425,0,-1,0
1751,40435,0,-2,0
1752,40445,0,-2,0
1753,40455,0,-1,0
1754,40465,-1,-1,0
1755,40475,-1,-1,0
1756,40485,-1,-2,0
1757,40495,-1,-2,0
1758,40505,-1,-1,0
1759,40515,0,-1,0
1760,40525,0,-2,0
1761,40535,-1,-2,0
1762,40545,-1,-2,0
1763,40555,-1,-2,0
1764,40565,0,-1,0
1765,40575,0,-1,0
1766,40585,0,-1,0
1767,40595,-1,-2,0
1768,40605,0,-2,0
1769,40615,-1,-2,0
1770,40625,0,-2,0
1771,40635,-1,-2,0
1772,40645,0,-1,0
1773,40655,0,-1,0
1774,40665,-1,-2,0
1775,40675,0,-2,0
1776,40685,0,-1,0
1777,40695,0,-2,0
1778,40705,-1,-2,0
1779,40715,-1,-1,0
1780,40725,0,-1,0
1781,40735,0,-1,0
1782,40745,0,-2,0
1783,40755,-1,-1,0
1784,40765,-1,-2,0
1785,40775,0,-1,0
1786,40785,0,-1,0
1787,40795,-1,-2,0
1788,40805,0,-1,0
1789,40815,0,-2,0
1790,40825,0,-1,0
1791,40835,0,-1,0
1792,40845,-1,-2,0
1793,40855,0,-2,0
1794,40865,-1,-1,0
1795,40875,0,-1,0
1796,40885,-1,-2,0
1797,40895,0,-1,0
1798,40905,-1,-1,0
1799,40915,0,-2,0
1800,40925,-1,-1,0
1801,40935,0,-1,0
1802,40945,-1,-1,0
1803,40955,0,-2,0
1804,40965,-1,-2,0
1805,40975,0,-1,0
1806,40985,-1,-1,0
1807,40995,0,-1,0
1808,41005,-1,-1,0
1809,41015,0,-1,0
1810,41025,0,-1,0
1811,41035,-1,-1,0
1812,41045,0,-1,0
1813,41055,0,-1,0
1814,41065,0,-1,0
1815,41075,-1,-1,0
1816,41085,-1,-2,0
1817,41095,-1,-1,0
1818,41105,-1,-2,0
1819,41115,-1,-2,0
1820,41125,-1,-2,0
1821,41135,-1,-1,0
1822,41145,-1,-1,0
1823,41155,0,-1,0
1824,41165,-1,-2,0
1825,41175,0,-2,0
1826,41185,0,-1,0
1827,41195,-1,-2,0
1828,41205,0,-2,0
1829,41215,-1,-1,0
1830,41225,-1,-1,0
1831,41235,-1,-1,0
1832,41245,-2,-1,0
1833,41255,-1,-1,0
1834,41265,0,-1,0
1835,41275,0,-1,0
1836,41285,-1,-1,0
1837,41295,-1,-2,0
1838,41305,0,-1,0
1839,41315,-1,-1,0
1840,41325,-1,-1,0
1841,41335,0,-1,0
1842,41345,0,-1,0
1843,41355,-1,-1,0
1844,41365,1,-2,0
1845,41375,0,-1,0
1846,41385,-1,-1,0
1847,41395,0,-1,0
1848,41405,0,-2,0
1849,41415,-1,-1,0
1850,41425,0,-1,0
1851,41435,0,-1,0
1852,41445,0,-2,0
1853,41455,-1,-1,0
1854,41465,0,-2,0
1855,41475,-1,-1,0
1856,41485,0,-2,0
1857,41495,0,-2,0
1858,41505,0,-2,0
1859,41515,0,-2,0
1860,41525,0,-1,0
1861,41535,-1,-1,0
1862,41545,-1,-2,0
1863,41555,1,-2,0
1864,41565,0,-2,0
1865,41575,-1,-2,0
1866,41585,1,-1,0
1867,41595,0,-1,0
1868,41605,0,-2,0
1869,41615,0,-2,0
1870,41625,-1,-1,0
1871,41635,-1,-1,0
1872,41645,-1,-1,0
1873,41655,0,-1,0
1874,41665,-1,-1,0
1875,41675,-1,-1,0
1876,41685,-1,-2,0
1877,41695,0,-2,0
1878,41705,0,-2,0
1879,41715,0,-2,0
1880,41725,-1,-1,0
1881,41735,0,-1,0
1882,41745,-1,-1,0
1883,41755,-1,-1,0
1884,41765,0,-1,0
1885,41775,0,-2,0
1886,41785,0,-1,0
1887,41795,-1,-1,0
1888,41805,0,-2,0
1889,41815,0,-1,0
1890,41825,0,-1,0
1891,41835,-1,-1,0
1892,41845,-1,-1,0
1893,41855,0,-1,0
1894,41865,-1,-1,0
1895,41875,-1,-1,0
1896,41885,-1,-1,0
1897,41895,0,-1,0
1898,41905,0,-2,0
1899,41915,0,-2,0
1900,41925,0,-2,0
1901,41935,-1,-1,0
1902,41945,-1,-2,0
1903,41955,-1,-3,0
1904,41965,-1,-1,0
1905,41975,0,-3,0
1906,41985,1,-2,0
1907,41995,0,-1,0
1908,42005,1,-1,0
1909,42015,0,-1,0
1910,42025,1,-1,0
1911,42035,0,-1,0
1912,42045,0,-1,0
1913,42055,0,-1,0
1914,42065,0,-1,0
1915,42075,0,-1,0
1916,42085,0,-1,0
1917,42095,0,-2,0
1918,42105,0,-1,0
1919,42115,0,-1,0
1920,42125,-1,-1,0
1921,42135,-1,-1,0
1922,42145,0,-1,0
1923,42155,0,-1,0
1924,42165,1,-2,0
1925,42175,0,-1,0
1926,42185,0,-2,0
1927,42195,-1,-1,0
1928,42205,-1,-1,0
1929,42215,-1,-1,0
1930,42225,0,-1,0
1931,42235,0,-1,0
1932,42245,-1,-1,0
1933,42255,-1,-1,0
1934,42265,0,-1,0
1935,42275,0,-2,0
1936,42285,0,-2,0
1937,42295,-1,-1,0
1938,42305,0,-1,0
1939,42315,0,-1,0
1940,42325,-1,-1,0
1941,42335,-1,-1,0
1942,42345,0,-1,0
1943,42355,0,-1,0
1944,42365,-1,-2,0
1945,42375,-1,-2,0
1946,42385,-1,-2,0
1947,42395,0,-1,0
1948,42405,0,-1,0
1949,42415,0,-1,0
1950,42425,-1,-1,0
1951,42435,-1,-1,0
1952,42445,0,-1,0
1953,42455,1,-1,0
1954,42465,-1,-1,0
1955,42475,-1,-1,0
1956,42485,-1,-1,0
1957,42495,-1,-1,0
1958,42505,0,-2,0
1959,42515,1,-1,0
1960,42525,0,-2,0
1961,42535,0,-1,0
1962,42545,0,-1,0
1963,42555,0,-1,0
1964,42565,0,-1,0
1965,42575,0,-1,0
1966,42585,1,-1,0
1967,42595,-1,-1,0
1968,42605,1,-2,0
1969,42615,0,-1,0
1970,42625,0,-1,0
1971,42635,-1,-1,0
1972,42645,0,-1,0
1973,42655,-1,-1,0
1974,42665,-1,-2,0
1975,42675,-1,-1,0
1976,42685,0,-1,0
1977,42695,0,-1,0
1978,42705,-1,-1,0
1979,42715,-1,-1,0
1980,42725,0,-1,0
1981,42735,-1,-2,0
1982,42745,0,-1,0
1983,42755,0,-1,0
1984,42765,-1,-1,0
1985,42775,-1,-1,0
1986,42785,0,-1,0
1987,42795,-1,-1,0
1988,42805,0,-2,0
1989,42815,0,-2,0
1990,42825,-1,-1,0
1991,42835,-1,-1,0
1992,42845,-1,-1,0
1993,42855,0,-1,0
1994,42865,0,-2,0
1995,42875,-1,-2,0
1996,42885,-1,-2,0
1997,42895,0,-1,0
1998,42905,0,-1,0
1999,42915,0,-2,0
2000,42925,-1,-2,0
2001,42935,0,-1,0
2002,42945,-1,-1,0
2003,42955,0,-1,0
2004,42965,0,-2,0
2005,42975,0,-1,0
2006,42985,-1,-1,0
2007,42995,-1,-1,0
2008,43005,0,-2,0
2009,43015,0,-2,0
2010,43025,0,-1,0
2011,43035,0,-1,0
2012,43045,0,-1,0
2013,43055,0,-1,0
2014,43065,0,-1,0
2015,43075,0,-2,0
2016,43085,0,-2,0
2017,43095,0,-1,0
2018,43105,0,-1,0
2019,43115,-1,-1,0
2020,43125,-1,0,0
2021,43135,0,-1,0
2022,43145,-1,-1,0
2023,43155,0,-1,0
2024,43165,0,-1,0
2025,43175,0,-1,0
2026,43185,0,-1,0
2027,43195,0,-1,0
2028,43205,0,-1,0
2029,43215,1,-1,0
2030,43225,0,-2,0
2031,43235,0,-1,0
2032,43245,0,-1,0
2033,43255,0,-1,0
2034,43265,0,-1,0
2035,43275,0,-1,0
2036,43285,0,-1,0
2037,43295,0,-1,0
2038,43305,0,-1,0
2039,43315,-1,-2,0
2040,43325,-1,-1,0
2041,43335,-1,-1,0
2042,43345,-1,-1,0
2043,43355,-1,-2,0
2044,43365,0,-2,0
2045,43375,0,-2,0
2046,43385,0,-1,0
2047,43395,0,-1,0
2048,43405,1,-1,0
2049,43415,0,-1,0
2050,43425,0,-1,0
2051,43435,-1,-1,0
2052,43445,-2,-1,0
2053,43455,-1,-1,0
2054,43465,-1,-1,0
2055,43475,-1,-1,0
2056,43485,-1,-1,0
2057,43495,0,-1,0
2058,43505,0,-1,0
2059,43515,0,-1,0
2060,43525,0,-2,0
2061,43535,1,-1,0
2062,43545,0,-2,0
2063,43555,0,-2,0
2064,43565,0,-1,0
2065,43575,-1,-1,0
2066,43585,-1,-1,0
2067,43595,-1,-1,0
2068,43605,-1,-1,0
2069,43615,-1,-1,0
2070,43625,-1,-1,0
2071,43635,-1,-1,0
2072,43645,-1,-1,0
2073,43655,-1,-1,0
2074,43665,-1,-1,0
2075,43675,0,-1,0
2076,43685,0,-1,0
2077,43695,0,-1,0
2078,43705,0,-1,0
2079,43715,0,-1,0
2080,43725,0,-2,0
2081,43735,1,-1,0
2082,43745,0,-1,0
2083,43755,0,-1,0
2084,43765,0,-2,0
2085,43775,0,-2,0
2086,43785,0,-2,0
2087,43795,-1,-1,0
2088,43805,-1,-1,0
2089,43815,-1,-1,0
2090,43825,-1,-1,0
2091,43835,-1,-1,0
2092,43845,-1,-2,0
2093,43855,-1,-2,0
2094,43865,-1,-2,0
2095,43875,-1,-1,0
2096,43885,-1,-1,0
2097,43895,0,-1,0
2098,43905,0,-1,0
2099,43915,0,-2,0
2100,43925,0,-2,0
2101,43935,0,-1,0
2102,43945,-1,-1,0
2103,43955,-1,-1,0
2104,43965,-1,-1,0
2105,43975,0,-1,0
2106,43985,0,-1,0
2107,43995,1,-2,0
2108,44005,0,-1,0
2109,44015,-1,-1,0
2110,44025,-1,-1,0
2111,44035,-1,-1,0
2112,44045,0,-1,0
2113,44055,0,-1,0
2114,44065,0,-1,0
2115,44075,-1,-1,0
2116,44085,-1,-1,0
2117,44095,-2,-2,0
2118,44105,0,-1,0
2119,44115,0,-1,0
2120,44125,1,-1,0
2121,44135,-1,-1,0
2122,44145,-1,-1,0
2123,44155,-1,-1,0
2124,44165,-1,-1,0
2125,44175,0,-1,0
2126,44185,0,-1,0
2127,44195,1,-1,0
2128,44205,0,-1,0
2129,44215,1,-1,0
2130,44225,0,-1,0
2131,44235,-1,-2,0
2132,44245,-1,-2,0
2133,44255,-1,-1,0
2134,44265,-1,-1,0
2135,44275,-1,-1,0
2136,44285,-1,-1,0
2137,44295,-1,-1,0
2138,44305,-1,-1,0
2139,44315,0,-1,0
2140,44325,0,-1,0
2141,44335,1,-1,0
2142,44345,0,-1,0
2143,44355,0,-1,0
2144,44365,0,-1,0
2145,44375,0,-2,0
2146,44385,-1,-1,0
2147,44395,-1,-2,0
2148,44405,-1,-1,0
2149,44415,-1,-1,0
2150,44425,-1,-2,0
