,ts,id,Ax,Ay,Az,Gx,Gy,Gz
0,-0.371,IMU0,0.00390625,-1.0107421875,-0.0673828125,0.5487804878048781,-0.9146341463414634,0.0
1,-0.371,IMU1,0.0048828125,-1.015625,-0.0517578125,0.06097560975609757,-0.426829268292683,0.48780487804878053
2,-0.361,IMU0,0.0078125,-1.01171875,-0.0712890625,0.48780487804878053,-0.7317073170731708,0.0
3,-0.361,IMU1,0.0078125,-1.0166015625,-0.0556640625,0.06097560975609757,-0.30487804878048785,0.48780487804878053
4,-0.351,IMU0,0.0087890625,-1.0107421875,-0.072265625,0.426829268292683,-0.6707317073170732,-0.06097560975609757
5,-0.351,IMU1,0.0087890625,-1.0146484375,-0.0546875,-0.06097560975609757,-0.30487804878048785,0.3658536585365854
6,-0.341,IMU0,0.0048828125,-1.0087890625,-0.0693359375,0.3658536585365854,-0.6707317073170732,-0.1829268292682927
7,-0.341,IMU1,0.0048828125,-1.013671875,-0.0498046875,-0.12195121951219513,-0.30487804878048785,0.3658536585365854
8,-0.331,IMU0,-0.0009765625,-1.0107421875,-0.068359375,0.30487804878048785,-0.7317073170731708,-0.12195121951219513
9,-0.331,IMU1,0.001953125,-1.013671875,-0.05078125,-0.1829268292682927,-0.3658536585365854,0.30487804878048785
10,-0.321,IMU0,0.0048828125,-1.0068359375,-0.0634765625,0.30487804878048785,-1.0365853658536586,-0.06097560975609757
11,-0.321,IMU1,0.0078125,-1.01171875,-0.0498046875,-0.12195121951219513,-0.6707317073170732,0.3658536585365854
12,-0.311,IMU0,0.0078125,-1.0048828125,-0.0703125,0.3658536585365854,-1.0365853658536586,-0.1829268292682927
13,-0.311,IMU1,0.0107421875,-1.0087890625,-0.0546875,-0.12195121951219513,-0.6707317073170732,0.24390243902439027
14,-0.301,IMU0,0.0029296875,-1.001953125,-0.0771484375,0.3658536585365854,-0.7317073170731708,-0.24390243902439027
15,-0.301,IMU1,0.00390625,-1.0087890625,-0.060546875,-0.1829268292682927,-0.3658536585365854,0.1829268292682927
16,-0.291,IMU0,0.0009765625,-1.001953125,-0.080078125,0.30487804878048785,-0.5487804878048781,-0.24390243902439027
17,-0.291,IMU1,0.001953125,-1.005859375,-0.064453125,-0.24390243902439027,-0.06097560975609757,0.12195121951219513
18,-0.281,IMU0,0.00390625,-1.0,-0.0859375,0.30487804878048785,-0.5487804878048781,-0.12195121951219513
19,-0.281,IMU1,0.00390625,-1.0048828125,-0.0703125,-0.24390243902439027,-0.06097560975609757,0.24390243902439027
20,-0.271,IMU0,0.0087890625,-1.0009765625,-0.08984375,0.3658536585365854,-0.7317073170731708,-0.12195121951219513
21,-0.271,IMU1,0.009765625,-1.0048828125,-0.0732421875,-0.1829268292682927,-0.30487804878048785,0.30487804878048785
22,-0.261,IMU0,0.0185546875,-1.0009765625,-0.0869140625,0.48780487804878053,-0.853658536585366,-0.1829268292682927
23,-0.261,IMU1,0.01953125,-1.0068359375,-0.0703125,-0.06097560975609757,-0.3658536585365854,0.30487804878048785
24,-0.251,IMU0,0.0185546875,-1.00390625,-0.08203125,0.5487804878048781,-0.853658536585366,-0.3658536585365854
25,-0.251,IMU1,0.0205078125,-1.0087890625,-0.0654296875,0.0,-0.426829268292683,0.1829268292682927
26,-0.241,IMU0,0.0048828125,-1.005859375,-0.078125,0.6097560975609757,-0.9756097560975611,-0.426829268292683
27,-0.241,IMU1,0.0078125,-1.0107421875,-0.0615234375,0.06097560975609757,-0.5487804878048781,0.12195121951219513
28,-0.231,IMU0,0.00390625,-1.005859375,-0.08203125,0.6707317073170732,-0.853658536585366,-0.30487804878048785
29,-0.231,IMU1,0.0048828125,-1.01171875,-0.06640625,0.06097560975609757,-0.3658536585365854,0.24390243902439027
30,-0.221,IMU0,0.015625,-1.0048828125,-0.0869140625,0.6707317073170732,-0.6707317073170732,-0.12195121951219513
31,-0.221,IMU1,0.017578125,-1.0107421875,-0.0703125,0.12195121951219513,-0.30487804878048785,0.30487804878048785
32,-0.211,IMU0,0.0205078125,-1.0048828125,-0.0888671875,0.6707317073170732,-0.9146341463414634,-0.1829268292682927
33,-0.211,IMU1,0.0234375,-1.009765625,-0.07421875,0.1829268292682927,-0.48780487804878053,0.24390243902439027
34,-0.201,IMU0,0.01953125,-1.00390625,-0.080078125,0.7926829268292683,-0.9756097560975611,-0.30487804878048785
35,-0.201,IMU1,0.0234375,-1.009765625,-0.064453125,0.1829268292682927,-0.48780487804878053,0.12195121951219513
36,-0.191,IMU0,0.00390625,-1.00390625,-0.0712890625,0.853658536585366,-0.853658536585366,-0.3658536585365854
37,-0.191,IMU1,0.0078125,-1.0087890625,-0.0556640625,0.24390243902439027,-0.5487804878048781,0.06097560975609757
38,-0.181,IMU0,-0.0029296875,-1.00390625,-0.0673828125,0.9146341463414634,-0.9146341463414634,-0.24390243902439027
39,-0.181,IMU1,0.0,-1.0087890625,-0.05078125,0.30487804878048785,-0.6097560975609757,0.1829268292682927
40,-0.171,IMU0,0.0068359375,-1.00390625,-0.076171875,0.9146341463414634,-0.9146341463414634,-0.12195121951219513
41,-0.171,IMU1,0.0087890625,-1.009765625,-0.0595703125,0.3658536585365854,-0.5487804878048781,0.3658536585365854
42,-0.161,IMU0,0.0185546875,-1.0048828125,-0.087890625,0.7926829268292683,-0.9146341463414634,-0.12195121951219513
43,-0.161,IMU1,0.01953125,-1.0087890625,-0.0712890625,0.30487804878048785,-0.6097560975609757,0.30487804878048785
44,-0.151,IMU0,0.0166015625,-1.0048828125,-0.0859375,0.7926829268292683,-0.853658536585366,-0.30487804878048785
45,-0.151,IMU1,0.017578125,-1.009765625,-0.068359375,0.24390243902439027,-0.5487804878048781,0.12195121951219513
46,-0.141,IMU0,0.0048828125,-1.005859375,-0.072265625,0.7926829268292683,-0.7317073170731708,-0.3658536585365854
47,-0.141,IMU1,0.0068359375,-1.009765625,-0.05859375,0.24390243902439027,-0.3658536585365854,0.12195121951219513
48,-0.131,IMU0,0.0,-1.009765625,-0.0556640625,0.7926829268292683,-0.6097560975609757,-0.30487804878048785
49,-0.131,IMU1,0.0009765625,-1.013671875,-0.0400390625,0.1829268292682927,-0.24390243902439027,0.1829268292682927
50,-0.121,IMU0,0.0078125,-1.0244140625,-0.05078125,0.7317073170731708,-0.5487804878048781,-0.12195121951219513
51,-0.121,IMU1,0.009765625,-1.0283203125,-0.033203125,0.12195121951219513,-0.24390243902439027,0.30487804878048785
52,-0.111,IMU0,0.0986328125,-3.9873046875,-0.525390625,0.6097560975609757,11.463414634146343,-1.0975609756097562
53,-0.111,IMU1,0.115234375,-4.0888671875,-0.4404296875,21.097560975609756,7.743902439024391,2.25609756097561
54,-0.101,IMU0,0.01953125,-5.3857421875,-0.2431640625,0.0,5.182926829268293,-2.378048780487805
55,-0.101,IMU1,0.046875,-5.400390625,-0.1904296875,15.000000000000002,1.402439024390244,-0.1829268292682927
56,-0.091,IMU0,0.0244140625,-6.412109375,-0.314453125,-3.7195121951219514,1.402439024390244,-1.6463414634146343
57,-0.091,IMU1,0.03125,-6.373046875,-0.2685546875,7.621951219512196,-0.12195121951219513,-0.426829268292683
58,-0.081,IMU0,-0.0673828125,-6.5693359375,-0.4453125,-2.804878048780488,-1.402439024390244,-1.4634146341463417
59,-0.081,IMU1,-0.05859375,-6.5849609375,-0.4013671875,2.5609756097560976,-1.829268292682927,-0.7926829268292683
60,-0.071,IMU0,-0.146484375,-6.6708984375,-0.5341796875,0.6097560975609757,-3.536585365853659,0.0
61,-0.071,IMU1,-0.14453125,-6.6923828125,-0.517578125,1.9512195121951221,-3.1097560975609757,0.6707317073170732
62,-0.061,IMU0,0.0537109375,-6.6845703125,-0.4345703125,2.3170731707317076,-2.8658536585365857,2.3170731707317076
63,-0.061,IMU1,0.0380859375,-6.69921875,-0.41796875,2.439024390243903,-2.5,2.8658536585365857
64,-0.051,IMU0,0.1650390625,-6.6279296875,-0.3349609375,4.329268292682928,-1.9512195121951221,1.0365853658536586
65,-0.051,IMU1,0.150390625,-6.6455078125,-0.3291015625,3.658536585365854,-0.9146341463414634,1.402439024390244
66,-0.041,IMU0,0.23046875,-6.5869140625,-0.09375,5.365853658536586,-0.1829268292682927,-1.2804878048780488
67,-0.041,IMU1,0.2265625,-6.607421875,-0.08203125,4.573170731707317,0.7926829268292683,-1.2195121951219514
68,-0.031,IMU0,0.0732421875,-6.5439453125,0.1669921875,6.646341463414635,9.26829268292683,-3.1097560975609757
69,-0.031,IMU1,0.0693359375,-6.5673828125,0.1767578125,6.036585365853659,10.24390243902439,-2.804878048780488
70,-0.021,IMU0,-0.06640625,-6.5087890625,0.3779296875,7.195121951219513,15.609756097560977,-2.378048780487805
71,-0.021,IMU1,-0.0654296875,-6.529296875,0.3857421875,6.52439024390244,16.585365853658537,-1.829268292682927
72,-0.011,IMU0,0.0107421875,-6.48046875,0.451171875,6.341463414634147,24.939024390243905,-0.5487804878048781
73,-0.011,IMU1,0.017578125,-6.4951171875,0.455078125,5.0,25.54878048780488,-0.12195121951219513
74,-0.001,IMU0,0.078125,-6.4677734375,0.1494140625,4.2682926829268295,34.32926829268293,0.24390243902439027
75,-0.001,IMU1,0.083984375,-6.478515625,0.1611328125,3.048780487804878,35.36585365853659,0.6097560975609757
76,0.009,IMU0,0.220703125,-6.4599609375,-0.146484375,2.439024390243903,43.04878048780488,-1.0365853658536586
77,0.009,IMU1,0.2060546875,-6.4755859375,-0.1455078125,1.402439024390244,43.47560975609756,-0.7926829268292683
78,0.019,IMU0,0.0859375,-6.4541015625,-0.357421875,0.853658536585366,48.90243902439025,-2.682926829268293
79,0.019,IMU1,0.0654296875,-6.46875,-0.34765625,0.0,49.146341463414636,-2.1951219512195124
80,0.029,IMU0,-0.0556640625,-6.4248046875,-0.369140625,-1.2804878048780488,45.0609756097561,-2.6219512195121952
81,0.029,IMU1,-0.0849609375,-6.443359375,-0.3505859375,-2.073170731707317,44.69512195121952,-1.9512195121951221
82,0.039,IMU0,-0.1796875,-6.43359375,-0.4990234375,-2.0121951219512195,45.670731707317074,0.9146341463414634
83,0.039,IMU1,-0.1689453125,-6.439453125,-0.4814453125,-2.5609756097560976,45.670731707317074,1.5853658536585367
84,0.049,IMU0,0.0166015625,-6.46484375,-0.517578125,-1.402439024390244,37.6829268292683,2.9268292682926833
85,0.049,IMU1,0.01953125,-6.4765625,-0.4833984375,-2.439024390243903,37.5,3.353658536585366
86,0.059,IMU0,0.11328125,-6.494140625,-0.330078125,-1.0365853658536586,29.32926829268293,2.073170731707317
87,0.059,IMU1,0.099609375,-6.5068359375,-0.291015625,-1.7682926829268295,29.32926829268293,2.439024390243903
88,0.069,IMU0,0.095703125,-6.4931640625,-0.0595703125,-1.1585365853658538,27.865853658536587,0.9146341463414634
89,0.069,IMU1,0.0966796875,-6.5048828125,0.001953125,-2.073170731707317,28.231707317073173,1.2804878048780488
90,0.079,IMU0,-0.0205078125,-6.505859375,0.275390625,-0.7317073170731708,22.31707317073171,0.426829268292683
91,0.079,IMU1,-0.052734375,-6.5146484375,0.3076171875,-1.1585365853658538,22.80487804878049,1.1585365853658538
92,0.089,IMU0,-0.103515625,-6.5087890625,0.4814453125,0.1829268292682927,32.19512195121951,3.1097560975609757
93,0.089,IMU1,-0.0869140625,-6.5234375,0.5078125,-0.1829268292682927,33.47560975609756,3.658536585365854
94,0.099,IMU0,0.064453125,-6.517578125,0.529296875,1.524390243902439,40.426829268292686,4.329268292682928
95,0.099,IMU1,0.0712890625,-6.5390625,0.52734375,1.3414634146341464,41.524390243902445,4.878048780487806
96,0.109,IMU0,0.171875,-6.5283203125,0.3486328125,3.2926829268292686,57.987804878048784,3.7195121951219514
97,0.109,IMU1,0.173828125,-6.5478515625,0.345703125,3.1097560975609757,59.268292682926834,3.963414634146342
98,0.119,IMU0,0.3046875,-6.5205078125,0.0380859375,4.939024390243903,70.3048780487805,1.2195121951219514
99,0.119,IMU1,0.2978515625,-6.533203125,0.0224609375,4.573170731707317,70.85365853658537,1.2804878048780488
100,0.129,IMU0,0.201171875,-6.48046875,-0.2685546875,6.158536585365854,68.47560975609757,-2.7439024390243905
101,0.129,IMU1,0.173828125,-6.5029296875,-0.2744140625,5.7926829268292686,68.10975609756098,-2.439024390243903
102,0.139,IMU0,0.3291015625,-6.46875,-0.287109375,5.914634146341464,60.304878048780495,-3.9024390243902443
103,0.139,IMU1,0.3251953125,-6.4921875,-0.2685546875,5.3048780487804885,58.41463414634147,-3.7195121951219514
104,0.149,IMU0,0.16015625,-6.48046875,-0.203125,2.439024390243903,47.07317073170732,-6.402439024390245
105,0.149,IMU1,0.1533203125,-6.4892578125,-0.154296875,1.402439024390244,47.43902439024391,-5.975609756097562
106,0.159,IMU0,0.072265625,-6.4921875,-0.060546875,-2.8658536585365857,43.78048780487805,-7.560975609756098
107,0.159,IMU1,0.046875,-6.5107421875,-0.03515625,-3.5975609756097566,43.78048780487805,-7.317073170731708
108,0.169,IMU0,-0.0283203125,-6.45703125,-0.087890625,-6.585365853658537,39.207317073170735,-7.134146341463415
109,0.169,IMU1,-0.0380859375,-6.4716796875,-0.07421875,-7.01219512195122,37.6829268292683,-6.463414634146342
110,0.179,IMU0,-0.326171875,-6.4599609375,-0.271484375,-8.231707317073171,24.75609756097561,0.9756097560975611
111,0.179,IMU1,-0.3134765625,-6.46484375,-0.2490234375,-8.841463414634147,26.28048780487805,2.1341463414634148
112,0.189,IMU0,0.4658203125,-6.46484375,-0.0693359375,-8.109756097560977,27.987804878048784,-0.48780487804878053
113,0.189,IMU1,0.4501953125,-6.4892578125,-0.064453125,-8.170731707317074,26.402439024390247,-0.853658536585366
114,0.199,IMU0,0.15234375,-6.4404296875,-0.0244140625,-7.01219512195122,21.52439024390244,-2.5
115,0.199,IMU1,0.13671875,-6.4658203125,0.015625,-7.439024390243903,21.951219512195124,-2.1951219512195124
116,0.209,IMU0,-0.015625,-6.435546875,0.30859375,-5.914634146341464,11.097560975609756,-2.5609756097560976
117,0.209,IMU1,-0.0458984375,-6.4609375,0.3291015625,-6.341463414634147,11.52439024390244,-2.25609756097561
118,0.219,IMU0,-0.0419921875,-6.4833984375,0.35546875,-5.731707317073171,-0.12195121951219513,-0.5487804878048781
119,0.219,IMU1,-0.0869140625,-6.4892578125,0.369140625,-5.731707317073171,0.7317073170731708,-0.24390243902439027
120,0.229,IMU0,-0.396484375,-6.484375,-0.021484375,-4.878048780487806,3.7195121951219514,7.378048780487806
121,0.229,IMU1,-0.3046875,-6.517578125,0.0078125,-4.207317073170732,4.024390243902439,7.560975609756098
122,0.239,IMU0,0.3134765625,-6.5400390625,-0.3525390625,-2.9268292682926833,-15.670731707317074,6.341463414634147
123,0.239,IMU1,0.296875,-6.55859375,-0.3349609375,-2.7439024390243905,-15.060975609756099,6.829268292682928
124,0.249,IMU0,0.3427734375,-6.5478515625,-0.35546875,-1.707317073170732,-15.914634146341465,2.5
125,0.249,IMU1,0.326171875,-6.560546875,-0.33984375,-2.1341463414634148,-15.182926829268293,3.048780487804878
126,0.259,IMU0,-0.1025390625,-6.5888671875,-0.162109375,-0.48780487804878053,-30.426829268292686,0.24390243902439027
127,0.259,IMU1,-0.1064453125,-6.603515625,-0.1376953125,-1.0975609756097562,-29.87804878048781,0.6707317073170732
128,0.269,IMU0,-0.3525390625,-6.6162109375,0.1748046875,-0.426829268292683,-36.707317073170735,4.573170731707317
129,0.269,IMU1,-0.345703125,-6.6298828125,0.1904296875,-0.9146341463414634,-35.97560975609756,4.939024390243903
130,0.279,IMU0,-0.2802734375,-6.6484375,0.220703125,-1.402439024390244,-35.85365853658537,11.463414634146343
131,0.279,IMU1,-0.2861328125,-6.6650390625,0.2392578125,-1.707317073170732,-35.243902439024396,11.829268292682928
132,0.289,IMU0,0.15625,-6.6591796875,-0.150390625,-2.7439024390243905,-39.451219512195124,12.439024390243903
133,0.289,IMU1,0.140625,-6.673828125,-0.1279296875,-2.9268292682926833,-38.90243902439025,12.926829268292684
134,0.299,IMU0,0.3046875,-6.6611328125,-0.5009765625,-3.8414634146341466,-39.51219512195122,8.231707317073171
135,0.299,IMU1,0.2861328125,-6.6767578125,-0.4833984375,-4.085365853658537,-38.963414634146346,8.78048780487805
136,0.309,IMU0,0.0166015625,-6.646484375,-0.6162109375,-4.390243902439025,-37.31707317073171,5.121951219512195
137,0.309,IMU1,0.0029296875,-6.662109375,-0.5966796875,-4.817073170731708,-36.768292682926834,5.609756097560976
138,0.319,IMU0,-0.376953125,-6.640625,-0.4248046875,-4.51219512195122,-38.170731707317074,7.743902439024391
139,0.319,IMU1,-0.3779296875,-6.65625,-0.404296875,-5.0,-37.6219512195122,8.292682926829269
140,0.329,IMU0,-0.3076171875,-6.642578125,-0.0322265625,-5.121951219512195,-35.609756097560975,14.390243902439027
141,0.329,IMU1,-0.30859375,-6.6572265625,-0.01171875,-5.548780487804878,-34.93902439024391,14.817073170731708
142,0.339,IMU0,0.0146484375,-6.6630859375,0.078125,-6.7682926829268295,-34.390243902439025,17.012195121951223
143,0.339,IMU1,0.005859375,-6.6787109375,0.0986328125,-7.01219512195122,-33.71951219512196,17.5
144,0.349,IMU0,0.2490234375,-6.6640625,-0.060546875,-8.841463414634147,-34.024390243902445,14.02439024390244
145,0.349,IMU1,0.234375,-6.6806640625,-0.041015625,-9.02439024390244,-33.47560975609756,14.51219512195122
146,0.359,IMU0,0.095703125,-6.638671875,-0.373046875,-10.487804878048781,-32.43902439024391,10.30487804878049
147,0.359,IMU1,0.0810546875,-6.6552734375,-0.3525390625,-10.731707317073171,-31.951219512195124,10.853658536585368
148,0.369,IMU0,-0.2666015625,-6.625,-0.595703125,-11.219512195121952,-31.951219512195124,11.463414634146343
149,0.369,IMU1,-0.2763671875,-6.6396484375,-0.5732421875,-11.402439024390246,-31.463414634146343,12.073170731707318
150,0.379,IMU0,-0.3251953125,-6.630859375,-0.513671875,-11.52439024390244,-30.426829268292686,16.890243902439025
151,0.379,IMU1,-0.330078125,-6.6455078125,-0.4921875,-11.76829268292683,-30.000000000000004,17.439024390243905
152,0.389,IMU0,-0.06640625,-6.6435546875,-0.2626953125,-12.317073170731708,-28.84146341463415,20.853658536585368
153,0.389,IMU1,-0.0751953125,-6.66015625,-0.2421875,-12.439024390243903,-28.353658536585368,21.34146341463415
154,0.399,IMU0,0.193359375,-6.6513671875,-0.0283203125,-14.146341463414636,-28.780487804878053,19.573170731707318
155,0.399,IMU1,0.1796875,-6.66796875,-0.0087890625,-14.26829268292683,-28.353658536585368,20.0
156,0.409,IMU0,0.1396484375,-6.654296875,-0.0185546875,-16.402439024390244,-28.53658536585366,15.975609756097562
157,0.409,IMU1,0.12890625,-6.671875,0.001953125,-16.585365853658537,-28.10975609756098,16.463414634146343
158,0.419,IMU0,-0.166015625,-6.630859375,-0.232421875,-18.10975609756098,-28.53658536585366,15.54878048780488
159,0.419,IMU1,-0.1728515625,-6.6474609375,-0.2138671875,-18.170731707317074,-28.170731707317074,15.975609756097562
160,0.429,IMU0,-0.345703125,-6.615234375,-0.4775390625,-18.963414634146343,-27.621951219512198,19.634146341463417
161,0.429,IMU1,-0.3505859375,-6.630859375,-0.4560546875,-19.02439024390244,-27.195121951219516,20.182926829268293
162,0.439,IMU0,-0.1865234375,-6.62109375,-0.5439453125,-19.512195121951223,-25.853658536585368,24.512195121951223
163,0.439,IMU1,-0.1943359375,-6.63671875,-0.5224609375,-19.573170731707318,-25.426829268292686,25.000000000000004
164,0.449,IMU0,0.06640625,-6.626953125,-0.3720703125,-20.243902439024392,-24.939024390243905,25.54878048780488
165,0.449,IMU1,0.052734375,-6.6416015625,-0.3515625,-20.48780487804878,-24.390243902439025,25.975609756097562
166,0.459,IMU0,0.1318359375,-6.62890625,-0.1064453125,-21.707317073170735,-24.32926829268293,23.353658536585368
167,0.459,IMU1,0.119140625,-6.6435546875,-0.0869140625,-21.890243902439025,-23.78048780487805,23.78048780487805
168,0.469,IMU0,-0.056640625,-6.6201171875,0.0224609375,-23.53658536585366,-23.719512195121954,22.195121951219512
169,0.469,IMU1,-0.0654296875,-6.6337890625,0.04296875,-23.59756097560976,-23.170731707317074,22.621951219512198
170,0.479,IMU0,-0.244140625,-6.6103515625,-0.109375,-25.0609756097561,-23.04878048780488,24.573170731707318
171,0.479,IMU1,-0.2470703125,-6.6240234375,-0.0908203125,-25.121951219512198,-22.5609756097561,25.0609756097561
172,0.489,IMU0,-0.1796875,-6.5869140625,-0.36328125,-26.03658536585366,-21.707317073170735,28.475609756097562
173,0.489,IMU1,-0.1845703125,-6.6015625,-0.3447265625,-25.975609756097562,-21.28048780487805,28.963414634146343
174,0.499,IMU0,0.029296875,-6.5859375,-0.513671875,-26.646341463414636,-20.121951219512198,30.182926829268297
175,0.499,IMU1,0.017578125,-6.6015625,-0.4951171875,-26.646341463414636,-19.695121951219512,30.670731707317074
176,0.509,IMU0,0.140625,-6.59765625,-0.4169921875,-27.31707317073171,-19.085365853658537,28.84146341463415
177,0.509,IMU1,0.1259765625,-6.611328125,-0.3974609375,-27.439024390243905,-18.53658536585366,29.32926829268293
178,0.519,IMU0,0.0390625,-6.5849609375,-0.15625,-28.231707317073173,-18.170731707317074,27.378048780487806
179,0.519,IMU1,0.025390625,-6.5986328125,-0.1357421875,-28.353658536585368,-17.682926829268293,27.865853658536587
180,0.529,IMU0,-0.1279296875,-6.576171875,0.03125,-29.39024390243903,-17.5,28.353658536585368
181,0.529,IMU1,-0.1337890625,-6.5908203125,0.0498046875,-29.39024390243903,-16.951219512195124,28.963414634146343
182,0.539,IMU0,-0.1162109375,-6.5625,-0.001953125,-30.487804878048784,-17.012195121951223,31.03658536585366
183,0.539,IMU1,-0.12109375,-6.5751953125,0.0146484375,-30.243902439024392,-16.402439024390244,31.646341463414636
184,0.549,IMU0,0.02734375,-6.5419921875,-0.20703125,-31.280487804878053,-16.402439024390244,32.5
185,0.549,IMU1,0.017578125,-6.5576171875,-0.1904296875,-31.09756097560976,-15.79268292682927,32.987804878048784
186,0.559,IMU0,0.115234375,-6.5361328125,-0.4033203125,-32.07317073170732,-15.731707317073171,31.646341463414636
187,0.559,IMU1,0.1015625,-6.55078125,-0.3896484375,-31.82926829268293,-15.182926829268293,32.13414634146342
188,0.569,IMU0,0.0380859375,-6.53125,-0.4248046875,-32.6829268292683,-15.121951219512196,30.670731707317074
189,0.569,IMU1,0.0234375,-6.5458984375,-0.4013671875,-32.5609756097561,-14.573170731707318,31.158536585365855
190,0.579,IMU0,-0.0927734375,-6.515625,-0.2587890625,-33.23170731707317,-14.146341463414636,31.76829268292683
191,0.579,IMU1,-0.1005859375,-6.5322265625,-0.2333984375,-33.23170731707317,-13.597560975609758,32.25609756097561
192,0.589,IMU0,-0.083984375,-6.5068359375,-0.0546875,-34.08536585365854,-13.231707317073171,34.32926829268293
193,0.589,IMU1,-0.0869140625,-6.521484375,-0.033203125,-34.08536585365854,-12.74390243902439,34.81707317073171
194,0.599,IMU0,0.072265625,-6.501953125,0.009765625,-35.30487804878049,-12.621951219512196,35.426829268292686
195,0.599,IMU1,0.0673828125,-6.5166015625,0.029296875,-35.0609756097561,-12.134146341463415,36.03658536585366
196,0.609,IMU0,0.177734375,-6.482421875,-0.08984375,-36.463414634146346,-12.195121951219512,34.207317073170735
197,0.609,IMU1,0.166015625,-6.494140625,-0.0810546875,-36.28048780487805,-11.76829268292683,34.69512195121951
198,0.619,IMU0,0.109375,-6.47265625,-0.2333984375,-37.13414634146342,-11.76829268292683,32.5609756097561
199,0.619,IMU1,0.09375,-6.4873046875,-0.2236328125,-37.01219512195122,-11.341463414634147,33.109756097560975
200,0.629,IMU0,-0.03125,-6.4638671875,-0.2822265625,-37.25609756097561,-10.914634146341465,33.109756097560975
201,0.629,IMU1,-0.04296875,-6.4755859375,-0.2626953125,-37.19512195121951,-10.426829268292684,33.71951219512196
202,0.639,IMU0,-0.0478515625,-6.4599609375,-0.18359375,-37.31707317073171,-10.060975609756099,35.487804878048784
203,0.639,IMU1,-0.052734375,-6.4716796875,-0.16015625,-37.19512195121951,-9.451219512195122,36.09756097560976
204,0.649,IMU0,0.103515625,-6.4609375,-0.0126953125,-37.43902439024391,-9.26829268292683,36.951219512195124
205,0.649,IMU1,0.0986328125,-6.4765625,0.0078125,-37.25609756097561,-8.78048780487805,37.5
206,0.659,IMU0,0.2568359375,-6.466796875,0.0908203125,-37.926829268292686,-8.78048780487805,35.73170731707317
207,0.659,IMU1,0.2470703125,-6.4794921875,0.107421875,-37.6829268292683,-8.353658536585366,36.15853658536586
208,0.669,IMU0,0.2392578125,-6.44140625,0.0634765625,-38.41463414634147,-8.292682926829269,33.23170731707317
209,0.669,IMU1,0.2255859375,-6.4580078125,0.080078125,-38.10975609756098,-7.8048780487804885,33.71951219512196
210,0.679,IMU0,0.1015625,-6.42578125,-0.0322265625,-38.29268292682927,-7.743902439024391,32.31707317073171
211,0.679,IMU1,0.08984375,-6.4404296875,-0.0146484375,-38.04878048780488,-7.317073170731708,32.926829268292686
212,0.689,IMU0,0.0419921875,-6.4150390625,-0.087890625,-37.5609756097561,-6.707317073170732,33.71951219512196
213,0.689,IMU1,0.0361328125,-6.4287109375,-0.0693359375,-37.43902439024391,-6.158536585365854,34.268292682926834
214,0.699,IMU0,0.150390625,-6.4140625,-0.041015625,-36.646341463414636,-5.670731707317073,34.93902439024391
215,0.699,IMU1,0.1474609375,-6.4296875,-0.0224609375,-36.524390243902445,-5.121951219512195,35.487804878048784
216,0.709,IMU0,0.302734375,-6.4169921875,0.0888671875,-35.91463414634147,-5.060975609756098,33.90243902439025
217,0.709,IMU1,0.2978515625,-6.4306640625,0.1103515625,-35.91463414634147,-4.51219512195122,34.390243902439025
218,0.719,IMU0,0.3271484375,-6.40234375,0.2138671875,-35.54878048780488,-4.573170731707317,31.219512195121954
219,0.719,IMU1,0.3154296875,-6.41796875,0.2314453125,-35.36585365853659,-4.085365853658537,31.707317073170735
220,0.729,IMU0,0.22265625,-6.390625,0.240234375,-34.81707317073171,-4.2682926829268295,29.451219512195124
221,0.729,IMU1,0.2138671875,-6.404296875,0.25390625,-34.63414634146342,-3.8414634146341466,30.000000000000004
222,0.739,IMU0,0.1630859375,-6.37109375,0.1650390625,-33.71951219512196,-3.658536585365854,29.695121951219516
223,0.739,IMU1,0.16015625,-6.384765625,0.173828125,-33.59756097560976,-3.414634146341464,30.182926829268297
224,0.749,IMU0,0.244140625,-6.359375,0.072265625,-32.19512195121951,-3.1097560975609757,29.939024390243905
225,0.749,IMU1,0.2412109375,-6.373046875,0.0830078125,-32.19512195121951,-2.682926829268293,30.487804878048784
226,0.759,IMU0,0.37890625,-6.349609375,0.0869140625,-30.54878048780488,-2.3170731707317076,28.231707317073173
227,0.759,IMU1,0.361328125,-6.3662109375,0.0947265625,-30.670731707317074,-1.8902439024390245,28.963414634146343
228,0.769,IMU0,0.3896484375,-6.337890625,0.2119140625,-28.963414634146343,-1.6463414634146343,25.48780487804878
229,0.769,IMU1,0.380859375,-6.353515625,0.2158203125,-29.146341463414636,-1.2195121951219514,26.09756097560976
230,0.779,IMU0,0.296875,-6.3330078125,0.34765625,-27.500000000000004,-1.2804878048780488,23.353658536585368
231,0.779,IMU1,0.296875,-6.3466796875,0.3544921875,-27.682926829268297,-0.7926829268292683,23.902439024390247
232,0.789,IMU0,0.296875,-6.3330078125,0.34765625,-27.500000000000004,-1.2804878048780488,23.353658536585368
233,0.789,IMU1,0.2333984375,-6.333984375,0.3896484375,-26.158536585365855,-0.12195121951219513,23.231707317073173
234,0.799,IMU0,0.2880859375,-6.291015625,0.287109375,-24.26829268292683,0.24390243902439027,22.500000000000004
235,0.799,IMU1,0.2763671875,-6.3076171875,0.3076171875,-24.390243902439025,0.6097560975609757,23.04878048780488
236,0.809,IMU0,0.390625,-6.287109375,0.2001953125,-22.25609756097561,1.0365853658536586,20.975609756097562
237,0.809,IMU1,0.3779296875,-6.3017578125,0.2138671875,-22.439024390243905,1.4634146341463417,21.52439024390244
238,0.819,IMU0,0.4130859375,-6.27734375,0.2001953125,-20.0609756097561,2.073170731707317,18.231707317073173
239,0.819,IMU1,0.40625,-6.29296875,0.208984375,-20.30487804878049,2.439024390243903,18.902439024390244
240,0.829,IMU0,0.330078125,-6.2587890625,0.294921875,-17.926829268292686,2.5609756097560976,15.914634146341465
241,0.829,IMU1,0.330078125,-6.2734375,0.2998046875,-18.29268292682927,2.987804878048781,16.585365853658537
242,0.839,IMU0,0.2724609375,-6.255859375,0.384765625,-16.097560975609756,3.1707317073170733,15.30487804878049
243,0.839,IMU1,0.26953125,-6.26953125,0.396484375,-16.34146341463415,3.536585365853659,15.79268292682927
244,0.849,IMU0,0.34765625,-6.251953125,0.3876953125,-14.207317073170733,3.8414634146341466,14.756097560975611
245,0.849,IMU1,0.3369140625,-6.2705078125,0.4033203125,-14.390243902439027,4.207317073170732,15.30487804878049
246,0.859,IMU0,0.443359375,-6.2412109375,0.306640625,-12.378048780487806,4.024390243902439,12.560975609756099
247,0.859,IMU1,0.43359375,-6.2568359375,0.3212890625,-12.621951219512196,4.329268292682928,13.231707317073171
248,0.869,IMU0,0.423828125,-6.2177734375,0.224609375,-10.487804878048781,4.024390243902439,9.451219512195122
249,0.869,IMU1,0.419921875,-6.2373046875,0.244140625,-10.853658536585368,4.390243902439025,10.121951219512196
250,0.879,IMU0,0.3037109375,-6.1953125,0.21484375,-8.475609756097562,4.573170731707317,7.682926829268293
251,0.879,IMU1,0.302734375,-6.2099609375,0.224609375,-8.963414634146343,4.878048780487806,8.231707317073171
252,0.889,IMU0,0.251953125,-6.173828125,0.2705078125,-6.341463414634147,5.0,7.621951219512196
253,0.889,IMU1,0.2470703125,-6.1904296875,0.279296875,-6.890243902439025,5.365853658536586,8.048780487804878
254,0.899,IMU0,0.3515625,-6.1572265625,0.3525390625,-4.390243902439025,6.036585365853659,7.317073170731708
255,0.899,IMU1,0.3388671875,-6.171875,0.3603515625,-4.817073170731708,6.341463414634147,7.865853658536586
256,0.909,IMU0,0.4677734375,-6.1337890625,0.3828125,-2.6219512195121952,6.646341463414635,5.121951219512195
257,0.909,IMU1,0.4541015625,-6.1484375,0.3916015625,-3.048780487804878,6.951219512195123,5.670731707317073
258,0.919,IMU0,0.4697265625,-6.1142578125,0.3515625,-0.9146341463414634,7.01219512195122,1.707317073170732
259,0.919,IMU1,0.46484375,-6.130859375,0.369140625,-1.402439024390244,7.25609756097561,2.25609756097561
260,0.929,IMU0,0.361328125,-6.0927734375,0.275390625,0.6707317073170732,7.743902439024391,-0.7926829268292683
261,0.929,IMU1,0.359375,-6.1083984375,0.29296875,0.24390243902439027,7.926829268292684,-0.24390243902439027
262,0.939,IMU0,0.271484375,-6.0693359375,0.208984375,2.5,8.536585365853659,-1.4634146341463417
263,0.939,IMU1,0.2666015625,-6.0859375,0.224609375,2.0121951219512195,8.841463414634147,-1.0365853658536586
264,0.949,IMU0,0.3154296875,-6.046875,0.1962890625,4.390243902439025,9.695121951219512,-1.4634146341463417
265,0.949,IMU1,0.3056640625,-6.0615234375,0.2080078125,4.024390243902439,10.060975609756099,-1.0365853658536586
266,0.959,IMU0,0.4404296875,-6.03515625,0.240234375,6.158536585365854,10.670731707317074,-2.9268292682926833
267,0.959,IMU1,0.4267578125,-6.0517578125,0.2490234375,5.670731707317073,11.158536585365855,-2.6219512195121952
268,0.969,IMU0,0.48828125,-6.005859375,0.30859375,7.621951219512196,11.52439024390244,-6.097560975609756
269,0.969,IMU1,0.48046875,-6.0224609375,0.3173828125,7.01219512195122,12.01219512195122,-5.853658536585367
270,0.979,IMU0,0.4111328125,-5.9990234375,0.333984375,9.02439024390244,12.195121951219512,-9.146341463414634
271,0.979,IMU1,0.4091796875,-6.0146484375,0.345703125,8.414634146341465,12.621951219512196,-8.841463414634147
272,0.989,IMU0,0.30859375,-5.98046875,0.27734375,10.30487804878049,13.170731707317074,-10.670731707317074
273,0.989,IMU1,0.3056640625,-5.9970703125,0.296875,9.756097560975611,13.536585365853659,-10.24390243902439
274,0.999,IMU0,0.283203125,-5.9560546875,0.177734375,11.829268292682928,14.26829268292683,-11.036585365853659
275,0.999,IMU1,0.2783203125,-5.970703125,0.185546875,11.28048780487805,14.573170731707318,-10.670731707317074
276,1.009,IMU0,0.345703125,-5.94921875,0.1044921875,13.29268292682927,15.365853658536587,-11.829268292682928
277,1.009,IMU1,0.3408203125,-5.962890625,0.11328125,12.621951219512196,15.670731707317074,-11.585365853658537
278,1.019,IMU0,0.384765625,-5.9384765625,0.1181640625,14.51219512195122,16.34146341463415,-13.902439024390246
279,1.019,IMU1,0.375,-5.9521484375,0.126953125,13.719512195121952,16.646341463414636,-13.719512195121952
280,1.029,IMU0,0.328125,-5.9228515625,0.17578125,15.54878048780488,17.134146341463417,-16.158536585365855
281,1.029,IMU1,0.3173828125,-5.9345703125,0.1875,14.756097560975611,17.378048780487806,-15.79268292682927
282,1.039,IMU0,0.2333984375,-5.8935546875,0.2080078125,16.28048780487805,17.743902439024392,-17.31707317073171
283,1.039,IMU1,0.224609375,-5.908203125,0.21875,15.54878048780488,17.98780487804878,-16.890243902439025
284,1.049,IMU0,0.2041015625,-5.8740234375,0.1689453125,17.012195121951223,18.597560975609756,-17.5
285,1.049,IMU1,0.19921875,-5.8896484375,0.1767578125,16.219512195121954,18.902439024390244,-17.073170731707318
286,1.059,IMU0,0.244140625,-5.896484375,0.064453125,17.682926829268293,19.695121951219512,-17.804878048780488
287,1.059,IMU1,0.240234375,-5.9091796875,0.0732421875,16.890243902439025,19.939024390243905,-17.5
288,1.069,IMU0,0.2666015625,-5.87890625,-0.0205078125,18.170731707317074,20.731707317073173,-19.32926829268293
289,1.069,IMU1,0.2548828125,-5.890625,-0.01171875,17.25609756097561,21.03658536585366,-19.085365853658537
290,1.079,IMU0,0.203125,-5.8583984375,-0.0380859375,18.414634146341466,21.951219512195124,-20.853658536585368
291,1.079,IMU1,0.1884765625,-5.869140625,-0.021484375,17.621951219512198,22.195121951219512,-20.60975609756098
292,1.089,IMU0,0.095703125,-5.8330078125,-0.0126953125,18.658536585365855,23.475609756097562,-21.28048780487805
293,1.089,IMU1,0.0849609375,-5.8447265625,0.005859375,17.804878048780488,23.719512195121954,-20.914634146341466
294,1.099,IMU0,0.04296875,-5.8134765625,0.0234375,18.719512195121954,25.426829268292686,-20.914634146341466
295,1.099,IMU1,0.03515625,-5.826171875,0.0439453125,17.865853658536587,25.670731707317074,-20.48780487804878
296,1.109,IMU0,0.037109375,-5.8017578125,0.0087890625,18.414634146341466,27.25609756097561,-20.365853658536587
297,1.109,IMU1,0.0322265625,-5.8125,0.01953125,17.621951219512198,27.5609756097561,-19.939024390243905
298,1.119,IMU0,0.0361328125,-5.7783203125,-0.0693359375,17.865853658536587,29.08536585365854,-20.121951219512198
299,1.119,IMU1,0.0283203125,-5.7919921875,-0.0576171875,17.134146341463417,29.39024390243903,-19.695121951219512
300,1.129,IMU0,0.0087890625,-5.7607421875,-0.1552734375,17.5,30.914634146341466,-19.878048780487806
301,1.129,IMU1,-0.00390625,-5.7724609375,-0.140625,16.646341463414636,31.219512195121954,-19.512195121951223
302,1.139,IMU0,-0.060546875,-5.7470703125,-0.18359375,17.073170731707318,32.19512195121951,-19.02439024390244
303,1.139,IMU1,-0.0703125,-5.7587890625,-0.169921875,16.28048780487805,32.5,-18.53658536585366
304,1.149,IMU0,-0.07421875,-5.7255859375,-0.1572265625,16.585365853658537,33.71951219512196,-17.25609756097561
305,1.149,IMU1,-0.078125,-5.736328125,-0.1318359375,15.853658536585368,33.963414634146346,-16.70731707317073
306,1.159,IMU0,-0.0107421875,-5.7109375,-0.1083984375,16.03658536585366,35.0609756097561,-15.914634146341465
307,1.159,IMU1,-0.0126953125,-5.7236328125,-0.083984375,15.243902439024392,35.30487804878049,-15.487804878048783
308,1.169,IMU0,0.0283203125,-5.70703125,-0.1005859375,15.121951219512196,35.609756097560975,-15.914634146341465
309,1.169,IMU1,0.01953125,-5.7177734375,-0.083984375,14.329268292682928,35.85365853658537,-15.54878048780488
310,1.179,IMU0,0.001953125,-5.693359375,-0.1484375,14.02439024390244,36.463414634146346,-16.097560975609756
311,1.179,IMU1,-0.009765625,-5.7041015625,-0.1337890625,13.29268292682927,36.58536585365854,-15.670731707317074
312,1.189,IMU0,-0.08203125,-5.6787109375,-0.240234375,12.865853658536587,37.19512195121951,-15.54878048780488
313,1.189,IMU1,-0.09375,-5.6904296875,-0.2294921875,12.073170731707318,37.31707317073171,-15.060975609756099
314,1.199,IMU0,-0.140625,-5.6767578125,-0.3251953125,11.707317073170733,37.80487804878049,-13.963414634146343
315,1.199,IMU1,-0.1484375,-5.689453125,-0.3095703125,10.853658536585368,38.04878048780488,-13.475609756097562
316,1.209,IMU0,-0.138671875,-5.67578125,-0.3427734375,10.487804878048781,38.71951219512196,-12.134146341463415
317,1.209,IMU1,-0.1435546875,-5.6865234375,-0.322265625,9.634146341463415,39.024390243902445,-11.585365853658537
318,1.219,IMU0,-0.1142578125,-5.6533203125,-0.296875,9.085365853658537,39.63414634146342,-10.792682926829269
319,1.219,IMU1,-0.1201171875,-5.6640625,-0.2744140625,8.231707317073171,40.0,-10.30487804878049
320,1.229,IMU0,-0.111328125,-5.6318359375,-0.240234375,7.439024390243903,40.487804878048784,-10.0
321,1.229,IMU1,-0.123046875,-5.6416015625,-0.2177734375,6.52439024390244,40.73170731707317,-9.573170731707318
322,1.239,IMU0,-0.1572265625,-5.61328125,-0.236328125,5.487804878048781,41.463414634146346,-9.02439024390244
323,1.239,IMU1,-0.1669921875,-5.6259765625,-0.21875,4.75609756097561,41.768292682926834,-8.475609756097562
324,1.249,IMU0,-0.1953125,-5.599609375,-0.30859375,3.658536585365854,42.25609756097561,-7.317073170731708
325,1.249,IMU1,-0.2021484375,-5.6103515625,-0.2939453125,2.8658536585365857,42.50000000000001,-6.7682926829268295
326,1.259,IMU0,-0.19140625,-5.576171875,-0.3837890625,1.7682926829268295,43.10975609756098,-5.121951219512195
327,1.259,IMU1,-0.197265625,-5.58984375,-0.369140625,1.2804878048780488,43.35365853658537,-4.695121951219512
328,1.269,IMU0,-0.16015625,-5.556640625,-0.3984375,0.12195121951219513,44.146341463414636,-3.4756097560975614
329,1.269,IMU1,-0.1640625,-5.5673828125,-0.37890625,-0.426829268292683,44.268292682926834,-3.048780487804878
330,1.279,IMU0,-0.13671875,-5.54296875,-0.34375,-1.524390243902439,44.81707317073171,-2.5
331,1.279,IMU1,-0.14453125,-5.5546875,-0.314453125,-2.1341463414634148,45.00000000000001,-2.0121951219512195
332,1.289,IMU0,-0.154296875,-5.53125,-0.259765625,-3.4756097560975614,45.426829268292686,-1.402439024390244
333,1.289,IMU1,-0.1611328125,-5.5439453125,-0.23828125,-3.9024390243902443,45.670731707317074,-0.9756097560975611
334,1.299,IMU0,-0.1708984375,-5.5166015625,-0.2333984375,-5.365853658536586,46.03658536585366,-0.06097560975609757
335,1.299,IMU1,-0.1767578125,-5.5283203125,-0.212890625,-5.670731707317073,46.21951219512196,0.426829268292683
336,1.309,IMU0,-0.169921875,-5.5009765625,-0.2685546875,-7.073170731707318,46.82926829268293,1.4634146341463417
337,1.309,IMU1,-0.17578125,-5.5146484375,-0.2451171875,-7.378048780487806,47.13414634146342,1.9512195121951221
338,1.319,IMU0,-0.1435546875,-5.4912109375,-0.3095703125,-8.597560975609756,47.6829268292683,2.9268292682926833
339,1.319,IMU1,-0.1494140625,-5.50390625,-0.2900390625,-8.902439024390244,47.987804878048784,3.353658536585366
340,1.329,IMU0,-0.119140625,-5.48046875,-0.310546875,-10.0,48.47560975609756,3.963414634146342
341,1.329,IMU1,-0.126953125,-5.494140625,-0.2900390625,-10.182926829268293,48.78048780487805,4.451219512195122
342,1.339,IMU0,-0.099609375,-5.4794921875,-0.25,-11.28048780487805,49.268292682926834,4.817073170731708
343,1.339,IMU1,-0.107421875,-5.4921875,-0.228515625,-11.52439024390244,49.51219512195122,5.3048780487804885
344,1.349,IMU0,-0.0986328125,-5.4599609375,-0.169921875,-12.621951219512196,49.75609756097561,5.487804878048781
345,1.349,IMU1,-0.1064453125,-5.47265625,-0.150390625,-12.865853658536587,50.0609756097561,5.914634146341464
346,1.359,IMU0,-0.107421875,-5.4482421875,-0.1357421875,-13.963414634146343,50.36585365853659,6.463414634146342
347,1.359,IMU1,-0.11328125,-5.4609375,-0.1171875,-14.146341463414636,50.60975609756098,6.890243902439025
348,1.369,IMU0,-0.0888671875,-5.4541015625,-0.1650390625,-15.182926829268293,50.79268292682927,7.500000000000001
349,1.369,IMU1,-0.0947265625,-5.466796875,-0.146484375,-15.243902439024392,50.97560975609756,7.926829268292684
350,1.379,IMU0,-0.052734375,-5.4619140625,-0.2001953125,-16.097560975609756,51.34146341463415,8.231707317073171
351,1.379,IMU1,-0.060546875,-5.4736328125,-0.181640625,-16.158536585365855,51.40243902439025,8.658536585365855
352,1.389,IMU0,-0.029296875,-5.4599609375,-0.185546875,-16.82926829268293,52.01219512195122,8.658536585365855
353,1.389,IMU1,-0.0380859375,-5.47265625,-0.1650390625,-17.012195121951223,52.25609756097561,9.085365853658537
354,1.399,IMU0,-0.0361328125,-5.455078125,-0.11328125,-17.31707317073171,52.6829268292683,8.841463414634147
355,1.399,IMU1,-0.04296875,-5.4677734375,-0.095703125,-17.621951219512198,52.86585365853659,9.26829268292683
356,1.409,IMU0,-0.0380859375,-5.4755859375,-0.0244140625,-17.865853658536587,53.41463414634147,9.51219512195122
357,1.409,IMU1,-0.04296875,-5.4873046875,-0.0068359375,-18.04878048780488,53.59756097560976,9.939024390243903
358,1.419,IMU0,-0.0185546875,-5.46484375,0.0263671875,-18.29268292682927,54.024390243902445,10.182926829268293
359,1.419,IMU1,-0.0234375,-5.4775390625,0.041015625,-18.475609756097562,54.268292682926834,10.609756097560977
360,1.429,IMU0,0.03515625,-5.431640625,0.0234375,-18.475609756097562,54.51219512195122,10.426829268292684
361,1.429,IMU1,0.0283203125,-5.4443359375,0.0380859375,-18.597560975609756,54.57317073170732,10.914634146341465
362,1.439,IMU0,0.083984375,-5.3984375,0.0,-18.53658536585366,55.304878048780495,10.121951219512196
363,1.439,IMU1,0.0751953125,-5.4130859375,0.013671875,-18.658536585365855,55.426829268292686,10.548780487804878
364,1.449,IMU0,0.072265625,-5.3671875,0.0048828125,-18.231707317073173,55.91463414634147,9.451219512195122
365,1.449,IMU1,0.064453125,-5.380859375,0.01953125,-18.53658536585366,56.09756097560976,9.939024390243903
366,1.459,IMU0,0.0439453125,-5.337890625,0.0712890625,-17.621951219512198,57.01219512195122,9.26829268292683
367,1.459,IMU1,0.0380859375,-5.3515625,0.0859375,-17.98780487804878,57.25609756097561,9.695121951219512
368,1.469,IMU0,0.0439453125,-5.30078125,0.1689453125,-17.073170731707318,57.804878048780495,9.51219512195122
369,1.469,IMU1,0.0390625,-5.3154296875,0.18359375,-17.31707317073171,57.926829268292686,9.939024390243903
370,1.479,IMU0,0.0869140625,-5.177734375,0.2275390625,-16.402439024390244,58.35365853658537,9.51219512195122
371,1.479,IMU1,0.0830078125,-5.19140625,0.2421875,-16.585365853658537,58.47560975609757,9.878048780487806
372,1.489,IMU0,0.1162109375,-4.85546875,0.21875,-15.731707317073171,58.963414634146346,8.78048780487805
373,1.489,IMU1,0.1123046875,-4.865234375,0.232421875,-15.914634146341465,59.085365853658544,9.26829268292683
374,1.499,IMU0,0.109375,-4.3271484375,0.1796875,-14.756097560975611,59.024390243902445,8.109756097560977
375,1.499,IMU1,0.1064453125,-4.3369140625,0.1962890625,-15.060975609756099,59.268292682926834,8.475609756097562
376,1.509,IMU0,0.08984375,-3.6982421875,0.16796875,-13.658536585365855,59.57317073170732,7.621951219512196
377,1.509,IMU1,0.08984375,-3.7080078125,0.1865234375,-13.902439024390246,59.81707317073171,7.987804878048781
378,1.519,IMU0,0.09375,-3.16796875,0.2021484375,-12.195121951219512,60.00000000000001,7.317073170731708
379,1.519,IMU1,0.0927734375,-3.17578125,0.220703125,-12.500000000000002,60.1829268292683,7.682926829268293
380,1.529,IMU0,0.1201171875,-2.994140625,0.2822265625,-10.792682926829269,60.060975609756106,6.7682926829268295
381,1.529,IMU1,0.1220703125,-3.00390625,0.2998046875,-10.975609756097562,60.304878048780495,7.134146341463415
382,1.539,IMU0,0.15625,-2.9794921875,0.337890625,-9.573170731707318,60.1829268292683,5.975609756097562
383,1.539,IMU1,0.15625,-2.9912109375,0.3447265625,-9.878048780487806,60.487804878048784,6.341463414634147
384,1.549,IMU0,0.1416015625,-2.0810546875,0.37890625,-7.560975609756098,59.085365853658544,4.817073170731708
385,1.549,IMU1,0.140625,-2.078125,0.3955078125,-7.8048780487804885,59.39024390243903,5.182926829268293
386,1.559,IMU0,0.1162109375,-1.3291015625,0.4150390625,-5.7926829268292686,58.65853658536586,3.963414634146342
387,1.559,IMU1,0.1220703125,-1.33203125,0.42578125,-5.975609756097562,58.84146341463415,4.329268292682928
388,1.569,IMU0,0.140625,-0.86328125,0.375,-3.353658536585366,59.085365853658544,3.2926829268292686
389,1.569,IMU1,0.146484375,-0.86328125,0.3916015625,-3.536585365853659,59.207317073170735,3.5975609756097566
390,1.579,IMU0,0.1611328125,-0.4697265625,0.38671875,-1.4634146341463417,58.78048780487806,2.0121951219512195
391,1.579,IMU1,0.166015625,-0.4716796875,0.4013671875,-1.6463414634146343,58.963414634146346,2.378048780487805
392,1.589,IMU0,0.150390625,-0.1669921875,0.3857421875,0.30487804878048785,58.963414634146346,0.48780487804878053
393,1.589,IMU1,0.1552734375,-0.1669921875,0.3974609375,0.0,59.146341463414636,0.853658536585366
394,1.599,IMU0,0.0859375,-0.009765625,0.3564453125,2.1341463414634148,59.146341463414636,-0.6707317073170732
395,1.599,IMU1,0.0908203125,-0.009765625,0.3701171875,1.829268292682927,59.268292682926834,-0.24390243902439027
396,1.609,IMU0,0.025390625,0.078125,0.3076171875,3.963414634146342,59.207317073170735,-0.6707317073170732
397,1.609,IMU1,0.0322265625,0.078125,0.3212890625,3.536585365853659,59.39024390243903,-0.24390243902439027
398,1.619,IMU0,0.0517578125,0.123046875,0.2626953125,5.670731707317073,59.51219512195122,-0.48780487804878053
399,1.619,IMU1,0.0595703125,0.1201171875,0.2744140625,5.182926829268293,59.69512195121952,-0.12195121951219513
400,1.629,IMU0,0.078125,0.138671875,0.23046875,6.951219512195123,59.81707317073171,-1.0365853658536586
401,1.629,IMU1,0.083984375,0.1376953125,0.244140625,6.585365853658537,60.00000000000001,-0.6707317073170732
402,1.639,IMU0,0.068359375,0.1640625,0.2119140625,8.109756097560977,60.00000000000001,-1.8902439024390245
403,1.639,IMU1,0.0732421875,0.1630859375,0.224609375,7.743902439024391,60.1219512195122,-1.5853658536585367
404,1.649,IMU0,0.017578125,0.1767578125,0.1923828125,9.146341463414634,60.243902439024396,-2.378048780487805
405,1.649,IMU1,0.0224609375,0.1748046875,0.20703125,8.719512195121952,60.304878048780495,-2.0121951219512195
406,1.659,IMU0,-0.021484375,0.1865234375,0.154296875,9.939024390243903,60.54878048780488,-2.073170731707317
407,1.659,IMU1,-0.0146484375,0.18359375,0.1708984375,9.451219512195122,60.67073170731708,-1.707317073170732
408,1.669,IMU0,-0.01171875,0.189453125,0.1025390625,10.548780487804878,60.85365853658537,-1.7682926829268295
409,1.669,IMU1,-0.005859375,0.1875,0.1171875,10.060975609756099,60.97560975609757,-1.3414634146341464
410,1.679,IMU0,0.0166015625,0.19140625,0.060546875,10.914634146341465,61.40243902439025,-1.707317073170732
411,1.679,IMU1,0.021484375,0.189453125,0.0751953125,10.426829268292684,61.463414634146346,-1.3414634146341464
412,1.689,IMU0,0.013671875,0.193359375,0.0419921875,11.036585365853659,61.707317073170735,-2.0121951219512195
413,1.689,IMU1,0.0166015625,0.1904296875,0.0576171875,10.609756097560977,61.768292682926834,-1.6463414634146343
414,1.699,IMU0,-0.0234375,0.1953125,0.0458984375,11.158536585365855,62.07317073170732,-2.1341463414634148
415,1.699,IMU1,-0.0205078125,0.19140625,0.0625,10.670731707317074,62.13414634146342,-1.7682926829268295
416,1.709,IMU0,-0.0556640625,0.1982421875,0.0556640625,11.28048780487805,62.865853658536594,-1.6463414634146343
417,1.709,IMU1,-0.0498046875,0.1953125,0.072265625,10.731707317073171,62.987804878048784,-1.2804878048780488
418,1.719,IMU0,-0.041015625,0.1943359375,0.04296875,11.158536585365855,63.71951219512196,-0.9756097560975611
419,1.719,IMU1,-0.03515625,0.193359375,0.0595703125,10.670731707317074,63.84146341463415,-0.6097560975609757
420,1.729,IMU0,0.005859375,0.1982421875,0.009765625,10.914634146341465,64.51219512195122,-0.853658536585366
421,1.729,IMU1,0.009765625,0.1943359375,0.0244140625,10.426829268292684,64.57317073170732,-0.5487804878048781
422,1.739,IMU0,0.0107421875,0.197265625,-0.03125,10.609756097560977,64.9390243902439,-1.1585365853658538
423,1.739,IMU1,0.0126953125,0.1943359375,-0.0126953125,10.182926829268293,65.1219512195122,-0.7926829268292683
424,1.749,IMU0,-0.025390625,0.197265625,-0.046875,10.426829268292684,65.2439024390244,-1.0975609756097562
425,1.749,IMU1,-0.0234375,0.1953125,-0.0302734375,10.0,65.3658536585366,-0.7317073170731708
426,1.759,IMU0,-0.0361328125,0.1962890625,-0.0517578125,10.060975609756099,65.60975609756098,-0.24390243902439027
427,1.759,IMU1,-0.0302734375,0.1943359375,-0.0341796875,9.573170731707318,65.73170731707317,0.06097560975609757
428,1.769,IMU0,0.025390625,0.1943359375,-0.1005859375,9.26829268292683,65.54878048780489,0.48780487804878053
429,1.769,IMU1,0.03125,0.1923828125,-0.0849609375,8.78048780487805,65.73170731707317,0.7926829268292683
430,1.779,IMU0,0.1181640625,0.19140625,-0.169921875,8.170731707317074,65.85365853658537,-0.5487804878048781
431,1.779,IMU1,0.1181640625,0.1904296875,-0.154296875,7.743902439024391,65.91463414634147,-0.12195121951219513
432,1.789,IMU0,0.05859375,0.1953125,-0.2333984375,6.829268292682928,66.46341463414635,-1.9512195121951221
433,1.789,IMU1,0.0546875,0.193359375,-0.2158203125,6.463414634146342,66.52439024390245,-1.524390243902439
434,1.799,IMU0,-0.0478515625,0.2001953125,-0.2744140625,5.609756097560976,66.95121951219512,-1.7682926829268295
435,1.799,IMU1,-0.0478515625,0.1982421875,-0.2548828125,5.2439024390243905,67.01219512195122,-1.4634146341463417
436,1.809,IMU0,-0.064453125,0.2001953125,-0.279296875,4.329268292682928,67.37804878048782,-0.30487804878048785
437,1.809,IMU1,-0.0654296875,0.1982421875,-0.259765625,4.146341463414634,67.5,0.0
438,1.819,IMU0,0.052734375,0.193359375,-0.2490234375,3.1707317073170733,67.98780487804879,0.48780487804878053
439,1.819,IMU1,0.044921875,0.1943359375,-0.234375,2.8658536585365857,68.04878048780489,0.9146341463414634
440,1.829,IMU0,0.140625,0.1962890625,-0.2119140625,1.524390243902439,68.10975609756098,-0.7926829268292683
441,1.829,IMU1,0.138671875,0.193359375,-0.1953125,1.2195121951219514,68.23170731707317,-0.3658536585365854
442,1.839,IMU0,0.0927734375,0.2041015625,-0.2080078125,-0.24390243902439027,68.17073170731707,-2.439024390243903
443,1.839,IMU1,0.1005859375,0.2021484375,-0.189453125,-0.6097560975609757,68.29268292682927,-2.0121951219512195
444,1.849,IMU0,-0.005859375,0.208984375,-0.2548828125,-1.9512195121951221,68.29268292682927,-2.1951219512195124
445,1.849,IMU1,0.0009765625,0.2080078125,-0.234375,-2.25609756097561,68.35365853658537,-1.9512195121951221
446,1.859,IMU0,0.029296875,0.2099609375,-0.3203125,-3.414634146341464,68.65853658536587,-0.9756097560975611
447,1.859,IMU1,0.0244140625,0.2080078125,-0.30078125,-3.7195121951219514,68.59756097560977,-0.6097560975609757
448,1.869,IMU0,0.162109375,0.2177734375,-0.353515625,-4.878048780487806,68.90243902439025,-0.7926829268292683
449,1.869,IMU1,0.1513671875,0.2158203125,-0.337890625,-5.182926829268293,68.96341463414635,-0.30487804878048785
450,1.879,IMU0,0.2802734375,0.2060546875,-0.31640625,-6.52439024390244,69.45121951219512,-2.439024390243903
451,1.879,IMU1,0.2724609375,0.203125,-0.302734375,-6.890243902439025,69.45121951219512,-1.829268292682927
452,1.889,IMU0,0.271484375,0.197265625,-0.234375,-8.109756097560977,70.1829268292683,-5.121951219512195
453,1.889,IMU1,0.271484375,0.1962890625,-0.2236328125,-8.536585365853659,70.1829268292683,-4.573170731707317
454,1.899,IMU0,0.16796875,0.2041015625,-0.1533203125,-9.634146341463415,70.67073170731707,-6.890243902439025
455,1.899,IMU1,0.1767578125,0.2001953125,-0.138671875,-10.121951219512196,70.67073170731707,-6.463414634146342
456,1.909,IMU0,0.1083984375,0.20703125,-0.1220703125,-10.792682926829269,71.40243902439025,-7.134146341463415
457,1.909,IMU1,0.1103515625,0.205078125,-0.10546875,-11.28048780487805,71.46341463414635,-6.707317073170732
458,1.919,IMU0,0.1533203125,0.2109375,-0.1416015625,-11.646341463414634,71.64634146341464,-7.317073170731708
459,1.919,IMU1,0.150390625,0.208984375,-0.125,-12.134146341463415,71.70731707317074,-6.890243902439025
460,1.929,IMU0,0.2275390625,0.20703125,-0.1474609375,-12.256097560975611,72.01219512195122,-8.963414634146343
461,1.929,IMU1,0.224609375,0.2060546875,-0.130859375,-12.74390243902439,71.95121951219512,-8.414634146341465
462,1.939,IMU0,0.1767578125,0.2021484375,-0.0927734375,-12.682926829268293,72.19512195121952,-11.341463414634147
463,1.939,IMU1,0.18359375,0.203125,-0.08203125,-13.231707317073171,72.25609756097562,-10.792682926829269
464,1.949,IMU0,0.033203125,0.201171875,-0.0146484375,-12.926829268292684,72.19512195121952,-12.500000000000002
465,1.949,IMU1,0.0439453125,0.2021484375,-0.001953125,-13.536585365853659,72.37804878048782,-12.073170731707318
466,1.959,IMU0,-0.0498046875,0.2060546875,0.037109375,-12.987804878048781,72.43902439024392,-11.890243902439025
467,1.959,IMU1,-0.04296875,0.2060546875,0.0546875,-13.475609756097562,72.6219512195122,-11.463414634146343
468,1.969,IMU0,-0.021484375,0.208984375,0.0390625,-12.865853658536587,72.43902439024392,-11.036585365853659
469,1.969,IMU1,-0.0205078125,0.20703125,0.0556640625,-13.353658536585368,72.6219512195122,-10.609756097560977
470,1.979,IMU0,0.046875,0.2080078125,0.017578125,-12.621951219512196,72.43902439024392,-11.28048780487805
471,1.979,IMU1,0.0478515625,0.20703125,0.03515625,-13.170731707317074,72.5609756097561,-10.914634146341465
472,1.989,IMU0,0.0361328125,0.208984375,0.01953125,-12.439024390243903,72.37804878048782,-12.500000000000002
473,1.989,IMU1,0.0419921875,0.2080078125,0.037109375,-12.926829268292684,72.5,-12.134146341463415
474,1.999,IMU0,-0.064453125,0.2099609375,0.056640625,-11.951219512195124,72.43902439024392,-12.926829268292684
475,1.999,IMU1,-0.0537109375,0.2099609375,0.0732421875,-12.439024390243903,72.5,-12.439024390243903
476,2.009,IMU0,-0.138671875,0.2109375,0.1064453125,-11.341463414634147,72.5609756097561,-12.073170731707318
477,2.009,IMU1,-0.1298828125,0.208984375,0.1240234375,-11.76829268292683,72.7439024390244,-11.52439024390244
478,2.019,IMU0,-0.1318359375,0.212890625,0.1396484375,-10.609756097560977,72.6829268292683,-10.853658536585368
479,2.019,IMU1,-0.126953125,0.2119140625,0.1591796875,-11.036585365853659,72.8658536585366,-10.365853658536587
480,2.029,IMU0,-0.0849609375,0.2119140625,0.150390625,-9.939024390243903,72.8048780487805,-10.30487804878049
481,2.029,IMU1,-0.0751953125,0.208984375,0.1669921875,-10.30487804878049,72.8658536585366,-9.939024390243903
482,2.039,IMU0,-0.076171875,0.2119140625,0.1435546875,-9.207317073170733,72.98780487804879,-10.609756097560977
483,2.039,IMU1,-0.0703125,0.2080078125,0.1611328125,-9.695121951219512,73.04878048780489,-10.121951219512196
484,2.049,IMU0,-0.142578125,0.212890625,0.1357421875,-8.353658536585366,72.7439024390244,-10.487804878048781
485,2.049,IMU1,-0.138671875,0.2109375,0.154296875,-8.841463414634147,72.7439024390244,-10.0
486,2.059,IMU0,-0.201171875,0.2099609375,0.1513671875,-7.317073170731708,72.5609756097561,-9.26829268292683
487,2.059,IMU1,-0.1923828125,0.2080078125,0.1689453125,-7.8048780487804885,72.6219512195122,-8.78048780487805
488,2.069,IMU0,-0.1953125,0.2060546875,0.171875,-6.219512195121951,72.13414634146342,-7.621951219512196
489,2.069,IMU1,-0.1845703125,0.205078125,0.1904296875,-6.707317073170732,72.31707317073172,-7.195121951219513
490,2.079,IMU0,-0.1474609375,0.205078125,0.1884765625,-5.182926829268293,71.89024390243902,-6.646341463414635
491,2.079,IMU1,-0.1376953125,0.2041015625,0.2060546875,-5.609756097560976,72.01219512195122,-6.219512195121951
492,2.089,IMU0,-0.1376953125,0.2060546875,0.2021484375,-4.146341463414634,71.76829268292684,-6.402439024390245
493,2.089,IMU1,-0.1318359375,0.203125,0.21875,-4.695121951219512,71.82926829268294,-5.975609756097562
494,2.099,IMU0,-0.1875,0.2099609375,0.1884765625,-3.2926829268292686,71.52439024390245,-5.914634146341464
495,2.099,IMU1,-0.1845703125,0.20703125,0.205078125,-3.7195121951219514,71.58536585365854,-5.426829268292684
496,2.109,IMU0,-0.228515625,0.2080078125,0.1611328125,-2.378048780487805,71.28048780487805,-4.51219512195122
497,2.109,IMU1,-0.2216796875,0.205078125,0.1728515625,-2.682926829268293,71.28048780487805,-3.963414634146342
498,2.119,IMU0,-0.2177734375,0.205078125,0.12890625,-1.4634146341463417,71.15853658536587,-2.804878048780488
499,2.119,IMU1,-0.20703125,0.2021484375,0.140625,-1.829268292682927,71.21951219512195,-2.25609756097561
500,2.129,IMU0,-0.1728515625,0.2021484375,0.1083984375,-0.6707317073170732,70.91463414634147,-1.7682926829268295
501,2.129,IMU1,-0.166015625,0.2001953125,0.1259765625,-1.0365853658536586,70.97560975609757,-1.2195121951219514
502,2.139,IMU0,-0.1689453125,0.2001953125,0.1259765625,0.06097560975609757,70.73170731707317,-1.0975609756097562
503,2.139,IMU1,-0.1650390625,0.19921875,0.146484375,-0.30487804878048785,70.91463414634147,-0.6097560975609757
504,2.149,IMU0,-0.203125,0.201171875,0.154296875,0.6707317073170732,70.79268292682927,-0.24390243902439027
505,2.149,IMU1,-0.19921875,0.1982421875,0.1728515625,0.3658536585365854,70.91463414634147,0.24390243902439027
506,2.159,IMU0,-0.2236328125,0.2041015625,0.1533203125,1.2804878048780488,70.60975609756098,1.1585365853658538
507,2.159,IMU1,-0.2177734375,0.2021484375,0.16796875,0.9756097560975611,70.67073170731707,1.6463414634146343
508,2.169,IMU0,-0.197265625,0.2060546875,0.1083984375,1.7682926829268295,70.79268292682927,2.682926829268293
509,2.169,IMU1,-0.1875,0.2021484375,0.123046875,1.4634146341463417,70.85365853658537,3.1097560975609757
510,2.179,IMU0,-0.16796875,0.203125,0.04296875,2.1951219512195124,70.73170731707317,3.5975609756097566
511,2.179,IMU1,-0.162109375,0.2001953125,0.05859375,1.829268292682927,70.85365853658537,3.963414634146342
512,2.189,IMU0,-0.1650390625,0.201171875,0.00390625,2.439024390243903,70.73170731707317,4.634146341463415
513,2.189,IMU1,-0.16015625,0.19921875,0.021484375,2.0121951219512195,70.73170731707317,5.0
514,2.199,IMU0,-0.1474609375,0.1962890625,-0.0205078125,2.378048780487805,70.91463414634147,5.975609756097562
515,2.199,IMU1,-0.1376953125,0.1953125,-0.00390625,2.0121951219512195,71.15853658536587,6.402439024390245
516,2.209,IMU0,-0.076171875,0.1884765625,-0.0419921875,2.1341463414634148,71.03658536585367,7.01219512195122
517,2.209,IMU1,-0.06640625,0.1865234375,-0.025390625,1.7682926829268295,71.15853658536587,7.439024390243903
518,2.219,IMU0,-0.001953125,0.1875,-0.056640625,1.6463414634146343,70.97560975609757,7.073170731707318
519,2.219,IMU1,0.0029296875,0.185546875,-0.041015625,1.3414634146341464,71.09756097560977,7.439024390243903
520,2.229,IMU0,0.0146484375,0.1884765625,-0.060546875,1.1585365853658538,71.09756097560977,6.585365853658537
521,2.229,IMU1,0.015625,0.1884765625,-0.041015625,0.9146341463414634,71.09756097560977,6.951219512195123
522,2.239,IMU0,-0.0205078125,0.1923828125,-0.0419921875,0.6707317073170732,71.21951219512195,6.463414634146342
523,2.239,IMU1,-0.017578125,0.1904296875,-0.0224609375,0.48780487804878053,71.46341463414635,6.890243902439025
524,2.249,IMU0,-0.0185546875,0.1923828125,-0.0302734375,0.30487804878048785,71.52439024390245,7.01219512195122
525,2.249,IMU1,-0.01171875,0.1904296875,-0.0146484375,0.06097560975609757,71.64634146341464,7.439024390243903
526,2.259,IMU0,0.0400390625,0.1884765625,-0.048828125,-0.24390243902439027,71.82926829268294,7.134146341463415
527,2.259,IMU1,0.048828125,0.185546875,-0.03515625,-0.48780487804878053,72.01219512195122,7.500000000000001
528,2.269,IMU0,0.09765625,0.18359375,-0.0908203125,-0.7926829268292683,71.89024390243902,6.402439024390245
529,2.269,IMU1,0.1005859375,0.181640625,-0.078125,-0.9756097560975611,71.95121951219512,6.707317073170732
530,2.279,IMU0,0.09375,0.185546875,-0.1162109375,-1.402439024390244,72.01219512195122,5.060975609756098
531,2.279,IMU1,0.08984375,0.1826171875,-0.099609375,-1.7682926829268295,71.95121951219512,5.365853658536586
532,2.289,IMU0,0.0,0.1904296875,-0.119140625,-2.073170731707317,72.19512195121952,4.573170731707317
533,2.289,IMU1,-0.0029296875,0.189453125,-0.1005859375,-2.439024390243903,72.25609756097562,5.0
534,2.299,IMU0,-0.0244140625,0.1884765625,-0.1103515625,-2.6219512195121952,72.6829268292683,5.487804878048781
535,2.299,IMU1,-0.0166015625,0.185546875,-0.091796875,-3.048780487804878,72.8658536585366,5.914634146341464
536,2.309,IMU0,0.07421875,0.1806640625,-0.1025390625,-3.536585365853659,73.17073170731707,5.975609756097562
537,2.309,IMU1,0.083984375,0.1787109375,-0.0859375,-3.780487804878049,73.23170731707317,6.341463414634147
538,2.319,IMU0,0.169921875,0.1787109375,-0.1171875,-4.573170731707317,73.53658536585367,4.634146341463415
539,2.319,IMU1,0.1728515625,0.177734375,-0.1025390625,-4.75609756097561,73.59756097560977,5.060975609756098
540,2.329,IMU0,0.158203125,0.185546875,-0.1259765625,-5.487804878048781,73.59756097560977,2.682926829268293
541,2.329,IMU1,0.1572265625,0.1826171875,-0.109375,-5.731707317073171,73.71951219512195,3.1097560975609757
542,2.339,IMU0,0.0703125,0.1875,-0.1171875,-6.2804878048780495,73.78048780487805,1.829268292682927
543,2.339,IMU1,0.072265625,0.185546875,-0.0986328125,-6.585365853658537,73.90243902439025,2.25609756097561
544,2.349,IMU0,0.0458984375,0.1845703125,-0.0927734375,-6.890243902439025,73.59756097560977,2.073170731707317
545,2.349,IMU1,0.0498046875,0.1826171875,-0.0732421875,-7.195121951219513,73.71951219512195,2.439024390243903
546,2.359,IMU0,0.107421875,0.1787109375,-0.056640625,-7.378048780487806,73.90243902439025,2.0121951219512195
547,2.359,IMU1,0.109375,0.1767578125,-0.0380859375,-7.621951219512196,73.96341463414635,2.439024390243903
548,2.369,IMU0,0.1728515625,0.1767578125,-0.01953125,-7.865853658536586,73.90243902439025,0.6707317073170732
549,2.369,IMU1,0.173828125,0.1767578125,-0.0029296875,-8.170731707317074,73.90243902439025,1.0975609756097562
550,2.379,IMU0,0.1494140625,0.1796875,0.0166015625,-8.231707317073171,73.53658536585367,-1.1585365853658538
551,2.379,IMU1,0.15234375,0.1787109375,0.0322265625,-8.597560975609756,73.65853658536587,-0.7317073170731708
552,2.389,IMU0,0.060546875,0.18359375,0.029296875,-8.475609756097562,73.59756097560977,-1.9512195121951221
553,2.389,IMU1,0.064453125,0.1826171875,0.046875,-8.841463414634147,73.59756097560977,-1.5853658536585367
554,2.399,IMU0,0.029296875,0.1826171875,0.0244140625,-8.231707317073171,73.23170731707317,-1.5853658536585367
555,2.399,IMU1,0.03125,0.1796875,0.0419921875,-8.658536585365855,73.35365853658537,-1.2195121951219514
556,2.409,IMU0,0.091796875,0.1796875,0.0390625,-7.987804878048781,73.04878048780489,-1.5853658536585367
557,2.409,IMU1,0.09375,0.177734375,0.056640625,-8.353658536585366,73.17073170731707,-1.1585365853658538
558,2.419,IMU0,0.1552734375,0.1796875,0.06640625,-7.682926829268293,73.17073170731707,-2.6219512195121952
559,2.419,IMU1,0.15625,0.1787109375,0.08203125,-8.109756097560977,73.17073170731707,-2.25609756097561
560,2.429,IMU0,0.126953125,0.181640625,0.0986328125,-7.500000000000001,72.92682926829269,-4.329268292682928
561,2.429,IMU1,0.130859375,0.1796875,0.1123046875,-7.987804878048781,72.8658536585366,-3.963414634146342
562,2.439,IMU0,0.0439453125,0.185546875,0.1064453125,-7.25609756097561,72.5,-5.121951219512195
563,2.439,IMU1,0.0498046875,0.1826171875,0.1240234375,-7.682926829268293,72.5609756097561,-4.695121951219512
564,2.449,IMU0,0.0078125,0.1865234375,0.099609375,-6.7682926829268295,72.5,-4.817073170731708
565,2.449,IMU1,0.0146484375,0.185546875,0.1162109375,-7.195121951219513,72.6219512195122,-4.329268292682928
566,2.459,IMU0,0.0478515625,0.1865234375,0.1005859375,-5.975609756097562,72.31707317073172,-4.634146341463415
567,2.459,IMU1,0.052734375,0.1845703125,0.1171875,-6.463414634146342,72.37804878048782,-4.146341463414634
568,2.469,IMU0,0.08984375,0.181640625,0.1357421875,-5.3048780487804885,72.01219512195122,-5.426829268292684
569,2.469,IMU1,0.0947265625,0.181640625,0.150390625,-5.731707317073171,72.07317073170732,-5.0
570,2.479,IMU0,0.056640625,0.1806640625,0.193359375,-4.51219512195122,71.89024390243902,-6.585365853658537
571,2.479,IMU1,0.0625,0.1796875,0.208984375,-5.0,71.95121951219512,-6.158536585365854
572,2.489,IMU0,-0.03125,0.181640625,0.23046875,-3.658536585365854,71.21951219512195,-6.890243902439025
573,2.489,IMU1,-0.021484375,0.181640625,0.24609375,-4.146341463414634,71.21951219512195,-6.463414634146342
574,2.499,IMU0,-0.080078125,0.185546875,0.2265625,-2.25609756097561,70.79268292682927,-6.158536585365854
575,2.499,IMU1,-0.0703125,0.18359375,0.2451171875,-2.9268292682926833,70.79268292682927,-5.731707317073171
576,2.509,IMU0,-0.041015625,0.181640625,0.1953125,-0.9756097560975611,70.91463414634147,-5.2439024390243905
577,2.509,IMU1,-0.033203125,0.177734375,0.2119140625,-1.7682926829268295,70.91463414634147,-4.817073170731708
578,2.519,IMU0,0.0146484375,0.1787109375,0.1533203125,-0.06097560975609757,70.67073170731707,-5.365853658536586
579,2.519,IMU1,0.0205078125,0.1767578125,0.169921875,-0.7317073170731708,70.73170731707317,-4.878048780487806
580,2.529,IMU0,-0.005859375,0.18359375,0.146484375,0.9146341463414634,70.79268292682927,-5.975609756097562
581,2.529,IMU1,0.0009765625,0.181640625,0.162109375,0.1829268292682927,70.73170731707317,-5.487804878048781
582,2.539,IMU0,-0.0673828125,0.1865234375,0.1611328125,1.707317073170732,70.73170731707317,-5.731707317073171
583,2.539,IMU1,-0.0576171875,0.18359375,0.17578125,1.1585365853658538,70.73170731707317,-5.2439024390243905
584,2.549,IMU0,-0.0625,0.181640625,0.16015625,2.5609756097560976,70.42682926829269,-4.573170731707317
585,2.549,IMU1,-0.0546875,0.1796875,0.1748046875,2.073170731707317,70.42682926829269,-4.085365853658537
586,2.559,IMU0,0.0224609375,0.17578125,0.134765625,3.231707317073171,70.1829268292683,-4.024390243902439
587,2.559,IMU1,0.0283203125,0.1728515625,0.150390625,2.7439024390243905,70.3048780487805,-3.5975609756097566
588,2.569,IMU0,0.076171875,0.1728515625,0.1064453125,4.024390243902439,69.51219512195122,-4.878048780487806
589,2.569,IMU1,0.0810546875,0.169921875,0.1220703125,3.4756097560975614,69.63414634146342,-4.390243902439025
590,2.579,IMU0,0.03515625,0.1728515625,0.1083984375,4.817073170731708,68.78048780487805,-5.7926829268292686
591,2.579,IMU1,0.0400390625,0.169921875,0.125,4.207317073170732,68.84146341463415,-5.3048780487804885
592,2.589,IMU0,-0.037109375,0.173828125,0.1328125,5.487804878048781,68.47560975609757,-5.609756097560976
593,2.589,IMU1,-0.029296875,0.171875,0.1494140625,5.0,68.53658536585367,-5.121951219512195
594,2.599,IMU0,-0.0361328125,0.171875,0.12890625,6.036585365853659,68.35365853658537,-4.634146341463415
595,2.599,IMU1,-0.0302734375,0.1708984375,0.146484375,5.548780487804878,68.35365853658537,-4.146341463414634
596,2.609,IMU0,0.0361328125,0.1708984375,0.0908203125,6.402439024390245,68.23170731707317,-4.329268292682928
597,2.609,IMU1,0.041015625,0.16796875,0.1064453125,5.975609756097562,68.29268292682927,-3.9024390243902443
598,2.619,IMU0,0.0849609375,0.1708984375,0.056640625,6.951219512195123,68.41463414634147,-5.060975609756098
599,2.619,IMU1,0.087890625,0.16796875,0.0693359375,6.402439024390245,68.47560975609757,-4.695121951219512
600,2.629,IMU0,0.0400390625,0.171875,0.080078125,7.560975609756098,68.47560975609757,-6.2804878048780495
601,2.629,IMU1,0.04296875,0.1689453125,0.09375,7.01219512195122,68.53658536585367,-5.853658536585367
602,2.639,IMU0,-0.060546875,0.171875,0.126953125,8.109756097560977,68.59756097560977,-6.036585365853659
603,2.639,IMU1,-0.0556640625,0.169921875,0.140625,7.621951219512196,68.65853658536587,-5.670731707317073
604,2.649,IMU0,-0.072265625,0.169921875,0.1337890625,8.658536585365855,68.47560975609757,-4.878048780487806
605,2.649,IMU1,-0.0654296875,0.166015625,0.150390625,8.170731707317074,68.53658536585367,-4.51219512195122
606,2.659,IMU0,0.01171875,0.1650390625,0.09375,9.02439024390244,68.29268292682927,-4.329268292682928
607,2.659,IMU1,0.017578125,0.1630859375,0.109375,8.597560975609756,68.23170731707317,-3.963414634146342
608,2.669,IMU0,0.064453125,0.1630859375,0.0244140625,9.329268292682928,68.10975609756098,-5.121951219512195
609,2.669,IMU1,0.068359375,0.1611328125,0.0380859375,8.78048780487805,68.04878048780489,-4.817073170731708
610,2.679,IMU0,-0.01171875,0.166015625,-0.0185546875,9.51219512195122,67.43902439024392,-6.158536585365854
611,2.679,IMU1,-0.0078125,0.1640625,-0.001953125,8.963414634146343,67.43902439024392,-5.853658536585367
612,2.689,IMU0,-0.1259765625,0.169921875,-0.0166015625,9.756097560975611,67.5609756097561,-5.426829268292684
613,2.689,IMU1,-0.1201171875,0.16796875,0.0009765625,9.146341463414634,67.5609756097561,-5.182926829268293
614,2.699,IMU0,-0.1337890625,0.169921875,-0.0185546875,9.817073170731708,67.7439024390244,-3.5975609756097566
615,2.699,IMU1,-0.1259765625,0.166015625,0.0,9.329268292682928,67.6219512195122,-3.1707317073170733
616,2.709,IMU0,-0.01953125,0.1650390625,-0.02734375,9.634146341463415,67.6829268292683,-2.5609756097560976
617,2.709,IMU1,-0.013671875,0.162109375,-0.0107421875,9.146341463414634,67.6829268292683,-2.1951219512195124
618,2.719,IMU0,0.0595703125,0.1591796875,-0.0595703125,9.085365853658537,67.7439024390244,-3.231707317073171
619,2.719,IMU1,0.0625,0.1552734375,-0.04296875,8.597560975609756,67.8048780487805,-2.9268292682926833
620,2.729,IMU0,-0.0029296875,0.16015625,-0.1083984375,8.475609756097562,67.6219512195122,-4.329268292682928
621,2.729,IMU1,0.0,0.1572265625,-0.09375,7.8048780487804885,67.7439024390244,-4.024390243902439
622,2.739,IMU0,-0.08984375,0.162109375,-0.1494140625,7.8048780487804885,67.8048780487805,-3.9024390243902443
623,2.739,IMU1,-0.0859375,0.16015625,-0.1318359375,7.317073170731708,67.92682926829269,-3.536585365853659
624,2.749,IMU0,-0.0986328125,0.1591796875,-0.1669921875,7.317073170731708,68.10975609756098,-2.378048780487805
625,2.749,IMU1,-0.091796875,0.158203125,-0.1494140625,6.829268292682928,68.10975609756098,-1.9512195121951221
626,2.759,IMU0,-0.017578125,0.1552734375,-0.158203125,6.52439024390244,68.17073170731707,-1.4634146341463417
627,2.759,IMU1,-0.0126953125,0.154296875,-0.1396484375,6.036585365853659,68.29268292682927,-1.0365853658536586
628,2.769,IMU0,0.0537109375,0.1513671875,-0.1318359375,5.426829268292684,68.29268292682927,-1.8902439024390245
629,2.769,IMU1,0.056640625,0.1494140625,-0.11328125,5.0,68.41463414634147,-1.5853658536585367
630,2.779,IMU0,0.0224609375,0.1572265625,-0.1123046875,4.451219512195122,68.35365853658537,-2.7439024390243905
631,2.779,IMU1,0.0244140625,0.154296875,-0.091796875,4.024390243902439,68.53658536585367,-2.378048780487805
632,2.789,IMU0,-0.01953125,0.162109375,-0.1142578125,3.658536585365854,68.35365853658537,-2.5
633,2.789,IMU1,-0.015625,0.158203125,-0.095703125,3.231707317073171,68.47560975609757,-2.1341463414634148
634,2.799,IMU0,0.0068359375,0.1572265625,-0.13671875,3.048780487804878,68.53658536585367,-1.9512195121951221
635,2.799,IMU1,0.01171875,0.154296875,-0.119140625,2.5609756097560976,68.65853658536587,-1.5853658536585367
636,2.809,IMU0,0.044921875,0.1513671875,-0.1494140625,2.3170731707317076,68.59756097560977,-2.1341463414634148
637,2.809,IMU1,0.048828125,0.150390625,-0.134765625,1.829268292682927,68.71951219512195,-1.829268292682927
638,2.819,IMU0,0.0537109375,0.15234375,-0.15234375,1.3414634146341464,68.47560975609757,-2.8658536585365857
639,2.819,IMU1,0.0546875,0.1513671875,-0.1357421875,0.9146341463414634,68.59756097560977,-2.5609756097560976
640,2.829,IMU0,0.017578125,0.15625,-0.1572265625,0.3658536585365854,68.78048780487805,-3.2926829268292686
641,2.829,IMU1,0.0185546875,0.1533203125,-0.138671875,0.0,68.84146341463415,-2.8658536585365857
642,2.839,IMU0,-0.0048828125,0.15625,-0.15625,-0.5487804878048781,68.35365853658537,-3.2926829268292686
643,2.839,IMU1,-0.00390625,0.15234375,-0.138671875,-0.853658536585366,68.47560975609757,-2.987804878048781
644,2.849,IMU0,-0.0234375,0.150390625,-0.162109375,-1.524390243902439,68.35365853658537,-3.1707317073170733
645,2.849,IMU1,-0.0234375,0.1455078125,-0.1435546875,-1.829268292682927,68.47560975609757,-2.8658536585365857
646,2.859,IMU0,-0.0244140625,0.14453125,-0.17578125,-2.5,68.29268292682927,-2.8658536585365857
647,2.859,IMU1,-0.0244140625,0.1435546875,-0.1552734375,-2.7439024390243905,68.41463414634147,-2.5609756097560976
648,2.869,IMU0,-0.0244140625,0.1484375,-0.1728515625,-3.414634146341464,67.98780487804879,-2.987804878048781
649,2.869,IMU1,-0.01953125,0.1455078125,-0.154296875,-3.7195121951219514,68.17073170731707,-2.5
650,2.879,IMU0,-0.033203125,0.1513671875,-0.154296875,-4.390243902439025,68.29268292682927,-2.804878048780488
651,2.879,IMU1,-0.029296875,0.1494140625,-0.138671875,-4.695121951219512,68.41463414634147,-2.439024390243903
652,2.889,IMU0,-0.0263671875,0.150390625,-0.1357421875,-5.182926829268293,68.35365853658537,-2.6219512195121952
653,2.889,IMU1,-0.0244140625,0.150390625,-0.1181640625,-5.609756097560976,68.41463414634147,-2.1951219512195124
654,2.899,IMU0,-0.0126953125,0.1484375,-0.103515625,-5.914634146341464,68.53658536585367,-2.8658536585365857
655,2.899,IMU1,-0.0087890625,0.1455078125,-0.0869140625,-6.341463414634147,68.65853658536587,-2.439024390243903
656,2.909,IMU0,-0.041015625,0.146484375,-0.0791015625,-6.585365853658537,68.59756097560977,-3.1097560975609757
657,2.909,IMU1,-0.037109375,0.1416015625,-0.0625,-6.951219512195123,68.71951219512195,-2.682926829268293
658,2.919,IMU0,-0.0810546875,0.1455078125,-0.0673828125,-7.195121951219513,68.41463414634147,-2.9268292682926833
659,2.919,IMU1,-0.07421875,0.142578125,-0.0478515625,-7.621951219512196,68.53658536585367,-2.5
660,2.929,IMU0,-0.0927734375,0.150390625,-0.0810546875,-7.865853658536586,68.47560975609757,-2.25609756097561
661,2.929,IMU1,-0.0888671875,0.146484375,-0.0625,-8.170731707317074,68.65853658536587,-1.829268292682927
662,2.939,IMU0,-0.0791015625,0.1484375,-0.087890625,-8.231707317073171,68.41463414634147,-1.5853658536585367
663,2.939,IMU1,-0.0771484375,0.146484375,-0.0703125,-8.597560975609756,68.53658536585367,-1.1585365853658538
664,2.949,IMU0,-0.048828125,0.1474609375,-0.056640625,-8.414634146341465,67.8048780487805,-1.2195121951219514
665,2.949,IMU1,-0.046875,0.146484375,-0.0439453125,-8.841463414634147,67.92682926829269,-0.853658536585366
666,2.959,IMU0,-0.03515625,0.1484375,0.001953125,-8.475609756097562,67.6219512195122,-1.0975609756097562
667,2.959,IMU1,-0.0322265625,0.1474609375,0.013671875,-8.902439024390244,67.6829268292683,-0.6707317073170732
668,2.969,IMU0,-0.0341796875,0.1494140625,0.0615234375,-8.597560975609756,67.01219512195122,-1.0365853658536586
669,2.969,IMU1,-0.029296875,0.1484375,0.07421875,-8.963414634146343,67.13414634146342,-0.6097560975609757
670,2.979,IMU0,-0.029296875,0.1494140625,0.07421875,-8.658536585365855,66.58536585365854,-0.853658536585366
671,2.979,IMU1,-0.0234375,0.1484375,0.0908203125,-9.02439024390244,66.76829268292684,-0.426829268292683
672,2.989,IMU0,-0.005859375,0.1494140625,0.0498046875,-8.414634146341465,66.58536585365854,-0.6707317073170732
673,2.989,IMU1,-0.0029296875,0.146484375,0.06640625,-8.841463414634147,66.76829268292684,-0.24390243902439027
674,2.999,IMU0,0.01953125,0.146484375,0.017578125,-8.231707317073171,66.09756097560977,-0.7317073170731708
675,2.999,IMU1,0.0224609375,0.146484375,0.0341796875,-8.597560975609756,66.28048780487805,-0.3658536585365854
676,3.009,IMU0,0.0400390625,0.1474609375,0.0283203125,-7.8048780487804885,66.03658536585367,-1.402439024390244
677,3.009,IMU1,0.044921875,0.1435546875,0.04296875,-8.292682926829269,66.21951219512195,-0.9756097560975611
678,3.019,IMU0,0.005859375,0.1484375,0.0751953125,-7.317073170731708,66.09756097560977,-1.8902439024390245
679,3.019,IMU1,0.0126953125,0.146484375,0.087890625,-7.743902439024391,66.15853658536587,-1.4634146341463417
680,3.029,IMU0,-0.0322265625,0.1474609375,0.1279296875,-6.829268292682928,65.54878048780489,-1.7682926829268295
681,3.029,IMU1,-0.0244140625,0.1455078125,0.142578125,-7.195121951219513,65.67073170731707,-1.3414634146341464
682,3.039,IMU0,-0.021484375,0.1484375,0.1357421875,-6.2804878048780495,65.3658536585366,-1.3414634146341464
683,3.039,IMU1,-0.017578125,0.1474609375,0.1552734375,-6.7682926829268295,65.3658536585366,-0.9146341463414634
684,3.049,IMU0,0.013671875,0.1494140625,0.087890625,-6.036585365853659,65.1829268292683,-1.2804878048780488
685,3.049,IMU1,0.0205078125,0.1484375,0.1015625,-6.402439024390245,65.3658536585366,-0.7926829268292683
686,3.059,IMU0,0.041015625,0.1484375,0.0341796875,-5.670731707317073,64.9390243902439,-1.6463414634146343
687,3.059,IMU1,0.044921875,0.1474609375,0.0458984375,-5.975609756097562,64.9390243902439,-1.2804878048780488
688,3.069,IMU0,0.0263671875,0.1474609375,0.0205078125,-5.121951219512195,65.0,-2.1951219512195124
689,3.069,IMU1,0.0283203125,0.14453125,0.0390625,-5.609756097560976,65.0609756097561,-1.7682926829268295
690,3.079,IMU0,-0.0087890625,0.14453125,0.0576171875,-4.51219512195122,64.87804878048782,-2.1951219512195124
691,3.079,IMU1,-0.00390625,0.142578125,0.080078125,-4.939024390243903,64.9390243902439,-1.7682926829268295
692,3.089,IMU0,-0.01171875,0.1435546875,0.130859375,-4.024390243902439,64.51219512195122,-1.9512195121951221
693,3.089,IMU1,-0.0048828125,0.1416015625,0.15234375,-4.390243902439025,64.69512195121952,-1.5853658536585367
694,3.099,IMU0,0.0146484375,0.1474609375,0.16796875,-3.536585365853659,64.39024390243902,-1.829268292682927
695,3.099,IMU1,0.0224609375,0.14453125,0.1845703125,-3.9024390243902443,64.57317073170732,-1.4634146341463417
696,3.109,IMU0,0.046875,0.1484375,0.1396484375,-3.048780487804878,64.08536585365854,-2.1951219512195124
697,3.109,IMU1,0.052734375,0.14453125,0.154296875,-3.414634146341464,64.26829268292684,-1.829268292682927
698,3.119,IMU0,0.04296875,0.14453125,0.0908203125,-2.5,63.71951219512196,-2.9268292682926833
699,3.119,IMU1,0.0439453125,0.1435546875,0.1025390625,-2.804878048780488,63.84146341463415,-2.5609756097560976
700,3.129,IMU0,-0.00390625,0.1474609375,0.05859375,-1.8902439024390245,63.71951219512196,-3.2926829268292686
701,3.129,IMU1,-0.00390625,0.14453125,0.07421875,-2.25609756097561,63.84146341463415,-2.9268292682926833
702,3.139,IMU0,-0.04296875,0.1455078125,0.0732421875,-1.2195121951219514,63.53658536585366,-2.987804878048781
703,3.139,IMU1,-0.0390625,0.142578125,0.0908203125,-1.524390243902439,63.59756097560976,-2.5609756097560976
704,3.149,IMU0,-0.0302734375,0.142578125,0.1123046875,-0.6097560975609757,63.41463414634147,-2.378048780487805
705,3.149,IMU1,-0.0234375,0.1396484375,0.130859375,-0.9146341463414634,63.47560975609757,-1.9512195121951221
706,3.159,IMU0,0.005859375,0.138671875,0.14453125,-0.12195121951219513,63.04878048780488,-2.5
707,3.159,IMU1,0.0107421875,0.1337890625,0.1591796875,-0.426829268292683,63.17073170731708,-2.073170731707317
708,3.169,IMU0,0.00390625,0.1337890625,0.1435546875,0.3658536585365854,62.743902439024396,-3.1097560975609757
709,3.169,IMU1,0.005859375,0.1298828125,0.158203125,-0.06097560975609757,62.865853658536594,-2.682926829268293
710,3.179,IMU0,-0.04296875,0.1318359375,0.1142578125,0.853658536585366,62.50000000000001,-3.231707317073171
711,3.179,IMU1,-0.0400390625,0.1298828125,0.1298828125,0.426829268292683,62.6219512195122,-2.804878048780488
712,3.189,IMU0,-0.083984375,0.1318359375,0.080078125,1.4634146341463417,62.31707317073171,-2.6219512195121952
713,3.189,IMU1,-0.0791015625,0.12890625,0.095703125,0.9756097560975611,62.50000000000001,-2.1951219512195124
714,3.199,IMU0,-0.060546875,0.12890625,0.0751953125,2.1951219512195124,62.43902439024391,-1.7682926829268295
715,3.199,IMU1,-0.0517578125,0.125,0.0927734375,1.7682926829268295,62.6219512195122,-1.3414634146341464
716,3.209,IMU0,-0.0146484375,0.125,0.1005859375,2.804878048780488,62.31707317073171,-1.5853658536585367
717,3.209,IMU1,-0.0068359375,0.1220703125,0.119140625,2.3170731707317076,62.560975609756106,-1.2195121951219514
718,3.219,IMU0,-0.0078125,0.12109375,0.1357421875,3.2926829268292686,62.19512195121952,-1.9512195121951221
719,3.219,IMU1,-0.005859375,0.119140625,0.15234375,2.804878048780488,62.25609756097562,-1.5853658536585367
720,3.229,IMU0,-0.0419921875,0.12109375,0.138671875,3.658536585365854,61.89024390243903,-2.0121951219512195
721,3.229,IMU1,-0.0390625,0.1201171875,0.1494140625,3.1707317073170733,61.95121951219513,-1.5853658536585367
722,3.239,IMU0,-0.0625,0.1201171875,0.1005859375,4.085365853658537,61.646341463414636,-1.4634146341463417
723,3.239,IMU1,-0.056640625,0.1181640625,0.1103515625,3.658536585365854,61.707317073170735,-0.9756097560975611
724,3.249,IMU0,-0.0380859375,0.119140625,0.05078125,4.573170731707317,61.646341463414636,-0.7926829268292683
725,3.249,IMU1,-0.0302734375,0.1171875,0.0654296875,4.146341463414634,61.82926829268293,-0.3658536585365854
726,3.259,IMU0,0.0009765625,0.1171875,0.0234375,4.939024390243903,61.82926829268293,-0.6707317073170732
727,3.259,IMU1,0.0078125,0.115234375,0.0390625,4.573170731707317,61.95121951219513,-0.24390243902439027
728,3.269,IMU0,0.00390625,0.1162109375,0.0400390625,5.3048780487804885,61.89024390243903,-0.9146341463414634
729,3.269,IMU1,0.0068359375,0.1123046875,0.056640625,4.878048780487806,62.01219512195122,-0.5487804878048781
730,3.279,IMU0,-0.0234375,0.115234375,0.0732421875,5.487804878048781,61.89024390243903,-0.853658536585366
731,3.279,IMU1,-0.017578125,0.1123046875,0.0908203125,5.121951219512195,61.95121951219513,-0.48780487804878053
732,3.289,IMU0,-0.021484375,0.1142578125,0.0712890625,5.609756097560976,61.95121951219513,-0.3658536585365854
733,3.289,IMU1,-0.01171875,0.111328125,0.0859375,5.182926829268293,62.07317073170732,0.12195121951219513
734,3.299,IMU0,0.0419921875,0.11328125,0.03125,5.670731707317073,61.707317073170735,-0.12195121951219513
735,3.299,IMU1,0.05078125,0.1103515625,0.0439453125,5.3048780487804885,61.82926829268293,0.30487804878048785
736,3.309,IMU0,0.08984375,0.1123046875,-0.0107421875,5.731707317073171,61.707317073170735,-0.9146341463414634
737,3.309,IMU1,0.0908203125,0.1103515625,0.0029296875,5.3048780487804885,61.768292682926834,-0.5487804878048781
738,3.319,IMU0,0.0498046875,0.11328125,-0.0244140625,5.731707317073171,61.585365853658544,-1.7682926829268295
739,3.319,IMU1,0.0478515625,0.1103515625,-0.0078125,5.365853658536586,61.707317073170735,-1.4634146341463417
740,3.329,IMU0,-0.0146484375,0.1123046875,-0.0078125,5.670731707317073,61.463414634146346,-1.829268292682927
741,3.329,IMU1,-0.013671875,0.107421875,0.009765625,5.365853658536586,61.585365853658544,-1.402439024390244
742,3.339,IMU0,-0.025390625,0.109375,0.0029296875,5.609756097560976,61.34146341463415,-1.0365853658536586
743,3.339,IMU1,-0.017578125,0.1064453125,0.01953125,5.2439024390243905,61.40243902439025,-0.6097560975609757
744,3.349,IMU0,0.0458984375,0.1083984375,-0.0224609375,5.365853658536586,61.34146341463415,-0.48780487804878053
745,3.349,IMU1,0.056640625,0.1044921875,-0.0087890625,4.939024390243903,61.463414634146346,-0.12195121951219513
746,3.359,IMU0,0.13671875,0.10546875,-0.0537109375,5.0,61.15853658536586,-1.5853658536585367
747,3.359,IMU1,0.1396484375,0.1005859375,-0.0380859375,4.573170731707317,61.28048780487806,-1.2804878048780488
748,3.369,IMU0,0.0966796875,0.103515625,-0.0546875,4.695121951219512,61.34146341463415,-3.353658536585366
749,3.369,IMU1,0.0908203125,0.1015625,-0.0341796875,4.146341463414634,61.463414634146346,-2.9268292682926833
750,3.379,IMU0,-0.03125,0.107421875,-0.03515625,4.51219512195122,61.524390243902445,-3.4756097560975614
751,3.379,IMU1,-0.0234375,0.1064453125,-0.017578125,3.9024390243902443,61.524390243902445,-3.1097560975609757
752,3.389,IMU0,-0.0458984375,0.107421875,-0.015625,4.390243902439025,61.646341463414636,-2.3170731707317076
753,3.389,IMU1,-0.0419921875,0.1044921875,0.001953125,3.8414634146341466,61.707317073170735,-2.0121951219512195
754,3.399,IMU0,0.03515625,0.103515625,-0.017578125,4.207317073170732,61.646341463414636,-1.7682926829268295
755,3.399,IMU1,0.0361328125,0.1005859375,0.0,3.7195121951219514,61.707317073170735,-1.402439024390244
756,3.409,IMU0,0.1005859375,0.099609375,-0.03125,3.963414634146342,61.40243902439025,-2.7439024390243905
757,3.409,IMU1,0.1015625,0.09765625,-0.013671875,3.414634146341464,61.463414634146346,-2.3170731707317076
758,3.419,IMU0,0.068359375,0.1005859375,-0.0439453125,3.5975609756097566,61.34146341463415,-3.963414634146342
759,3.419,IMU1,0.0712890625,0.0966796875,-0.025390625,3.048780487804878,61.463414634146346,-3.536585365853659
760,3.429,IMU0,-0.015625,0.1025390625,-0.0634765625,3.231707317073171,61.34146341463415,-4.146341463414634
761,3.429,IMU1,-0.01171875,0.099609375,-0.0458984375,2.7439024390243905,61.40243902439025,-3.7195121951219514
762,3.439,IMU0,-0.03515625,0.1025390625,-0.0791015625,2.9268292682926833,61.28048780487806,-3.231707317073171
763,3.439,IMU1,-0.03125,0.099609375,-0.0615234375,2.439024390243903,61.40243902439025,-2.8658536585365857
764,3.449,IMU0,0.0361328125,0.09765625,-0.0830078125,2.6219512195121952,61.28048780487806,-2.682926829268293
765,3.449,IMU1,0.037109375,0.0947265625,-0.06640625,2.1951219512195124,61.40243902439025,-2.378048780487805
766,3.459,IMU0,0.0986328125,0.095703125,-0.068359375,2.25609756097561,61.15853658536586,-3.5975609756097566
767,3.459,IMU1,0.0986328125,0.0927734375,-0.0537109375,1.707317073170732,61.34146341463415,-3.1097560975609757
768,3.469,IMU0,0.068359375,0.095703125,-0.0458984375,1.6463414634146343,60.97560975609757,-4.939024390243903
769,3.469,IMU1,0.072265625,0.09375,-0.0302734375,1.1585365853658538,61.15853658536586,-4.451219512195122
770,3.479,IMU0,-0.0146484375,0.099609375,-0.0390625,1.2195121951219514,60.91463414634147,-5.182926829268293
771,3.479,IMU1,-0.009765625,0.0966796875,-0.0224609375,0.6707317073170732,61.03658536585366,-4.817073170731708
772,3.489,IMU0,-0.044921875,0.0986328125,-0.046875,0.9756097560975611,60.67073170731708,-4.51219512195122
773,3.489,IMU1,-0.0400390625,0.09765625,-0.033203125,0.5487804878048781,60.85365853658537,-4.085365853658537
774,3.499,IMU0,-0.015625,0.0986328125,-0.052734375,0.9146341463414634,60.79268292682927,-3.963414634146342
775,3.499,IMU1,-0.0126953125,0.0966796875,-0.037109375,0.426829268292683,60.91463414634147,-3.5975609756097566
776,3.509,IMU0,0.03125,0.0966796875,-0.0400390625,0.6707317073170732,61.15853658536586,-4.085365853658537
777,3.509,IMU1,0.0341796875,0.09375,-0.0234375,0.1829268292682927,61.34146341463415,-3.5975609756097566
778,3.519,IMU0,0.05078125,0.0947265625,-0.0400390625,0.1829268292682927,61.28048780487806,-4.817073170731708
779,3.519,IMU1,0.0537109375,0.0908203125,-0.0224609375,-0.24390243902439027,61.463414634146346,-4.329268292682928
780,3.529,IMU0,0.013671875,0.0966796875,-0.060546875,-0.30487804878048785,61.34146341463415,-5.548780487804878
781,3.529,IMU1,0.0166015625,0.0927734375,-0.0419921875,-0.7926829268292683,61.463414634146346,-5.060975609756098
782,3.539,IMU0,-0.048828125,0.095703125,-0.091796875,-0.6707317073170732,61.524390243902445,-5.365853658536586
783,3.539,IMU1,-0.046875,0.0927734375,-0.0712890625,-1.0975609756097562,61.585365853658544,-4.939024390243903
784,3.549,IMU0,-0.0625,0.0947265625,-0.107421875,-1.0365853658536586,61.40243902439025,-4.51219512195122
785,3.549,IMU1,-0.060546875,0.091796875,-0.087890625,-1.4634146341463417,61.463414634146346,-4.085365853658537
786,3.559,IMU0,-0.0087890625,0.091796875,-0.0888671875,-1.3414634146341464,61.524390243902445,-4.085365853658537
787,3.559,IMU1,-0.0068359375,0.0888671875,-0.0703125,-1.7682926829268295,61.585365853658544,-3.658536585365854
788,3.569,IMU0,0.0205078125,0.0908203125,-0.046875,-1.7682926829268295,61.585365853658544,-4.51219512195122
789,3.569,IMU1,0.0224609375,0.087890625,-0.029296875,-2.1951219512195124,61.646341463414636,-4.085365853658537
790,3.579,IMU0,-0.009765625,0.091796875,-0.005859375,-2.1341463414634148,61.28048780487806,-5.0
791,3.579,IMU1,-0.005859375,0.087890625,0.0126953125,-2.6219512195121952,61.34146341463415,-4.51219512195122
792,3.589,IMU0,-0.046875,0.091796875,-0.0009765625,-2.5,61.15853658536586,-4.695121951219512
793,3.589,IMU1,-0.0419921875,0.0888671875,0.01953125,-2.9268292682926833,61.28048780487806,-4.329268292682928
794,3.599,IMU0,-0.041015625,0.091796875,-0.025390625,-2.5609756097560976,60.91463414634147,-4.146341463414634
795,3.599,IMU1,-0.0361328125,0.08984375,-0.0078125,-3.048780487804878,61.09756097560976,-3.7195121951219514
796,3.609,IMU0,0.005859375,0.091796875,-0.0439453125,-2.682926829268293,60.79268292682927,-4.024390243902439
797,3.609,IMU1,0.0087890625,0.08984375,-0.02734375,-3.231707317073171,60.91463414634147,-3.536585365853659
798,3.619,IMU0,0.0244140625,0.091796875,-0.02734375,-2.804878048780488,60.79268292682927,-4.51219512195122
799,3.619,IMU1,0.02734375,0.0888671875,-0.0126953125,-3.2926829268292686,60.85365853658537,-4.024390243902439
800,3.629,IMU0,-0.0078125,0.091796875,0.017578125,-2.8658536585365857,60.365853658536594,-4.939024390243903
801,3.629,IMU1,-0.00390625,0.0888671875,0.0322265625,-3.2926829268292686,60.487804878048784,-4.51219512195122
802,3.639,IMU0,-0.056640625,0.0927734375,0.0654296875,-2.804878048780488,60.060975609756106,-4.817073170731708
803,3.639,IMU1,-0.0517578125,0.08984375,0.08203125,-3.231707317073171,60.1829268292683,-4.390243902439025
804,3.649,IMU0,-0.06640625,0.09375,0.078125,-2.6219512195121952,60.00000000000001,-4.146341463414634
805,3.649,IMU1,-0.0615234375,0.0888671875,0.095703125,-3.048780487804878,60.1219512195122,-3.7195121951219514
806,3.659,IMU0,-0.03125,0.09375,0.0576171875,-2.378048780487805,59.63414634146342,-3.7195121951219514
807,3.659,IMU1,-0.0263671875,0.08984375,0.07421875,-2.8658536585365857,59.75609756097562,-3.414634146341464
808,3.669,IMU0,-0.0048828125,0.0908203125,0.0361328125,-2.1341463414634148,59.57317073170732,-4.024390243902439
809,3.669,IMU1,-0.001953125,0.0888671875,0.052734375,-2.682926829268293,59.75609756097562,-3.658536585365854
810,3.679,IMU0,-0.0322265625,0.091796875,0.0341796875,-1.8902439024390245,59.39024390243903,-4.451219512195122
811,3.679,IMU1,-0.0302734375,0.0908203125,0.0498046875,-2.378048780487805,59.57317073170732,-4.024390243902439
812,3.689,IMU0,-0.0771484375,0.09375,0.0546875,-1.5853658536585367,59.32926829268293,-4.329268292682928
813,3.689,IMU1,-0.072265625,0.0908203125,0.072265625,-2.0121951219512195,59.451219512195124,-3.8414634146341466
814,3.699,IMU0,-0.103515625,0.0927734375,0.0859375,-1.2195121951219514,59.51219512195122,-3.7195121951219514
815,3.699,IMU1,-0.0966796875,0.0908203125,0.1025390625,-1.707317073170732,59.69512195121952,-3.231707317073171
816,3.709,IMU0,-0.1064453125,0.0927734375,0.0966796875,-0.9146341463414634,59.39024390243903,-2.987804878048781
817,3.709,IMU1,-0.099609375,0.0908203125,0.1123046875,-1.402439024390244,59.57317073170732,-2.6219512195121952
818,3.719,IMU0,-0.087890625,0.0927734375,0.0947265625,-0.5487804878048781,59.69512195121952,-2.5
819,3.719,IMU1,-0.08203125,0.08984375,0.1103515625,-0.9146341463414634,59.87804878048781,-2.1341463414634148
820,3.729,IMU0,-0.0888671875,0.09375,0.0908203125,-0.06097560975609757,59.57317073170732,-2.1341463414634148
821,3.729,IMU1,-0.0830078125,0.091796875,0.103515625,-0.426829268292683,59.69512195121952,-1.829268292682927
822,3.739,IMU0,-0.1044921875,0.0947265625,0.0947265625,0.48780487804878053,59.207317073170735,-1.6463414634146343
823,3.739,IMU1,-0.099609375,0.091796875,0.1103515625,0.12195121951219513,59.268292682926834,-1.3414634146341464
824,3.749,IMU0,-0.10546875,0.0947265625,0.103515625,1.0975609756097562,59.085365853658544,-0.853658536585366
825,3.749,IMU1,-0.099609375,0.0927734375,0.12109375,0.6707317073170732,59.146341463414636,-0.48780487804878053
826,3.759,IMU0,-0.076171875,0.0927734375,0.1015625,1.5853658536585367,58.84146341463415,-0.12195121951219513
827,3.759,IMU1,-0.0712890625,0.091796875,0.119140625,1.1585365853658538,59.024390243902445,0.24390243902439027
828,3.769,IMU0,-0.0380859375,0.091796875,0.0927734375,2.0121951219512195,58.78048780487806,0.06097560975609757
829,3.769,IMU1,-0.033203125,0.08984375,0.109375,1.6463414634146343,58.84146341463415,0.48780487804878053
830,3.779,IMU0,-0.046875,0.091796875,0.078125,2.378048780487805,58.84146341463415,0.0
831,3.779,IMU1,-0.04296875,0.0888671875,0.095703125,2.0121951219512195,58.84146341463415,0.3658536585365854
832,3.789,IMU0,-0.076171875,0.0927734375,0.0693359375,2.7439024390243905,58.84146341463415,0.3658536585365854
833,3.789,IMU1,-0.0703125,0.0908203125,0.0859375,2.378048780487805,58.90243902439025,0.7926829268292683
834,3.799,IMU0,-0.0654296875,0.0927734375,0.06640625,3.231707317073171,58.84146341463415,1.0975609756097562
835,3.799,IMU1,-0.0595703125,0.0908203125,0.08203125,2.8658536585365857,58.84146341463415,1.5853658536585367
836,3.809,IMU0,-0.0205078125,0.091796875,0.068359375,3.5975609756097566,58.71951219512196,1.6463414634146343
837,3.809,IMU1,-0.0146484375,0.0888671875,0.0849609375,3.1707317073170733,58.78048780487806,2.073170731707317
838,3.819,IMU0,0.015625,0.0888671875,0.068359375,3.780487804878049,58.10975609756098,1.4634146341463417
839,3.819,IMU1,0.0185546875,0.0869140625,0.0830078125,3.414634146341464,58.29268292682927,1.829268292682927
840,3.829,IMU0,0.0107421875,0.08984375,0.0634765625,4.024390243902439,58.29268292682927,1.1585365853658538
841,3.829,IMU1,0.015625,0.087890625,0.078125,3.658536585365854,58.47560975609757,1.524390243902439
842,3.839,IMU0,-0.0078125,0.091796875,0.0498046875,4.329268292682928,58.23170731707317,1.1585365853658538
843,3.839,IMU1,-0.00390625,0.0888671875,0.0654296875,3.9024390243902443,58.41463414634147,1.5853658536585367
844,3.849,IMU0,-0.0126953125,0.09375,0.0400390625,4.634146341463415,58.10975609756098,1.3414634146341464
845,3.849,IMU1,-0.0078125,0.08984375,0.056640625,4.2682926829268295,58.23170731707317,1.6463414634146343
846,3.859,IMU0,0.005859375,0.091796875,0.0390625,4.878048780487806,58.35365853658537,1.402439024390244
847,3.859,IMU1,0.0107421875,0.0888671875,0.0546875,4.390243902439025,58.29268292682927,1.707317073170732
848,3.869,IMU0,0.0185546875,0.08984375,0.0322265625,5.0,57.926829268292686,1.1585365853658538
849,3.869,IMU1,0.021484375,0.0859375,0.0478515625,4.51219512195122,58.04878048780488,1.5853658536585367
850,3.879,IMU0,0.0166015625,0.0888671875,0.013671875,4.878048780487806,57.43902439024391,0.9756097560975611
851,3.879,IMU1,0.01953125,0.0849609375,0.029296875,4.451219512195122,57.560975609756106,1.3414634146341464
852,3.889,IMU0,0.0,0.0888671875,-0.015625,4.817073170731708,56.951219512195124,1.0365853658536586
853,3.889,IMU1,0.00390625,0.0859375,0.0009765625,4.390243902439025,57.13414634146342,1.3414634146341464
854,3.899,IMU0,-0.005859375,0.087890625,-0.0283203125,4.75609756097561,56.28048780487806,1.2195121951219514
855,3.899,IMU1,-0.001953125,0.0869140625,-0.0107421875,4.390243902439025,56.463414634146346,1.524390243902439
856,3.909,IMU0,0.0146484375,0.0849609375,-0.0185546875,4.75609756097561,55.91463414634147,1.2804878048780488
857,3.909,IMU1,0.0166015625,0.083984375,-0.0009765625,4.390243902439025,56.03658536585366,1.707317073170732
858,3.919,IMU0,0.033203125,0.083984375,0.00390625,4.634146341463415,55.79268292682927,1.0365853658536586
859,3.919,IMU1,0.0361328125,0.0810546875,0.01953125,4.207317073170732,55.91463414634147,1.4634146341463417
860,3.929,IMU0,0.0185546875,0.0830078125,0.017578125,4.51219512195122,55.487804878048784,0.5487804878048781
861,3.929,IMU1,0.0234375,0.080078125,0.033203125,4.085365853658537,55.54878048780488,1.0975609756097562
862,3.939,IMU0,-0.009765625,0.0849609375,0.005859375,4.2682926829268295,55.1829268292683,0.6097560975609757
863,3.939,IMU1,-0.00390625,0.083984375,0.0224609375,3.9024390243902443,55.304878048780495,0.9756097560975611
864,3.949,IMU0,-0.009765625,0.0908203125,-0.02734375,4.146341463414634,56.09756097560976,0.9146341463414634
865,3.949,IMU1,-0.009765625,0.087890625,-0.009765625,3.7195121951219514,56.15853658536586,1.2804878048780488
866,3.959,IMU0,0.01171875,0.091796875,-0.041015625,4.085365853658537,56.524390243902445,1.0365853658536586
867,3.959,IMU1,0.01171875,0.08984375,-0.0244140625,3.5975609756097566,56.585365853658544,1.402439024390244
868,3.969,IMU0,0.0244140625,0.0888671875,-0.013671875,4.024390243902439,56.89024390243903,0.853658536585366
869,3.969,IMU1,0.02734375,0.087890625,0.0009765625,3.5975609756097566,57.07317073170732,1.2804878048780488
870,3.979,IMU0,0.017578125,0.0888671875,0.0224609375,3.9024390243902443,57.19512195121952,0.6707317073170732
871,3.979,IMU1,0.01953125,0.0869140625,0.037109375,3.4756097560975614,57.31707317073171,1.0975609756097562
872,3.989,IMU0,0.0166015625,0.087890625,0.0400390625,3.8414634146341466,57.19512195121952,0.7317073170731708
873,3.989,IMU1,0.0185546875,0.0859375,0.056640625,3.353658536585366,57.31707317073171,1.0975609756097562
874,3.999,IMU0,0.0380859375,0.087890625,0.0185546875,3.5975609756097566,57.13414634146342,0.7317073170731708
875,3.999,IMU1,0.037109375,0.0859375,0.0361328125,3.1707317073170733,57.25609756097561,1.1585365853658538
876,4.009,IMU0,0.068359375,0.0908203125,-0.0341796875,3.4756097560975614,57.07317073170732,0.426829268292683
877,4.009,IMU1,0.06640625,0.0869140625,-0.0166015625,2.987804878048781,57.13414634146342,0.7926829268292683
878,4.019,IMU0,0.0693359375,0.091796875,-0.0537109375,3.353658536585366,57.01219512195122,-0.30487804878048785
879,4.019,IMU1,0.0712890625,0.087890625,-0.0380859375,2.9268292682926833,57.07317073170732,0.06097560975609757
880,4.029,IMU0,0.029296875,0.0908203125,-0.015625,3.353658536585366,56.768292682926834,-0.7317073170731708
881,4.029,IMU1,0.03515625,0.0869140625,-0.0009765625,2.9268292682926833,56.707317073170735,-0.3658536585365854
882,4.039,IMU0,-0.0009765625,0.08984375,0.03125,3.2926829268292686,56.463414634146346,-0.48780487804878053
883,4.039,IMU1,0.001953125,0.0869140625,0.0458984375,2.804878048780488,56.585365853658544,-0.12195121951219513
884,4.049,IMU0,0.0146484375,0.0888671875,0.0380859375,3.1097560975609757,55.79268292682927,-0.06097560975609757
885,4.049,IMU1,0.0166015625,0.0869140625,0.0556640625,2.5609756097560976,55.91463414634147,0.30487804878048785
886,4.059,IMU0,0.07421875,0.0888671875,0.01171875,3.048780487804878,55.97560975609757,-0.1829268292682927
887,4.059,IMU1,0.078125,0.0869140625,0.0263671875,2.5,56.03658536585366,0.1829268292682927
888,4.069,IMU0,0.0986328125,0.087890625,0.0009765625,3.048780487804878,55.79268292682927,-1.0365853658536586
889,4.069,IMU1,0.1005859375,0.0849609375,0.0166015625,2.5609756097560976,55.91463414634147,-0.6097560975609757
890,4.079,IMU0,0.0576171875,0.087890625,0.025390625,3.1097560975609757,55.73170731707317,-1.7682926829268295
891,4.079,IMU1,0.0595703125,0.0859375,0.0439453125,2.6219512195121952,55.85365853658537,-1.3414634146341464
892,4.089,IMU0,0.0224609375,0.08984375,0.0576171875,3.231707317073171,55.79268292682927,-1.6463414634146343
893,4.089,IMU1,0.02734375,0.087890625,0.0771484375,2.7439024390243905,55.85365853658537,-1.2804878048780488
894,4.099,IMU0,0.041015625,0.0947265625,0.0732421875,3.536585365853659,55.91463414634147,-1.0975609756097562
895,4.099,IMU1,0.0498046875,0.0927734375,0.0927734375,3.1097560975609757,55.97560975609757,-0.7926829268292683
896,4.109,IMU0,0.1171875,0.09375,0.0859375,3.9024390243902443,55.243902439024396,-1.402439024390244
897,4.109,IMU1,0.125,0.091796875,0.1025390625,3.4756097560975614,55.304878048780495,-1.0975609756097562
898,4.119,IMU0,0.1533203125,0.0927734375,0.08203125,4.207317073170732,54.69512195121952,-2.6219512195121952
899,4.119,IMU1,0.15625,0.0908203125,0.095703125,3.7195121951219514,54.81707317073171,-2.3170731707317076
900,4.129,IMU0,0.12109375,0.09375,0.072265625,4.51219512195122,54.39024390243903,-3.9024390243902443
901,4.129,IMU1,0.1220703125,0.0908203125,0.083984375,4.024390243902439,54.57317073170732,-3.4756097560975614
902,4.139,IMU0,0.0751953125,0.0947265625,0.0654296875,5.0,54.207317073170735,-4.329268292682928
903,4.139,IMU1,0.0771484375,0.091796875,0.08203125,4.51219512195122,54.268292682926834,-3.963414634146342
904,4.149,IMU0,0.0634765625,0.09375,0.0712890625,5.548780487804878,53.65853658536586,-4.390243902439025
905,4.149,IMU1,0.068359375,0.0908203125,0.0888671875,5.121951219512195,53.78048780487806,-4.024390243902439
906,4.159,IMU0,0.087890625,0.0927734375,0.080078125,6.158536585365854,53.10975609756098,-4.573170731707317
907,4.159,IMU1,0.0927734375,0.08984375,0.0966796875,5.670731707317073,53.29268292682927,-4.2682926829268295
908,4.169,IMU0,0.115234375,0.08984375,0.0830078125,6.52439024390244,52.926829268292686,-5.426829268292684
909,4.169,IMU1,0.1181640625,0.087890625,0.0986328125,6.097560975609756,53.04878048780488,-5.121951219512195
910,4.179,IMU0,0.0869140625,0.08984375,0.0576171875,6.707317073170732,52.86585365853659,-6.463414634146342
911,4.179,IMU1,0.0859375,0.0869140625,0.072265625,6.219512195121951,52.926829268292686,-6.158536585365854
912,4.189,IMU0,0.0283203125,0.0908203125,0.017578125,6.890243902439025,52.6219512195122,-6.7682926829268295
913,4.189,IMU1,0.0283203125,0.087890625,0.03125,6.463414634146342,52.6829268292683,-6.402439024390245
914,4.199,IMU0,0.0087890625,0.08984375,-0.009765625,7.195121951219513,52.43902439024391,-6.219512195121951
915,4.199,IMU1,0.0126953125,0.0859375,0.0078125,6.707317073170732,52.5609756097561,-5.914634146341464
916,4.209,IMU0,0.04296875,0.087890625,-0.01171875,7.439024390243903,52.31707317073171,-5.914634146341464
917,4.209,IMU1,0.048828125,0.0849609375,0.005859375,6.890243902439025,52.5609756097561,-5.609756097560976
918,4.219,IMU0,0.0927734375,0.0859375,0.0166015625,7.500000000000001,52.31707317073171,-6.463414634146342
919,4.219,IMU1,0.095703125,0.0830078125,0.03515625,6.951219512195123,52.43902439024391,-6.158536585365854
920,4.229,IMU0,0.091796875,0.0859375,0.0556640625,7.560975609756098,52.25609756097561,-7.317073170731708
921,4.229,IMU1,0.0947265625,0.083984375,0.0751953125,6.951219512195123,52.31707317073171,-7.01219512195122
922,4.239,IMU0,0.0615234375,0.0859375,0.0634765625,7.560975609756098,52.19512195121952,-7.926829268292684
923,4.239,IMU1,0.0654296875,0.0849609375,0.08203125,7.073170731707318,52.31707317073171,-7.560975609756098
924,4.249,IMU0,0.04296875,0.087890625,0.0419921875,7.621951219512196,52.6829268292683,-8.414634146341465
925,4.249,IMU1,0.044921875,0.083984375,0.05859375,7.073170731707318,52.804878048780495,-8.048780487804878
926,4.259,IMU0,0.0126953125,0.08984375,0.0087890625,7.865853658536586,53.17073170731708,-8.597560975609756
927,4.259,IMU1,0.0146484375,0.0869140625,0.02734375,7.317073170731708,53.35365853658537,-8.231707317073171
928,4.269,IMU0,-0.0087890625,0.0908203125,0.0146484375,8.353658536585366,53.10975609756098,-8.414634146341465
929,4.269,IMU1,-0.0048828125,0.087890625,0.033203125,7.8048780487804885,53.17073170731708,-8.048780487804878
930,4.279,IMU0,0.0078125,0.0908203125,0.056640625,8.841463414634147,52.804878048780495,-8.231707317073171
931,4.279,IMU1,0.0126953125,0.087890625,0.0751953125,8.292682926829269,52.926829268292686,-7.8048780487804885
932,4.289,IMU0,0.033203125,0.0869140625,0.0849609375,9.146341463414634,52.43902439024391,-8.353658536585366
933,4.289,IMU1,0.0361328125,0.0859375,0.1005859375,8.536585365853659,52.5609756097561,-8.048780487804878
934,4.299,IMU0,0.01171875,0.0888671875,0.060546875,9.26829268292683,51.951219512195124,-8.963414634146343
935,4.299,IMU1,0.0126953125,0.087890625,0.0732421875,8.658536585365855,52.13414634146342,-8.597560975609756
936,4.309,IMU0,-0.046875,0.08984375,0.00390625,9.390243902439025,51.82926829268293,-8.963414634146343
937,4.309,IMU1,-0.044921875,0.0888671875,0.0166015625,8.78048780487805,51.89024390243903,-8.597560975609756
938,4.319,IMU0,-0.0830078125,0.091796875,-0.0537109375,9.451219512195122,51.28048780487806,-8.048780487804878
939,4.319,IMU1,-0.0771484375,0.08984375,-0.0390625,8.658536585365855,51.768292682926834,-7.621951219512196
940,4.329,IMU0,-0.0458984375,0.08984375,-0.08203125,9.451219512195122,50.85365853658537,-7.01219512195122
941,4.329,IMU1,-0.0380859375,0.0869140625,-0.0673828125,8.719512195121952,51.15853658536586,-6.585365853658537
942,4.339,IMU0,0.017578125,0.087890625,-0.07421875,9.207317073170733,50.73170731707317,-6.951219512195123
943,4.339,IMU1,0.0205078125,0.087890625,-0.0546875,8.536585365853659,50.91463414634147,-6.646341463414635
944,4.349,IMU0,0.01171875,0.08984375,-0.03515625,8.902439024390244,50.426829268292686,-7.439024390243903
945,4.349,IMU1,0.01171875,0.0869140625,-0.0146484375,8.292682926829269,50.60975609756098,-7.01219512195122
946,4.359,IMU0,-0.0263671875,0.0888671875,0.0078125,8.719512195121952,50.1829268292683,-7.378048780487806
947,4.359,IMU1,-0.0234375,0.0849609375,0.0263671875,8.048780487804878,50.304878048780495,-6.951219512195123
948,4.369,IMU0,-0.0322265625,0.0888671875,0.0166015625,8.475609756097562,50.1219512195122,-6.7682926829268295
949,4.369,IMU1,-0.0263671875,0.0859375,0.0341796875,7.987804878048781,50.1829268292683,-6.341463414634147
950,4.379,IMU0,0.0029296875,0.08984375,-0.0068359375,8.353658536585366,49.81707317073171,-6.52439024390244
951,4.379,IMU1,0.0087890625,0.0859375,0.0087890625,7.926829268292684,49.93902439024391,-6.158536585365854
952,4.389,IMU0,0.03125,0.0888671875,-0.0390625,8.231707317073171,49.63414634146342,-6.890243902439025
953,4.389,IMU1,0.0322265625,0.0849609375,-0.0234375,7.743902439024391,49.75609756097561,-6.52439024390244
954,4.399,IMU0,0.0048828125,0.0888671875,-0.0546875,8.109756097560977,49.39024390243903,-7.317073170731708
955,4.399,IMU1,0.0048828125,0.0849609375,-0.0341796875,7.621951219512196,49.57317073170732,-6.951219512195123
956,4.409,IMU0,-0.046875,0.087890625,-0.03515625,8.109756097560977,49.085365853658544,-7.134146341463415
957,4.409,IMU1,-0.044921875,0.0849609375,-0.0146484375,7.500000000000001,49.207317073170735,-6.829268292682928
958,4.419,IMU0,-0.064453125,0.087890625,-0.005859375,8.048780487804878,48.90243902439025,-6.402439024390245
959,4.419,IMU1,-0.05859375,0.0849609375,0.013671875,7.500000000000001,49.024390243902445,-6.036585365853659
960,4.429,IMU0,-0.0302734375,0.0849609375,0.00390625,7.865853658536586,48.90243902439025,-5.853658536585367
961,4.429,IMU1,-0.02734375,0.08203125,0.021484375,7.378048780487806,48.963414634146346,-5.487804878048781
962,4.439,IMU0,0.0009765625,0.0849609375,-0.0166015625,7.560975609756098,48.78048780487805,-5.975609756097562
963,4.439,IMU1,0.0029296875,0.08203125,-0.0009765625,7.195121951219513,48.90243902439025,-5.548780487804878
964,4.449,IMU0,-0.0166015625,0.0859375,-0.0419921875,7.500000000000001,48.84146341463415,-6.2804878048780495
965,4.449,IMU1,-0.01171875,0.08203125,-0.025390625,7.01219512195122,48.90243902439025,-5.853658536585367
966,4.459,IMU0,-0.056640625,0.0869140625,-0.044921875,7.439024390243903,48.78048780487805,-6.036585365853659
967,4.459,IMU1,-0.052734375,0.0830078125,-0.02734375,6.951219512195123,48.963414634146346,-5.731707317073171
968,4.469,IMU0,-0.0654296875,0.0869140625,-0.0244140625,7.439024390243903,48.78048780487805,-5.365853658536586
969,4.469,IMU1,-0.0615234375,0.0849609375,-0.0068359375,6.890243902439025,48.90243902439025,-5.0
970,4.479,IMU0,-0.0341796875,0.0859375,-0.0068359375,7.378048780487806,48.78048780487805,-4.939024390243903
971,4.479,IMU1,-0.03125,0.083984375,0.0107421875,6.829268292682928,49.024390243902445,-4.51219512195122
972,4.489,IMU0,-0.0126953125,0.0830078125,-0.0029296875,7.195121951219513,48.90243902439025,-5.0
973,4.489,IMU1,-0.0107421875,0.08203125,0.0146484375,6.646341463414635,49.146341463414636,-4.695121951219512
974,4.499,IMU0,-0.0390625,0.0810546875,-0.0205078125,6.890243902439025,49.085365853658544,-5.3048780487804885
975,4.499,IMU1,-0.0361328125,0.080078125,0.0,6.402439024390245,49.268292682926834,-4.939024390243903
976,4.509,IMU0,-0.0830078125,0.08203125,-0.0498046875,6.646341463414635,49.146341463414636,-4.878048780487806
977,4.509,IMU1,-0.0791015625,0.0791015625,-0.0302734375,6.097560975609756,49.32926829268293,-4.573170731707317
978,4.519,IMU0,-0.0869140625,0.0830078125,-0.0712890625,6.402439024390245,49.207317073170735,-4.024390243902439
979,4.519,IMU1,-0.083984375,0.080078125,-0.052734375,5.914634146341464,49.268292682926834,-3.658536585365854
980,4.529,IMU0,-0.0556640625,0.0810546875,-0.068359375,6.2804878048780495,49.207317073170735,-3.536585365853659
981,4.529,IMU1,-0.0546875,0.0791015625,-0.052734375,5.731707317073171,49.39024390243903,-3.1097560975609757
982,4.539,IMU0,-0.03515625,0.080078125,-0.0283203125,6.219512195121951,49.024390243902445,-3.536585365853659
983,4.539,IMU1,-0.0322265625,0.0791015625,-0.013671875,5.731707317073171,49.207317073170735,-3.1707317073170733
984,4.549,IMU0,-0.0625,0.080078125,0.0244140625,6.219512195121951,49.024390243902445,-3.658536585365854
985,4.549,IMU1,-0.0576171875,0.078125,0.041015625,5.670731707317073,49.146341463414636,-3.231707317073171
986,4.559,IMU0,-0.10546875,0.0810546875,0.033203125,6.158536585365854,48.84146341463415,-3.1707317073170733
987,4.559,IMU1,-0.1005859375,0.078125,0.05078125,5.609756097560976,49.085365853658544,-2.804878048780488
988,4.569,IMU0,-0.1162109375,0.080078125,-0.03125,5.7926829268292686,48.90243902439025,-2.1951219512195124
989,4.569,IMU1,-0.11328125,0.078125,-0.009765625,5.365853658536586,49.085365853658544,-1.829268292682927
990,4.579,IMU0,-0.0859375,0.08203125,-0.130859375,5.487804878048781,49.268292682926834,-1.2195121951219514
991,4.579,IMU1,-0.08203125,0.080078125,-0.1083984375,5.0,49.39024390243903,-0.853658536585366
992,4.589,IMU0,-0.041015625,0.0830078125,-0.203125,5.0,49.268292682926834,-0.9756097560975611
993,4.589,IMU1,-0.0400390625,0.080078125,-0.181640625,4.51219512195122,49.451219512195124,-0.5487804878048781
994,4.599,IMU0,-0.0439453125,0.0830078125,-0.19140625,4.451219512195122,49.32926829268293,-1.0365853658536586
995,4.599,IMU1,-0.041015625,0.080078125,-0.169921875,3.963414634146342,49.51219512195122,-0.5487804878048781
996,4.609,IMU0,-0.068359375,0.0791015625,-0.123046875,3.658536585365854,49.451219512195124,-0.6097560975609757
997,4.609,IMU1,-0.0654296875,0.078125,-0.103515625,3.1097560975609757,49.57317073170732,-0.24390243902439027
998,4.619,IMU0,-0.068359375,0.0732421875,-0.07421875,2.682926829268293,49.451219512195124,0.06097560975609757
999,4.619,IMU1,-0.0634765625,0.0732421875,-0.0537109375,2.1341463414634148,49.57317073170732,0.48780487804878053
1000,4.629,IMU0,-0.0283203125,0.072265625,-0.08984375,1.5853658536585367,49.32926829268293,0.48780487804878053
1001,4.629,IMU1,-0.0224609375,0.072265625,-0.0712890625,1.1585365853658538,49.451219512195124,0.9756097560975611
1002,4.639,IMU0,0.001953125,0.0751953125,-0.138671875,0.6707317073170732,49.207317073170735,0.426829268292683
1003,4.639,IMU1,0.005859375,0.07421875,-0.1220703125,0.30487804878048785,49.32926829268293,0.9146341463414634
1004,4.649,IMU0,-0.001953125,0.078125,-0.1572265625,0.0,49.268292682926834,0.1829268292682927
1005,4.649,IMU1,0.0,0.0771484375,-0.1416015625,-0.426829268292683,49.268292682926834,0.6707317073170732
1006,4.659,IMU0,-0.0224609375,0.080078125,-0.1181640625,-0.6097560975609757,49.32926829268293,0.24390243902439027
1007,4.659,IMU1,-0.0205078125,0.0791015625,-0.1015625,-0.9756097560975611,49.451219512195124,0.6707317073170732
1008,4.669,IMU0,-0.0263671875,0.0830078125,-0.044921875,-1.0975609756097562,49.32926829268293,0.48780487804878053
1009,4.669,IMU1,-0.0244140625,0.080078125,-0.029296875,-1.524390243902439,49.39024390243903,0.853658536585366
1010,4.679,IMU0,-0.0048828125,0.0810546875,0.0078125,-1.5853658536585367,49.146341463414636,0.6097560975609757
1011,4.679,IMU1,-0.0029296875,0.0791015625,0.025390625,-1.9512195121951221,49.207317073170735,0.9756097560975611
1012,4.689,IMU0,0.0166015625,0.078125,0.0185546875,-1.9512195121951221,48.90243902439025,0.24390243902439027
1013,4.689,IMU1,0.01953125,0.076171875,0.03515625,-2.3170731707317076,49.085365853658544,0.6097560975609757
1014,4.699,IMU0,-0.005859375,0.0771484375,-0.0048828125,-2.25609756097561,48.78048780487805,-0.24390243902439027
1015,4.699,IMU1,-0.0009765625,0.07421875,0.009765625,-2.6219512195121952,48.963414634146346,0.12195121951219513
1016,4.709,IMU0,-0.0478515625,0.078125,-0.0380859375,-2.439024390243903,48.84146341463415,-0.30487804878048785
1017,4.709,IMU1,-0.0458984375,0.0751953125,-0.0224609375,-2.8658536585365857,48.963414634146346,0.06097560975609757
1018,4.719,IMU0,-0.0712890625,0.0810546875,-0.0517578125,-2.439024390243903,48.90243902439025,0.30487804878048785
1019,4.719,IMU1,-0.068359375,0.078125,-0.0341796875,-2.8658536585365857,48.963414634146346,0.6707317073170732
1020,4.729,IMU0,-0.037109375,0.0791015625,-0.021484375,-2.3170731707317076,48.84146341463415,0.853658536585366
1021,4.729,IMU1,-0.03515625,0.078125,-0.0048828125,-2.7439024390243905,48.963414634146346,1.2804878048780488
1022,4.739,IMU0,-0.00390625,0.0771484375,0.0322265625,-2.3170731707317076,48.84146341463415,0.6707317073170732
1023,4.739,IMU1,-0.001953125,0.0751953125,0.048828125,-2.7439024390243905,49.024390243902445,1.0365853658536586
1024,4.749,IMU0,-0.021484375,0.076171875,0.0673828125,-2.378048780487805,48.71951219512196,0.1829268292682927
1025,4.749,IMU1,-0.0185546875,0.07421875,0.0849609375,-2.8658536585365857,48.90243902439025,0.6097560975609757
1026,4.759,IMU0,-0.06640625,0.078125,0.0546875,-2.439024390243903,48.47560975609756,0.30487804878048785
1027,4.759,IMU1,-0.0615234375,0.0771484375,0.072265625,-2.9268292682926833,48.71951219512196,0.7317073170731708
1028,4.769,IMU0,-0.0791015625,0.078125,0.001953125,-2.378048780487805,48.35365853658537,0.9756097560975611
1029,4.769,IMU1,-0.0732421875,0.078125,0.0205078125,-2.804878048780488,48.53658536585366,1.402439024390244
1030,4.779,IMU0,-0.0478515625,0.0771484375,-0.04296875,-2.3170731707317076,48.53658536585366,1.524390243902439
1031,4.779,IMU1,-0.04296875,0.0771484375,-0.0244140625,-2.7439024390243905,48.71951219512196,1.8902439024390245
1032,4.789,IMU0,-0.0263671875,0.078125,-0.046875,-2.378048780487805,48.35365853658537,1.4634146341463417
1033,4.789,IMU1,-0.0234375,0.078125,-0.02734375,-2.7439024390243905,48.59756097560976,1.829268292682927
1034,4.799,IMU0,-0.0380859375,0.0791015625,-0.005859375,-2.439024390243903,48.47560975609756,1.2195121951219514
1035,4.799,IMU1,-0.03515625,0.078125,0.013671875,-2.804878048780488,48.65853658536586,1.6463414634146343
1036,4.809,IMU0,-0.0771484375,0.080078125,0.033203125,-2.6219512195121952,48.41463414634147,1.402439024390244
1037,4.809,IMU1,-0.0732421875,0.078125,0.05078125,-3.048780487804878,48.65853658536586,1.829268292682927
1038,4.819,IMU0,-0.09375,0.080078125,0.037109375,-2.682926829268293,48.29268292682927,2.1341463414634148
1039,4.819,IMU1,-0.087890625,0.078125,0.0517578125,-3.1097560975609757,48.47560975609756,2.5609756097560976
1040,4.829,IMU0,-0.06640625,0.0771484375,0.0166015625,-2.6219512195121952,48.10975609756098,2.8658536585365857
1041,4.829,IMU1,-0.0615234375,0.0751953125,0.033203125,-2.987804878048781,48.35365853658537,3.231707317073171
1042,4.839,IMU0,-0.0244140625,0.07421875,0.00390625,-2.6219512195121952,47.987804878048784,2.987804878048781
1043,4.839,IMU1,-0.021484375,0.0712890625,0.017578125,-2.987804878048781,48.170731707317074,3.353658536585366
1044,4.849,IMU0,-0.0244140625,0.0732421875,0.0107421875,-2.5609756097560976,47.86585365853659,2.682926829268293
1045,4.849,IMU1,-0.021484375,0.0712890625,0.02734375,-2.9268292682926833,48.04878048780488,3.048780487804878
1046,4.859,IMU0,-0.072265625,0.0751953125,0.0400390625,-2.439024390243903,47.743902439024396,2.682926829268293
1047,4.859,IMU1,-0.068359375,0.0732421875,0.0576171875,-2.804878048780488,47.926829268292686,3.048780487804878
1048,4.869,IMU0,-0.0966796875,0.0771484375,0.0625,-2.3170731707317076,47.6219512195122,3.4756097560975614
1049,4.869,IMU1,-0.0927734375,0.0751953125,0.0810546875,-2.6219512195121952,47.804878048780495,3.8414634146341466
1050,4.879,IMU0,-0.0634765625,0.078125,0.064453125,-2.073170731707317,47.5609756097561,4.207317073170732
1051,4.879,IMU1,-0.0576171875,0.076171875,0.08203125,-2.5,47.6829268292683,4.634146341463415
1052,4.889,IMU0,-0.0166015625,0.0771484375,0.0517578125,-1.9512195121951221,47.37804878048781,4.2682926829268295
1053,4.889,IMU1,-0.0107421875,0.0751953125,0.0673828125,-2.25609756097561,47.50000000000001,4.634146341463415
1054,4.899,IMU0,-0.0185546875,0.0771484375,0.04296875,-1.829268292682927,47.19512195121952,3.780487804878049
1055,4.899,IMU1,-0.0146484375,0.0751953125,0.0615234375,-2.0121951219512195,47.37804878048781,4.146341463414634
1056,4.909,IMU0,-0.0693359375,0.0751953125,0.0546875,-1.524390243902439,47.25609756097561,3.8414634146341466
1057,4.909,IMU1,-0.064453125,0.07421875,0.072265625,-1.7682926829268295,47.43902439024391,4.146341463414634
1058,4.919,IMU0,-0.0947265625,0.0751953125,0.07421875,-1.2195121951219514,47.13414634146342,4.573170731707317
1059,4.919,IMU1,-0.08984375,0.0732421875,0.091796875,-1.4634146341463417,47.43902439024391,4.939024390243903
1060,4.929,IMU0,-0.0693359375,0.072265625,0.0869140625,-0.7926829268292683,47.07317073170732,5.426829268292684
1061,4.929,IMU1,-0.0634765625,0.0712890625,0.10546875,-1.0975609756097562,47.31707317073171,5.731707317073171
1062,4.939,IMU0,-0.0263671875,0.072265625,0.08984375,-0.48780487804878053,46.951219512195124,5.426829268292684
1063,4.939,IMU1,-0.0224609375,0.0703125,0.107421875,-0.7317073170731708,47.19512195121952,5.853658536585367
1064,4.949,IMU0,-0.0263671875,0.076171875,0.083984375,-0.1829268292682927,46.951219512195124,5.182926829268293
1065,4.949,IMU1,-0.0244140625,0.072265625,0.1025390625,-0.48780487804878053,47.07317073170732,5.548780487804878
1066,4.959,IMU0,-0.0654296875,0.076171875,0.0771484375,0.1829268292682927,46.768292682926834,5.3048780487804885
1067,4.959,IMU1,-0.05859375,0.07421875,0.095703125,-0.06097560975609757,46.951219512195124,5.670731707317073
1068,4.969,IMU0,-0.0791015625,0.076171875,0.076171875,0.6707317073170732,46.82926829268293,6.036585365853659
1069,4.969,IMU1,-0.07421875,0.0751953125,0.0947265625,0.3658536585365854,46.89024390243903,6.402439024390245
1070,4.979,IMU0,-0.0439453125,0.0751953125,0.0830078125,1.2195121951219514,46.768292682926834,6.646341463414635
1071,4.979,IMU1,-0.0419921875,0.0732421875,0.1005859375,0.7926829268292683,46.82926829268293,7.01219512195122
1072,4.989,IMU0,-0.0068359375,0.0732421875,0.103515625,1.6463414634146343,46.58536585365854,6.646341463414635
1073,4.989,IMU1,-0.00390625,0.0703125,0.12109375,1.3414634146341464,46.707317073170735,7.01219512195122
1074,4.999,IMU0,-0.015625,0.0732421875,0.1220703125,2.073170731707317,46.34146341463415,6.341463414634147
1075,4.999,IMU1,-0.009765625,0.0712890625,0.140625,1.707317073170732,46.524390243902445,6.646341463414635
1076,5.009,IMU0,-0.0517578125,0.0771484375,0.119140625,2.5,46.03658536585366,6.463414634146342
1077,5.009,IMU1,-0.044921875,0.0732421875,0.1376953125,2.1951219512195124,46.21951219512196,6.7682926829268295
1078,5.019,IMU0,-0.0517578125,0.078125,0.099609375,3.048780487804878,45.91463414634147,7.073170731707318
1079,5.019,IMU1,-0.046875,0.0751953125,0.1201171875,2.682926829268293,46.03658536585366,7.439024390243903
1080,5.029,IMU0,-0.0087890625,0.076171875,0.083984375,3.5975609756097566,45.85365853658537,7.378048780487806
1081,5.029,IMU1,-0.0087890625,0.072265625,0.1025390625,3.2926829268292686,45.85365853658537,7.743902439024391
1082,5.039,IMU0,0.015625,0.072265625,0.0888671875,4.085365853658537,45.670731707317074,7.073170731707318
1083,5.039,IMU1,0.0185546875,0.0693359375,0.1044921875,3.7195121951219514,45.79268292682927,7.439024390243903
1084,5.049,IMU0,-0.005859375,0.0732421875,0.11328125,4.51219512195122,45.426829268292686,6.646341463414635
1085,5.049,IMU1,0.0009765625,0.068359375,0.1259765625,4.146341463414634,45.60975609756098,7.073170731707318
1086,5.059,IMU0,-0.037109375,0.0751953125,0.1318359375,5.060975609756098,45.36585365853659,6.829268292682928
1087,5.059,IMU1,-0.0322265625,0.0712890625,0.1494140625,4.695121951219512,45.487804878048784,7.25609756097561
1088,5.069,IMU0,-0.0400390625,0.0732421875,0.1279296875,5.609756097560976,45.1829268292683,7.317073170731708
1089,5.069,IMU1,-0.0341796875,0.0712890625,0.1455078125,5.2439024390243905,45.304878048780495,7.682926829268293
1090,5.079,IMU0,-0.0107421875,0.072265625,0.1162109375,6.219512195121951,44.93902439024391,7.560975609756098
1091,5.079,IMU1,-0.0048828125,0.0703125,0.1337890625,5.853658536585367,45.1829268292683,7.987804878048781
1092,5.089,IMU0,0.0048828125,0.0712890625,0.109375,6.7682926829268295,44.51219512195122,7.378048780487806
1093,5.089,IMU1,0.009765625,0.0693359375,0.126953125,6.402439024390245,44.69512195121952,7.865853658536586
1094,5.099,IMU0,-0.0068359375,0.0712890625,0.1044921875,7.25609756097561,44.146341463414636,7.25609756097561
1095,5.099,IMU1,-0.00390625,0.068359375,0.1240234375,6.890243902439025,44.268292682926834,7.743902439024391
1096,5.109,IMU0,-0.0263671875,0.072265625,0.0986328125,7.682926829268293,43.90243902439025,7.500000000000001
1097,5.109,IMU1,-0.0205078125,0.0693359375,0.1162109375,7.317073170731708,44.08536585365854,7.987804878048781
1098,5.119,IMU0,-0.0126953125,0.0712890625,0.0908203125,8.170731707317074,43.71951219512196,7.926829268292684
1099,5.119,IMU1,-0.0068359375,0.068359375,0.109375,7.865853658536586,43.90243902439025,8.353658536585366
1100,5.129,IMU0,0.0185546875,0.0703125,0.1005859375,8.719512195121952,43.65853658536586,7.926829268292684
1101,5.129,IMU1,0.0244140625,0.06640625,0.1181640625,8.353658536585366,43.78048780487805,8.353658536585366
1102,5.139,IMU0,0.0322265625,0.0673828125,0.1201171875,9.207317073170733,43.35365853658537,7.560975609756098
1103,5.139,IMU1,0.037109375,0.064453125,0.1376953125,8.841463414634147,43.41463414634147,7.926829268292684
1104,5.149,IMU0,0.0146484375,0.068359375,0.1328125,9.695121951219512,42.804878048780495,7.25609756097561
1105,5.149,IMU1,0.017578125,0.0654296875,0.150390625,9.329268292682928,42.987804878048784,7.621951219512196
1106,5.159,IMU0,-0.01171875,0.0703125,0.12890625,10.24390243902439,42.37804878048781,7.317073170731708
1107,5.159,IMU1,-0.0068359375,0.0673828125,0.146484375,9.878048780487806,42.50000000000001,7.743902439024391
1108,5.169,IMU0,-0.005859375,0.0703125,0.109375,10.792682926829269,42.07317073170732,7.682926829268293
1109,5.169,IMU1,0.0,0.0673828125,0.125,10.426829268292684,42.25609756097561,8.048780487804878
1110,5.179,IMU0,0.015625,0.0693359375,0.095703125,11.341463414634147,41.890243902439025,7.621951219512196
