,ts,id,Gx,Gy,Gz,Ax,Ay,Az
0,-0.371,IMU0,-1.524390243902439,-3.048780487804878,-64.69512195121952,0.0244140625,0.021484375,0.0009765625
1,-0.371,IMU1,-0.30487804878048785,-2.5,-66.52439024390245,0.0068359375,0.017578125,-0.0068359375
2,-0.361,IMU0,-2.439024390243903,-2.9268292682926833,-65.1219512195122,0.0166015625,0.017578125,0.0087890625
3,-0.361,IMU1,-1.0975609756097562,-2.804878048780488,-67.31707317073172,-0.0009765625,0.01171875,0.0009765625
4,-0.351,IMU0,-1.2195121951219514,-3.7195121951219514,-64.9390243902439,0.0302734375,0.0166015625,0.0
5,-0.351,IMU1,0.30487804878048785,-3.536585365853659,-66.89024390243902,0.0087890625,0.0107421875,-0.005859375
6,-0.341,IMU0,-2.6219512195121952,-2.987804878048781,-65.0609756097561,0.0224609375,0.0107421875,0.0068359375
7,-0.341,IMU1,-1.3414634146341464,-2.682926829268293,-67.25609756097562,0.0029296875,0.009765625,-0.0029296875
8,-0.331,IMU0,-1.2804878048780488,-3.2926829268292686,-64.69512195121952,0.0283203125,0.0126953125,0.0048828125
9,-0.331,IMU1,0.06097560975609757,-2.8658536585365857,-66.46341463414635,0.0107421875,0.0078125,0.0
10,-0.321,IMU0,-2.3170731707317076,-3.048780487804878,-65.48780487804879,0.0224609375,0.0166015625,0.0
11,-0.321,IMU1,-0.6707317073170732,-2.6219512195121952,-67.6829268292683,0.0,0.01171875,-0.0068359375
12,-0.311,IMU0,-1.9512195121951221,-3.9024390243902443,-64.69512195121952,0.01953125,0.015625,0.0078125
13,-0.311,IMU1,-0.7926829268292683,-3.5975609756097566,-66.70731707317074,0.0048828125,0.0078125,0.001953125
14,-0.301,IMU0,-1.829268292682927,-2.3170731707317076,-65.0609756097561,0.021484375,0.0263671875,0.0009765625
15,-0.301,IMU1,-0.3658536585365854,-2.1951219512195124,-67.07317073170732,0.0107421875,0.013671875,-0.005859375
16,-0.291,IMU0,-2.1341463414634148,-4.024390243902439,-65.3658536585366,0.0126953125,0.0185546875,0.0078125
17,-0.291,IMU1,-0.7926829268292683,-3.536585365853659,-67.43902439024392,-0.0009765625,0.009765625,0.0009765625
18,-0.281,IMU0,-1.6463414634146343,-2.5,-64.63414634146342,0.029296875,0.025390625,0.0009765625
19,-0.281,IMU1,-0.24390243902439027,-2.378048780487805,-66.82926829268293,0.01171875,0.017578125,-0.00390625
20,-0.271,IMU0,-2.1341463414634148,-3.780487804878049,-65.1219512195122,0.015625,0.009765625,0.0048828125
21,-0.271,IMU1,-0.7926829268292683,-2.987804878048781,-67.37804878048782,-0.001953125,0.0087890625,-0.0029296875
22,-0.261,IMU0,-1.829268292682927,-2.9268292682926833,-64.69512195121952,0.0283203125,0.0224609375,0.0029296875
23,-0.261,IMU1,-0.30487804878048785,-2.682926829268293,-66.76829268292684,0.0126953125,0.0205078125,-0.0009765625
24,-0.251,IMU0,-2.1341463414634148,-2.987804878048781,-65.3658536585366,0.0107421875,0.013671875,0.0009765625
25,-0.251,IMU1,-0.6707317073170732,-2.439024390243903,-67.5,-0.0078125,0.005859375,-0.0048828125
26,-0.241,IMU0,-1.707317073170732,-3.5975609756097566,-64.51219512195122,0.03125,0.0244140625,0.0068359375
27,-0.241,IMU1,-0.1829268292682927,-3.5975609756097566,-66.52439024390245,0.013671875,0.013671875,0.0
28,-0.231,IMU0,-2.6219512195121952,-1.8902439024390245,-65.3048780487805,0.0166015625,0.0068359375,0.001953125
29,-0.231,IMU1,-1.1585365853658538,-1.5853658536585367,-67.37804878048782,0.0009765625,0.0029296875,-0.00390625
30,-0.221,IMU0,-0.853658536585366,-3.5975609756097566,-64.75609756097562,0.0390625,0.0146484375,0.00390625
31,-0.221,IMU1,0.7317073170731708,-3.1097560975609757,-66.52439024390245,0.0234375,0.015625,-0.0029296875
32,-0.211,IMU0,-1.4634146341463417,-3.353658536585366,-65.3658536585366,0.037109375,0.0107421875,0.0009765625
33,-0.211,IMU1,0.12195121951219513,-2.804878048780488,-67.5609756097561,0.025390625,0.01171875,-0.005859375
34,-0.201,IMU0,-1.3414634146341464,-3.780487804878049,-65.54878048780489,0.041015625,0.001953125,0.0009765625
35,-0.201,IMU1,0.426829268292683,-2.987804878048781,-67.8048780487805,0.017578125,0.00390625,-0.00390625
36,-0.191,IMU0,-2.8658536585365857,-4.329268292682928,-64.81707317073172,0.0439453125,0.0,-0.001953125
37,-0.191,IMU1,-0.9146341463414634,-3.8414634146341466,-67.5609756097561,0.0166015625,0.001953125,-0.0068359375
38,-0.181,IMU0,-2.804878048780488,-3.2926829268292686,-65.42682926829269,0.0380859375,0.0126953125,0.0068359375
39,-0.181,IMU1,-0.7317073170731708,-2.6219512195121952,-67.25609756097562,0.0166015625,0.015625,0.0029296875
40,-0.171,IMU0,-2.073170731707317,-2.8658536585365857,-64.75609756097562,0.025390625,0.01953125,0.0146484375
41,-0.171,IMU1,-0.12195121951219513,-2.5609756097560976,-67.01219512195122,0.0068359375,0.02734375,0.0087890625
42,-0.161,IMU0,-0.30487804878048785,-4.634146341463415,-64.87804878048782,0.0107421875,0.0380859375,0.00390625
43,-0.161,IMU1,1.3414634146341464,-4.634146341463415,-66.28048780487805,-0.0078125,0.04296875,-0.005859375
44,-0.151,IMU0,-0.06097560975609757,-4.878048780487806,-69.87804878048782,0.0068359375,0.0390625,-0.01171875
45,-0.151,IMU1,1.3414634146341464,-3.658536585365854,-72.19512195121952,-0.009765625,0.044921875,-0.013671875
46,-0.141,IMU0,-5.670731707317073,-3.8414634146341466,-77.13414634146342,-0.0625,0.1123046875,0.0244140625
47,-0.141,IMU1,-4.695121951219512,-4.329268292682928,-79.57317073170732,-0.091796875,0.109375,0.0126953125
48,-0.131,IMU0,-2.1951219512195124,-4.2682926829268295,-80.73170731707317,-0.1123046875,0.158203125,0.0126953125
49,-0.131,IMU1,-0.853658536585366,-3.536585365853659,-82.6219512195122,-0.1328125,0.1640625,0.0087890625
50,-0.121,IMU0,-1.9512195121951221,2.1341463414634148,-91.15853658536587,-0.1474609375,0.2001953125,0.0244140625
51,-0.121,IMU1,-0.30487804878048785,2.6219512195121952,-93.04878048780489,-0.1767578125,0.2021484375,0.0166015625
52,-0.111,IMU0,0.06097560975609757,-1.5853658536585367,-104.75609756097562,-0.140625,0.208984375,-0.0078125
53,-0.111,IMU1,1.6463414634146343,1.4634146341463417,-108.71951219512196,-0.1611328125,0.20703125,-0.01953125
54,-0.101,IMU0,-2.378048780487805,0.7926829268292683,-123.59756097560977,-0.03125,0.2744140625,0.017578125
55,-0.101,IMU1,-0.7926829268292683,2.5,-127.31707317073172,-0.0634765625,0.263671875,0.00390625
56,-0.091,IMU0,-1.7682926829268295,1.0975609756097562,-132.8658536585366,0.0869140625,0.3173828125,0.0205078125
57,-0.091,IMU1,-0.7317073170731708,3.780487804878049,-135.97560975609758,0.0576171875,0.30859375,0.0107421875
58,-0.081,IMU0,1.5853658536585367,0.7317073170731708,-143.2926829268293,0.0693359375,0.310546875,0.0419921875
59,-0.081,IMU1,2.5,0.3658536585365854,-146.64634146341464,0.0322265625,0.2939453125,0.029296875
60,-0.071,IMU0,2.378048780487805,-4.695121951219512,-144.08536585365854,0.0986328125,0.2392578125,0.0400390625
61,-0.071,IMU1,3.536585365853659,-2.7439024390243905,-146.82926829268294,0.0654296875,0.2275390625,0.0322265625
62,-0.061,IMU0,2.5,-0.12195121951219513,-150.2439024390244,0.07421875,0.2041015625,0.0419921875
63,-0.061,IMU1,4.573170731707317,2.0121951219512195,-152.13414634146343,0.0439453125,0.1875,0.033203125
64,-0.051,IMU0,4.817073170731708,1.402439024390244,-149.87804878048783,0.0146484375,0.1552734375,0.0322265625
65,-0.051,IMU1,6.951219512195123,1.6463414634146343,-152.25609756097563,-0.009765625,0.1376953125,0.0244140625
66,-0.041,IMU0,3.8414634146341466,1.5853658536585367,-155.7926829268293,-0.0078125,0.142578125,0.0400390625
67,-0.041,IMU1,5.7926829268292686,2.804878048780488,-158.0487804878049,-0.029296875,0.1328125,0.0302734375
68,-0.031,IMU0,4.939024390243903,5.7926829268292686,-156.34146341463415,0.03125,0.1982421875,0.017578125
69,-0.031,IMU1,6.829268292682928,5.548780487804878,-158.35365853658539,0.0185546875,0.185546875,0.0107421875
70,-0.021,IMU0,2.7439024390243905,-0.30487804878048785,-162.31707317073173,0.048828125,0.20703125,0.0224609375
71,-0.021,IMU1,3.9024390243902443,0.12195121951219513,-165.00000000000003,0.0439453125,0.19140625,0.013671875
72,-0.011,IMU0,5.487804878048781,4.51219512195122,-159.75609756097563,0.091796875,0.1845703125,0.0087890625
73,-0.011,IMU1,7.317073170731708,4.878048780487806,-161.09756097560978,0.08203125,0.1767578125,0.0
74,-0.001,IMU0,5.2439024390243905,1.829268292682927,-164.20731707317074,0.1181640625,0.13671875,0.013671875
75,-0.001,IMU1,6.402439024390245,2.5,-165.1829268292683,0.1044921875,0.1337890625,0.0068359375
76,0.009,IMU0,3.536585365853659,1.1585365853658538,-167.7439024390244,0.1162109375,0.1005859375,0.0107421875
77,0.009,IMU1,4.939024390243903,1.9512195121951221,-170.0609756097561,0.1015625,0.1005859375,0.0068359375
78,0.019,IMU0,4.146341463414634,4.573170731707317,-166.46341463414635,0.0966796875,0.1103515625,0.0224609375
79,0.019,IMU1,6.52439024390244,4.51219512195122,-168.59756097560978,0.0771484375,0.111328125,0.0166015625
80,0.029,IMU0,4.939024390243903,1.0975609756097562,-168.2926829268293,0.1201171875,0.1181640625,0.0439453125
81,0.029,IMU1,7.500000000000001,2.5,-170.00000000000003,0.1044921875,0.119140625,0.0341796875
82,0.039,IMU0,4.146341463414634,4.2682926829268295,-167.6219512195122,0.1357421875,0.13671875,0.0537109375
83,0.039,IMU1,5.670731707317073,4.817073170731708,-169.20731707317074,0.115234375,0.1357421875,0.0478515625
84,0.049,IMU0,4.329268292682928,-1.402439024390244,-172.50000000000003,0.10546875,0.15625,0.0556640625
85,0.049,IMU1,5.670731707317073,-0.30487804878048785,-173.96341463414635,0.087890625,0.1572265625,0.0478515625
86,0.059,IMU0,3.4756097560975614,0.7926829268292683,-172.9268292682927,0.033203125,0.17578125,0.04296875
87,0.059,IMU1,4.939024390243903,1.1585365853658538,-174.81707317073173,0.0048828125,0.1787109375,0.0361328125
88,0.069,IMU0,7.01219512195122,2.804878048780488,-176.58536585365854,-0.0009765625,0.1787109375,0.021484375
89,0.069,IMU1,9.329268292682928,3.780487804878049,-178.2926829268293,-0.0224609375,0.181640625,0.0146484375
90,0.079,IMU0,6.951219512195123,3.1707317073170733,-178.1707317073171,0.0048828125,0.1259765625,0.0224609375
91,0.079,IMU1,8.963414634146343,3.536585365853659,-180.91463414634148,-0.0107421875,0.119140625,0.015625
92,0.089,IMU0,6.707317073170732,4.573170731707317,-179.69512195121953,0.0302734375,0.0791015625,0.0234375
93,0.089,IMU1,9.02439024390244,5.0,-181.52439024390245,0.0107421875,0.0732421875,0.0185546875
94,0.099,IMU0,4.878048780487806,4.695121951219512,-185.97560975609758,0.0556640625,0.05859375,0.041015625
95,0.099,IMU1,8.231707317073171,5.609756097560976,-187.50000000000003,0.0458984375,0.0595703125,0.0322265625
96,0.109,IMU0,4.2682926829268295,2.804878048780488,-191.58536585365854,0.0810546875,0.072265625,0.060546875
97,0.109,IMU1,7.073170731707318,3.9024390243902443,-192.9268292682927,0.068359375,0.0703125,0.0517578125
98,0.119,IMU0,5.2439024390243905,1.2804878048780488,-192.8048780487805,0.0517578125,0.0810546875,0.0654296875
99,0.119,IMU1,7.073170731707318,2.1951219512195124,-194.51219512195124,0.0380859375,0.0849609375,0.05859375
100,0.129,IMU0,6.402439024390245,3.536585365853659,-192.6829268292683,0.04296875,0.0791015625,0.0693359375
101,0.129,IMU1,8.719512195121952,4.024390243902439,-194.20731707317074,0.0224609375,0.078125,0.064453125
102,0.139,IMU0,6.707317073170732,4.085365853658537,-192.31707317073173,0.044921875,0.0712890625,0.0693359375
103,0.139,IMU1,8.841463414634147,4.634146341463415,-193.41463414634148,0.037109375,0.0712890625,0.0634765625
104,0.149,IMU0,6.036585365853659,3.536585365853659,-195.2439024390244,0.02734375,0.0498046875,0.07421875
105,0.149,IMU1,7.926829268292684,4.390243902439025,-196.15853658536588,0.0126953125,0.0537109375,0.068359375
106,0.159,IMU0,4.024390243902439,3.658536585365854,-198.0487804878049,0.041015625,0.0419921875,0.0654296875
107,0.159,IMU1,6.402439024390245,4.695121951219512,-199.51219512195124,0.0224609375,0.04296875,0.0576171875
108,0.169,IMU0,2.439024390243903,1.2195121951219514,-201.70731707317074,0.03125,0.05078125,0.0537109375
109,0.169,IMU1,4.207317073170732,1.9512195121951221,-203.96341463414635,0.009765625,0.0458984375,0.0439453125
110,0.179,IMU0,2.987804878048781,2.073170731707317,-205.6707317073171,0.033203125,0.03515625,0.041015625
111,0.179,IMU1,4.878048780487806,2.7439024390243905,-208.109756097561,0.013671875,0.033203125,0.033203125
112,0.189,IMU0,3.1097560975609757,2.682926829268293,-207.56097560975613,0.0537109375,0.037109375,0.041015625
113,0.189,IMU1,4.817073170731708,3.536585365853659,-209.45121951219514,0.033203125,0.0390625,0.0341796875
114,0.199,IMU0,3.658536585365854,2.7439024390243905,-210.3048780487805,0.0556640625,0.0771484375,0.041015625
115,0.199,IMU1,5.426829268292684,3.7195121951219514,-211.70731707317074,0.0283203125,0.08203125,0.0341796875
116,0.209,IMU0,2.987804878048781,2.25609756097561,-213.109756097561,0.0361328125,0.08984375,0.0419921875
117,0.209,IMU1,5.060975609756098,3.231707317073171,-215.5487804878049,0.009765625,0.0869140625,0.0341796875
118,0.219,IMU0,4.451219512195122,1.524390243902439,-217.01219512195124,0.0498046875,0.0615234375,0.0478515625
119,0.219,IMU1,6.951219512195123,2.5,-219.14634146341464,0.01171875,0.0595703125,0.04296875
120,0.229,IMU0,6.158536585365854,2.9268292682926833,-215.4268292682927,0.0380859375,0.048828125,0.0673828125
121,0.229,IMU1,8.292682926829269,4.024390243902439,-216.82926829268294,-0.0009765625,0.0517578125,0.064453125
122,0.239,IMU0,3.414634146341464,2.5,-217.01219512195124,0.01953125,0.01953125,0.10546875
123,0.239,IMU1,5.487804878048781,3.231707317073171,-219.39024390243904,-0.0126953125,0.0224609375,0.1015625
124,0.249,IMU0,3.2926829268292686,1.402439024390244,-220.609756097561,-0.0078125,-0.0078125,0.123046875
125,0.249,IMU1,5.365853658536586,2.1951219512195124,-222.62195121951223,-0.0341796875,-0.0126953125,0.119140625
126,0.259,IMU0,2.25609756097561,2.804878048780488,-218.53658536585368,-0.0029296875,0.0283203125,0.1416015625
127,0.259,IMU1,3.780487804878049,3.780487804878049,-219.93902439024393,-0.0263671875,0.0263671875,0.1357421875
128,0.269,IMU0,2.5,4.085365853658537,-218.35365853658539,0.0029296875,0.052734375,0.154296875
129,0.269,IMU1,4.451219512195122,4.878048780487806,-220.609756097561,-0.025390625,0.0517578125,0.1474609375
130,0.279,IMU0,6.036585365853659,3.353658536585366,-217.50000000000003,0.0263671875,0.0283203125,0.1591796875
131,0.279,IMU1,8.353658536585366,4.146341463414634,-219.51219512195124,0.00390625,0.0234375,0.1513671875
132,0.289,IMU0,5.060975609756098,2.987804878048781,-212.9878048780488,0.03515625,-0.01171875,0.1630859375
133,0.289,IMU1,6.890243902439025,3.9024390243902443,-213.78048780487808,0.013671875,-0.0068359375,0.15625
134,0.299,IMU0,2.3170731707317076,3.1707317073170733,-215.12195121951223,0.005859375,0.0048828125,0.1591796875
135,0.299,IMU1,4.817073170731708,4.085365853658537,-216.76829268292684,-0.0205078125,0.0048828125,0.1533203125
136,0.309,IMU0,6.585365853658537,3.1707317073170733,-215.4268292682927,0.005859375,0.0556640625,0.15234375
137,0.309,IMU1,8.963414634146343,4.085365853658537,-216.46341463414635,-0.0087890625,0.0595703125,0.1435546875
138,0.319,IMU0,3.4756097560975614,4.2682926829268295,-217.25609756097563,0.0126953125,0.048828125,0.1611328125
139,0.319,IMU1,5.609756097560976,5.3048780487804885,-218.59756097560978,-0.005859375,0.046875,0.1513671875
140,0.329,IMU0,4.207317073170732,3.658536585365854,-223.35365853658539,0.0576171875,0.03125,0.169921875
141,0.329,IMU1,6.646341463414635,4.634146341463415,-225.3048780487805,0.0400390625,0.0458984375,0.169921875
142,0.339,IMU0,3.414634146341464,2.987804878048781,-220.3658536585366,0.0625,0.041015625,0.1787109375
143,0.339,IMU1,5.487804878048781,3.963414634146342,-221.76829268292684,0.033203125,0.0224609375,0.1708984375
144,0.349,IMU0,6.463414634146342,3.048780487804878,-221.58536585365854,0.04296875,0.005859375,0.185546875
145,0.349,IMU1,8.841463414634147,4.085365853658537,-223.47560975609758,0.02734375,0.0185546875,0.1845703125
146,0.359,IMU0,4.634146341463415,2.804878048780488,-216.28048780487808,0.041015625,0.009765625,0.193359375
147,0.359,IMU1,6.890243902439025,2.5,-223.90243902439028,0.005859375,-0.0244140625,0.1865234375
148,0.369,IMU0,3.7195121951219514,1.3414634146341464,-219.63414634146343,-0.0263671875,-0.0166015625,0.203125
149,0.369,IMU1,3.9024390243902443,1.4634146341463417,-219.69512195121953,-0.0546875,-0.0166015625,0.201171875
150,0.379,IMU0,2.3170731707317076,2.682926829268293,-215.97560975609758,-0.0498046875,0.0458984375,0.2080078125
151,0.379,IMU1,3.9024390243902443,3.2926829268292686,-221.95121951219514,-0.0849609375,0.021484375,0.2001953125
152,0.389,IMU0,3.9024390243902443,3.414634146341464,-219.32926829268294,-0.08984375,0.0244140625,0.2001953125
153,0.389,IMU1,6.646341463414635,4.390243902439025,-215.7317073170732,-0.1103515625,0.03125,0.1943359375
154,0.399,IMU0,3.7195121951219514,3.536585365853659,-213.1707317073171,-0.0888671875,0.0517578125,0.2041015625
155,0.399,IMU1,5.975609756097562,3.1707317073170733,-215.97560975609758,-0.11328125,0.044921875,0.1953125
156,0.409,IMU0,4.817073170731708,3.353658536585366,-214.02439024390245,-0.11328125,0.02734375,0.1962890625
157,0.409,IMU1,7.926829268292684,3.5975609756097566,-215.6707317073171,-0.130859375,0.0419921875,0.1943359375
158,0.419,IMU0,3.4756097560975614,2.6219512195121952,-211.34146341463418,-0.1064453125,0.03125,0.1982421875
159,0.419,IMU1,5.487804878048781,3.2926829268292686,-216.95121951219514,-0.138671875,0.0185546875,0.1904296875
160,0.429,IMU0,2.439024390243903,0.9756097560975611,-214.63414634146343,-0.1533203125,0.0068359375,0.18359375
161,0.429,IMU1,6.341463414634147,1.0975609756097562,-213.90243902439028,-0.1591796875,0.009765625,0.1748046875
162,0.439,IMU0,4.024390243902439,-0.6097560975609757,-208.65853658536588,-0.2216796875,0.0205078125,0.158203125
163,0.439,IMU1,6.585365853658537,1.8902439024390245,-210.4268292682927,-0.2421875,0.013671875,0.1435546875
164,0.449,IMU0,3.414634146341464,1.1585365853658538,-210.7926829268293,-0.2919921875,0.001953125,0.126953125
165,0.449,IMU1,7.560975609756098,2.378048780487805,-208.41463414634148,-0.3134765625,0.005859375,0.1201171875
166,0.459,IMU0,4.817073170731708,1.7682926829268295,-204.93902439024393,-0.3212890625,0.0185546875,0.10546875
167,0.459,IMU1,4.451219512195122,3.048780487804878,-204.87804878048783,-0.3369140625,0.025390625,0.09765625
168,0.469,IMU0,3.7195121951219514,1.6463414634146343,-203.84146341463418,-0.3623046875,0.0087890625,0.078125
169,0.469,IMU1,6.646341463414635,2.5609756097560976,-208.53658536585368,-0.3857421875,0.0068359375,0.0703125
170,0.479,IMU0,5.487804878048781,1.8902439024390245,-202.8048780487805,-0.4091796875,0.001953125,0.06640625
171,0.479,IMU1,5.3048780487804885,3.353658536585366,-203.53658536585368,-0.423828125,0.001953125,0.05859375
172,0.489,IMU0,2.7439024390243905,2.6219512195121952,-202.50000000000003,-0.4111328125,-0.0341796875,0.0537109375
173,0.489,IMU1,6.097560975609756,3.2926829268292686,-205.00000000000003,-0.431640625,-0.044921875,0.0458984375
174,0.499,IMU0,4.207317073170732,2.682926829268293,-201.40243902439025,-0.4111328125,-0.0087890625,0.0537109375
175,0.499,IMU1,4.75609756097561,3.963414634146342,-198.47560975609758,-0.4189453125,-0.0185546875,0.0439453125
176,0.509,IMU0,3.5975609756097566,3.4756097560975614,-196.70731707317074,-0.4306640625,-0.005859375,0.048828125
177,0.509,IMU1,6.2804878048780495,2.439024390243903,-201.76829268292684,-0.4306640625,-0.0234375,0.0380859375
178,0.519,IMU0,5.060975609756098,1.3414634146341464,-196.03658536585368,-0.408203125,-0.001953125,0.0390625
179,0.519,IMU1,6.829268292682928,2.1341463414634148,-197.37804878048783,-0.4228515625,-0.013671875,0.0302734375
180,0.529,IMU0,3.963414634146342,0.9146341463414634,-197.7439024390244,-0.4267578125,-0.01171875,0.0224609375
181,0.529,IMU1,5.365853658536586,1.7682926829268295,-199.75609756097563,-0.4384765625,-0.0224609375,0.0146484375
182,0.539,IMU0,4.085365853658537,1.1585365853658538,-191.03658536585368,-0.4365234375,0.01953125,0.0166015625
183,0.539,IMU1,5.914634146341464,1.9512195121951221,-193.35365853658539,-0.4541015625,0.0087890625,0.0087890625
184,0.549,IMU0,2.0121951219512195,3.4756097560975614,-189.32926829268294,-0.4111328125,0.017578125,0.005859375
185,0.549,IMU1,4.2682926829268295,4.207317073170732,-190.1829268292683,-0.431640625,0.0302734375,-0.001953125
186,0.559,IMU0,4.2682926829268295,2.439024390243903,-190.2439024390244,-0.3486328125,0.0234375,0.0078125
187,0.559,IMU1,6.52439024390244,3.414634146341464,-192.31707317073173,-0.3671875,0.025390625,-0.001953125
188,0.569,IMU0,0.9756097560975611,3.231707317073171,-188.1707317073171,-0.302734375,0.001953125,0.001953125
189,0.569,IMU1,3.048780487804878,3.9024390243902443,-189.75609756097563,-0.3232421875,0.009765625,-0.0078125
190,0.579,IMU0,2.378048780487805,3.048780487804878,-183.84146341463415,-0.248046875,0.0107421875,0.0068359375
191,0.579,IMU1,4.695121951219512,3.8414634146341466,-186.64634146341464,-0.267578125,0.0,-0.00390625
192,0.589,IMU0,-0.3658536585365854,1.0975609756097562,-181.82926829268294,-0.2392578125,0.0322265625,0.017578125
193,0.589,IMU1,1.6463414634146343,2.073170731707317,-182.01219512195124,-0.25390625,0.037109375,0.009765625
194,0.599,IMU0,1.7682926829268295,0.6707317073170732,-183.84146341463415,-0.279296875,0.0087890625,0.015625
195,0.599,IMU1,4.085365853658537,1.5853658536585367,-186.34146341463415,-0.2978515625,0.0107421875,0.0078125
196,0.609,IMU0,-0.12195121951219513,0.9756097560975611,-179.81707317073173,-0.2451171875,-0.0029296875,0.03125
197,0.609,IMU1,1.524390243902439,1.8902439024390245,-181.34146341463415,-0.275390625,0.00390625,0.0244140625
198,0.619,IMU0,2.378048780487805,-0.06097560975609757,-180.00000000000003,-0.2548828125,-0.015625,0.0302734375
199,0.619,IMU1,4.085365853658537,0.7317073170731708,-183.2926829268293,-0.2861328125,-0.0185546875,0.025390625
200,0.629,IMU0,2.1951219512195124,2.5609756097560976,-174.93902439024393,-0.23828125,0.0234375,0.0244140625
201,0.629,IMU1,4.207317073170732,3.2926829268292686,-176.09756097560978,-0.2626953125,0.0263671875,0.01953125
202,0.639,IMU0,3.4756097560975614,2.1341463414634148,-177.9268292682927,-0.140625,-0.0244140625,0.0341796875
203,0.639,IMU1,5.487804878048781,3.048780487804878,-180.7317073170732,-0.16015625,-0.01953125,0.0263671875
204,0.649,IMU0,2.378048780487805,0.9146341463414634,-173.2317073170732,-0.0986328125,-0.0341796875,0.0537109375
205,0.649,IMU1,4.51219512195122,1.4634146341463417,-174.75609756097563,-0.115234375,-0.03125,0.046875
206,0.659,IMU0,2.6219512195121952,2.0121951219512195,-174.63414634146343,-0.09375,-0.0498046875,0.064453125
207,0.659,IMU1,5.0,2.804878048780488,-177.19512195121953,-0.107421875,-0.048828125,0.0556640625
208,0.669,IMU0,0.3658536585365854,1.3414634146341464,-172.01219512195124,-0.0244140625,0.0107421875,0.078125
209,0.669,IMU1,2.6219512195121952,2.073170731707317,-172.43902439024393,-0.03515625,0.015625,0.068359375
210,0.679,IMU0,2.439024390243903,0.12195121951219513,-178.47560975609758,-0.0419921875,0.00390625,0.0791015625
211,0.679,IMU1,4.390243902439025,1.2195121951219514,-181.15853658536588,-0.064453125,0.013671875,0.0693359375
212,0.689,IMU0,3.536585365853659,0.6707317073170732,-174.69512195121953,-0.0244140625,0.015625,0.08203125
213,0.689,IMU1,5.365853658536586,1.402439024390244,-175.609756097561,-0.0458984375,0.0361328125,0.0771484375
214,0.699,IMU0,4.817073170731708,-0.9756097560975611,-179.26829268292684,-0.0205078125,-0.03515625,0.0908203125
215,0.699,IMU1,7.134146341463415,-0.24390243902439027,-181.64634146341464,-0.037109375,-0.0341796875,0.083984375
216,0.709,IMU0,2.0121951219512195,0.7926829268292683,-180.609756097561,-0.03515625,-0.044921875,0.08984375
217,0.709,IMU1,3.9024390243902443,1.402439024390244,-182.31707317073173,-0.0498046875,-0.041015625,0.0849609375
218,0.719,IMU0,2.0121951219512195,0.853658536585366,-175.3048780487805,-0.005859375,-0.0234375,0.099609375
219,0.719,IMU1,4.817073170731708,1.7682926829268295,-177.25609756097563,-0.0224609375,-0.0263671875,0.0927734375
220,0.729,IMU0,1.829268292682927,1.0975609756097562,-182.8658536585366,0.021484375,-0.04296875,0.0927734375
221,0.729,IMU1,3.353658536585366,2.073170731707317,-184.20731707317074,0.001953125,-0.0322265625,0.087890625
222,0.739,IMU0,0.7317073170731708,1.0365853658536586,-175.91463414634148,0.044921875,-0.00390625,0.091796875
223,0.739,IMU1,2.3170731707317076,1.9512195121951221,-177.6829268292683,0.0302734375,0.009765625,0.0869140625
224,0.749,IMU0,2.682926829268293,0.6707317073170732,-177.6219512195122,0.068359375,0.0166015625,0.0888671875
225,0.749,IMU1,5.121951219512195,1.402439024390244,-179.75609756097563,0.0439453125,0.0234375,0.083984375
226,0.759,IMU0,0.9756097560975611,1.0365853658536586,-177.25609756097563,0.0888671875,0.0166015625,0.0830078125
227,0.759,IMU1,2.439024390243903,1.524390243902439,-177.6219512195122,0.0712890625,0.0302734375,0.078125
228,0.769,IMU0,0.6097560975609757,0.12195121951219513,-171.15853658536588,0.06640625,0.0224609375,0.0830078125
229,0.769,IMU1,3.231707317073171,1.0365853658536586,-173.65853658536588,0.0341796875,0.0283203125,0.0751953125
230,0.779,IMU0,1.5853658536585367,0.6097560975609757,-177.6219512195122,0.021484375,0.0048828125,0.0673828125
231,0.779,IMU1,2.439024390243903,1.6463414634146343,-178.41463414634148,0.0068359375,0.0029296875,0.060546875
232,0.789,IMU0,0.6707317073170732,0.853658536585366,-169.51219512195124,0.060546875,0.005859375,0.0595703125
233,0.789,IMU1,2.25609756097561,1.524390243902439,-172.6219512195122,0.03515625,0.00390625,0.0556640625
234,0.799,IMU0,3.4756097560975614,-0.1829268292682927,-168.41463414634148,0.0615234375,-0.01171875,0.03515625
235,0.799,IMU1,5.914634146341464,0.30487804878048785,-170.85365853658539,0.029296875,-0.009765625,0.03125
236,0.809,IMU0,1.5853658536585367,0.6097560975609757,-168.47560975609758,0.0234375,-0.029296875,0.0341796875
237,0.809,IMU1,2.8658536585365857,1.4634146341463417,-168.35365853658539,-0.005859375,-0.0146484375,0.0322265625
238,0.819,IMU0,2.3170731707317076,0.9146341463414634,-162.9878048780488,0.0302734375,-0.0224609375,0.03125
239,0.819,IMU1,4.817073170731708,1.8902439024390245,-166.34146341463415,-0.0009765625,-0.021484375,0.02734375
240,0.829,IMU0,3.231707317073171,-0.426829268292683,-167.37804878048783,0.0419921875,-0.046875,0.0380859375
241,0.829,IMU1,4.51219512195122,0.426829268292683,-168.2317073170732,0.0126953125,-0.0400390625,0.0341796875
242,0.839,IMU0,0.7317073170731708,0.7317073170731708,-159.87804878048783,-0.029296875,0.0029296875,0.0634765625
243,0.839,IMU1,2.804878048780488,1.0975609756097562,-161.76829268292684,-0.044921875,-0.00390625,0.05859375
244,0.849,IMU0,1.5853658536585367,0.853658536585366,-160.3048780487805,-0.0498046875,0.01171875,0.0732421875
245,0.849,IMU1,4.207317073170732,1.7682926829268295,-162.8658536585366,-0.0751953125,0.0107421875,0.06640625
246,0.859,IMU0,2.0121951219512195,0.48780487804878053,-163.2317073170732,-0.0556640625,-0.0029296875,0.0693359375
247,0.859,IMU1,2.8658536585365857,1.524390243902439,-162.6829268292683,-0.056640625,0.0087890625,0.0625
248,0.869,IMU0,2.0121951219512195,-0.3658536585365854,-156.15853658536588,-0.0625,-0.0224609375,0.06640625
249,0.869,IMU1,4.207317073170732,0.30487804878048785,-159.08536585365854,-0.080078125,-0.01953125,0.05859375
250,0.879,IMU0,2.073170731707317,0.30487804878048785,-159.51219512195124,-0.080078125,-0.03515625,0.0546875
251,0.879,IMU1,3.353658536585366,1.1585365853658538,-161.21951219512198,-0.103515625,-0.0244140625,0.048828125
252,0.889,IMU0,-0.9756097560975611,1.2804878048780488,-154.69512195121953,-0.0498046875,0.021484375,0.0546875
253,0.889,IMU1,0.9756097560975611,2.1341463414634148,-155.609756097561,-0.0693359375,0.0380859375,0.05078125
254,0.899,IMU0,2.0121951219512195,0.426829268292683,-155.2439024390244,-0.0439453125,0.03515625,0.0419921875
255,0.899,IMU1,4.634146341463415,1.4634146341463417,-158.2926829268293,-0.060546875,0.04296875,0.03515625
256,0.909,IMU0,1.2195121951219514,2.0121951219512195,-157.8048780487805,-0.0400390625,0.02734375,0.03515625
257,0.909,IMU1,1.707317073170732,3.048780487804878,-159.51219512195124,-0.0498046875,0.02734375,0.029296875
258,0.919,IMU0,0.853658536585366,0.853658536585366,-149.08536585365854,-0.0126953125,0.064453125,0.037109375
259,0.919,IMU1,3.5975609756097566,1.8902439024390245,-152.19512195121953,-0.0205078125,0.0478515625,0.0283203125
260,0.929,IMU0,2.8658536585365857,0.9146341463414634,-155.1219512195122,-0.03125,0.0009765625,0.0166015625
261,0.929,IMU1,4.451219512195122,1.6463414634146343,-156.52439024390245,-0.05078125,0.0107421875,0.01171875
262,0.939,IMU0,2.073170731707317,2.1951219512195124,-150.3048780487805,-0.0361328125,0.00390625,0.0185546875
263,0.939,IMU1,3.1097560975609757,3.1707317073170733,-151.95121951219514,-0.0458984375,-0.0009765625,0.013671875
264,0.949,IMU0,1.4634146341463417,0.9146341463414634,-148.53658536585368,-0.0087890625,0.0,0.0166015625
265,0.949,IMU1,4.390243902439025,1.4634146341463417,-150.7317073170732,-0.03125,-0.0048828125,0.009765625
266,0.959,IMU0,3.414634146341464,0.5487804878048781,-151.15853658536588,-0.0439453125,0.01171875,0.01171875
267,0.959,IMU1,4.085365853658537,1.402439024390244,-154.75609756097563,-0.0615234375,0.0166015625,0.0078125
268,0.969,IMU0,-0.30487804878048785,1.3414634146341464,-144.32926829268294,-0.0478515625,0.04296875,0.0224609375
269,0.969,IMU1,2.25609756097561,2.073170731707317,-143.1707317073171,-0.0654296875,0.0556640625,0.017578125
270,0.979,IMU0,3.5975609756097566,1.4634146341463417,-148.53658536585368,-0.048828125,0.0166015625,0.021484375
271,0.979,IMU1,5.365853658536586,2.073170731707317,-153.1707317073171,-0.0693359375,0.0068359375,0.013671875
272,0.989,IMU0,2.5609756097560976,0.9756097560975611,-143.96341463414635,-0.0615234375,0.0185546875,0.01953125
273,0.989,IMU1,3.536585365853659,2.0121951219512195,-144.51219512195124,-0.07421875,0.017578125,0.015625
274,0.999,IMU0,0.1829268292682927,2.8658536585365857,-141.76829268292684,-0.0458984375,0.0078125,0.0224609375
275,0.999,IMU1,2.804878048780488,3.1097560975609757,-143.1707317073171,-0.0634765625,0.015625,0.0166015625
276,1.009,IMU0,3.780487804878049,0.6097560975609757,-139.87804878048783,-0.03125,0.0,0.017578125
277,1.009,IMU1,5.609756097560976,1.9512195121951221,-143.90243902439025,-0.04296875,-0.0078125,0.0078125
278,1.019,IMU0,2.6219512195121952,0.426829268292683,-142.31707317073173,-0.0576171875,-0.0078125,0.0244140625
279,1.019,IMU1,3.1097560975609757,1.2195121951219514,-140.1829268292683,-0.07421875,0.01171875,0.0205078125
280,1.029,IMU0,4.390243902439025,0.24390243902439027,-133.35365853658539,-0.0849609375,-0.01171875,0.0263671875
281,1.029,IMU1,7.134146341463415,0.9146341463414634,-139.14634146341464,-0.103515625,-0.015625,0.01953125
282,1.039,IMU0,4.878048780487806,-0.12195121951219513,-141.95121951219514,-0.1103515625,-0.0693359375,0.025390625
283,1.039,IMU1,6.402439024390245,0.6097560975609757,-142.7439024390244,-0.1328125,-0.07421875,0.0205078125
284,1.049,IMU0,3.353658536585366,-0.1829268292682927,-140.0609756097561,-0.1474609375,-0.08984375,0.0263671875
285,1.049,IMU1,3.963414634146342,0.7926829268292683,-140.85365853658539,-0.1689453125,-0.09375,0.0185546875
286,1.059,IMU0,1.829268292682927,1.2804878048780488,-137.19512195121953,-0.146484375,-0.0693359375,0.02734375
287,1.059,IMU1,4.75609756097561,1.0975609756097562,-139.08536585365854,-0.181640625,-0.0751953125,0.021484375
288,1.069,IMU0,3.780487804878049,-1.0365853658536586,-138.71951219512195,-0.162109375,-0.044921875,0.0263671875
289,1.069,IMU1,3.231707317073171,-0.853658536585366,-135.97560975609758,-0.1884765625,-0.025390625,0.021484375
290,1.079,IMU0,3.5975609756097566,-1.2195121951219514,-139.51219512195124,-0.2490234375,-0.056640625,0.0234375
291,1.079,IMU1,7.621951219512196,-0.7926829268292683,-144.75609756097563,-0.2978515625,-0.0732421875,0.01953125
292,1.089,IMU0,1.6463414634146343,0.24390243902439027,-133.1707317073171,-0.28125,-0.09375,0.0341796875
293,1.089,IMU1,2.5609756097560976,1.402439024390244,-135.2439024390244,-0.3037109375,-0.0859375,0.0263671875
294,1.099,IMU0,1.707317073170732,-0.1829268292682927,-135.97560975609758,-0.283203125,-0.109375,0.02734375
295,1.099,IMU1,2.0121951219512195,0.48780487804878053,-136.15853658536585,-0.3125,-0.091796875,0.025390625
296,1.109,IMU0,1.524390243902439,-0.853658536585366,-136.46341463414635,-0.3408203125,-0.12109375,0.0166015625
297,1.109,IMU1,4.2682926829268295,-0.7317073170731708,-137.9268292682927,-0.37109375,-0.1103515625,0.0087890625
298,1.119,IMU0,0.9756097560975611,-0.853658536585366,-133.65853658536585,-0.3349609375,-0.0947265625,0.017578125
299,1.119,IMU1,3.963414634146342,0.48780487804878053,-138.41463414634148,-0.365234375,-0.1005859375,0.009765625
300,1.129,IMU0,3.048780487804878,0.7926829268292683,-130.85365853658539,-0.3642578125,-0.1103515625,0.0146484375
301,1.129,IMU1,2.804878048780488,1.707317073170732,-130.609756097561,-0.3759765625,-0.103515625,0.0107421875
302,1.139,IMU0,2.5609756097560976,-0.1829268292682927,-137.8048780487805,-0.3623046875,-0.1298828125,0.015625
303,1.139,IMU1,5.121951219512195,0.12195121951219513,-139.14634146341464,-0.3740234375,-0.1328125,0.009765625
304,1.149,IMU0,2.6219512195121952,-1.2804878048780488,-133.1707317073171,-0.3623046875,-0.146484375,0.01953125
305,1.149,IMU1,5.3048780487804885,-1.0365853658536586,-136.15853658536585,-0.384765625,-0.15234375,0.0126953125
306,1.159,IMU0,2.1341463414634148,-1.2195121951219514,-131.09756097560978,-0.4189453125,-0.16796875,0.0185546875
307,1.159,IMU1,3.7195121951219514,-0.24390243902439027,-134.75609756097563,-0.453125,-0.171875,0.013671875
308,1.169,IMU0,4.390243902439025,-0.853658536585366,-134.81707317073173,-0.4404296875,-0.185546875,0.0244140625
309,1.169,IMU1,4.939024390243903,-0.1829268292682927,-133.2317073170732,-0.46484375,-0.173828125,0.01953125
310,1.179,IMU0,2.0121951219512195,0.853658536585366,-135.5487804878049,-0.4443359375,-0.1767578125,0.0126953125
311,1.179,IMU1,5.182926829268293,1.5853658536585367,-139.02439024390245,-0.4580078125,-0.1865234375,0.0068359375
312,1.189,IMU0,0.426829268292683,1.7682926829268295,-128.96341463414635,-0.369140625,-0.1064453125,0.0146484375
313,1.189,IMU1,1.5853658536585367,2.25609756097561,-132.9268292682927,-0.384765625,-0.1171875,0.005859375
314,1.199,IMU0,4.695121951219512,0.24390243902439027,-136.40243902439025,-0.25,-0.1025390625,0.0078125
315,1.199,IMU1,5.487804878048781,1.0365853658536586,-135.6707317073171,-0.26171875,-0.09375,0.0009765625
316,1.209,IMU0,3.8414634146341466,-0.5487804878048781,-129.14634146341464,-0.158203125,-0.060546875,-0.0048828125
317,1.209,IMU1,6.707317073170732,0.3658536585365854,-134.45121951219514,-0.1826171875,-0.087890625,-0.013671875
318,1.219,IMU0,2.804878048780488,-2.073170731707317,-126.40243902439026,-0.1328125,-0.0595703125,0.0078125
319,1.219,IMU1,3.7195121951219514,-1.7682926829268295,-128.35365853658539,-0.1640625,-0.0771484375,0.0029296875
320,1.229,IMU0,3.7195121951219514,-3.780487804878049,-128.53658536585368,-0.16796875,-0.0263671875,0.0048828125
321,1.229,IMU1,4.51219512195122,-3.231707317073171,-128.35365853658539,-0.1796875,-0.0263671875,-0.001953125
322,1.239,IMU0,4.817073170731708,-0.9146341463414634,-127.6829268292683,-0.1630859375,0.001953125,0.005859375
323,1.239,IMU1,7.682926829268293,-0.12195121951219513,-129.14634146341464,-0.1806640625,-0.0009765625,0.0009765625
324,1.249,IMU0,2.5,-1.7682926829268295,-120.54878048780489,-0.099609375,0.0107421875,0.015625
325,1.249,IMU1,4.634146341463415,-1.2195121951219514,-125.73170731707319,-0.138671875,0.0068359375,0.009765625
326,1.259,IMU0,5.3048780487804885,-3.1097560975609757,-124.63414634146342,-0.0927734375,-0.017578125,0.01171875
327,1.259,IMU1,5.2439024390243905,-2.439024390243903,-121.40243902439025,-0.115234375,0.0068359375,0.009765625
328,1.269,IMU0,2.5,-2.5609756097560976,-122.07317073170732,-0.1005859375,0.0029296875,0.0078125
329,1.269,IMU1,5.853658536585367,-2.1341463414634148,-126.21951219512196,-0.13671875,-0.0009765625,0.001953125
330,1.279,IMU0,2.073170731707317,-2.5609756097560976,-115.3658536585366,-0.0830078125,0.009765625,0.015625
331,1.279,IMU1,3.1097560975609757,-1.9512195121951221,-117.92682926829269,-0.109375,0.017578125,0.0087890625
332,1.289,IMU0,4.2682926829268295,-3.2926829268292686,-118.65853658536587,-0.08984375,-0.0166015625,0.0087890625
333,1.289,IMU1,5.182926829268293,-2.378048780487805,-118.10975609756099,-0.1005859375,-0.01171875,0.0029296875
334,1.299,IMU0,2.25609756097561,-2.9268292682926833,-116.09756097560977,-0.091796875,-0.015625,0.001953125
335,1.299,IMU1,4.390243902439025,-2.5609756097560976,-118.47560975609757,-0.12109375,-0.01171875,-0.0068359375
336,1.309,IMU0,0.48780487804878053,-3.1707317073170733,-114.45121951219514,-0.0595703125,0.0146484375,0.0068359375
337,1.309,IMU1,2.378048780487805,-2.3170731707317076,-118.47560975609757,-0.0869140625,0.0107421875,-0.001953125
338,1.319,IMU0,3.4756097560975614,-3.536585365853659,-115.2439024390244,-0.052734375,0.009765625,0.0078125
339,1.319,IMU1,3.231707317073171,-2.804878048780488,-112.6829268292683,-0.0654296875,0.0224609375,0.0009765625
340,1.329,IMU0,1.9512195121951221,-2.073170731707317,-115.67073170731709,-0.0322265625,-0.009765625,0.0107421875
341,1.329,IMU1,5.0,-1.7682926829268295,-120.79268292682927,-0.0595703125,-0.021484375,0.0009765625
342,1.339,IMU0,2.3170731707317076,-3.8414634146341466,-109.08536585365854,0.0185546875,-0.0166015625,0.021484375
343,1.339,IMU1,2.5,-3.353658536585366,-111.15853658536587,0.013671875,-0.0146484375,0.01171875
344,1.349,IMU0,2.6219512195121952,-3.7195121951219514,-117.37804878048782,0.02734375,-0.03515625,0.017578125
345,1.349,IMU1,3.5975609756097566,-3.048780487804878,-116.89024390243904,0.0146484375,-0.02734375,0.01171875
346,1.359,IMU0,0.5487804878048781,-3.048780487804878,-110.85365853658537,0.0341796875,0.013671875,0.0244140625
347,1.359,IMU1,2.8658536585365857,-2.7439024390243905,-115.48780487804879,0.00390625,0.0126953125,0.017578125
348,1.369,IMU0,1.2195121951219514,-3.780487804878049,-112.8048780487805,0.0458984375,0.0205078125,0.0322265625
349,1.369,IMU1,2.682926829268293,-3.231707317073171,-114.57317073170732,0.01171875,0.0244140625,0.0263671875
350,1.379,IMU0,4.2682926829268295,-4.695121951219512,-111.52439024390245,0.0234375,0.025390625,0.0263671875
351,1.379,IMU1,4.51219512195122,-3.7195121951219514,-110.85365853658537,-0.0078125,0.0390625,0.0224609375
352,1.389,IMU0,2.0121951219512195,-2.378048780487805,-112.98780487804879,0.0185546875,0.0107421875,0.029296875
353,1.389,IMU1,5.3048780487804885,-2.1341463414634148,-115.97560975609757,0.0048828125,0.001953125,0.0224609375
354,1.399,IMU0,0.3658536585365854,-4.634146341463415,-107.19512195121952,0.033203125,0.01171875,0.037109375
355,1.399,IMU1,1.0365853658536586,-3.963414634146342,-110.48780487804879,0.0087890625,0.0078125,0.0302734375
356,1.409,IMU0,2.804878048780488,-2.804878048780488,-113.47560975609757,-0.001953125,0.0078125,0.029296875
357,1.409,IMU1,3.5975609756097566,-1.9512195121951221,-111.95121951219514,-0.005859375,0.017578125,0.0244140625
358,1.419,IMU0,0.30487804878048785,-1.9512195121951221,-106.95121951219514,0.021484375,0.009765625,0.0390625
359,1.419,IMU1,2.6219512195121952,-1.3414634146341464,-112.8658536585366,0.0107421875,-0.0078125,0.0302734375
360,1.429,IMU0,0.7926829268292683,-2.1341463414634148,-105.79268292682927,0.0458984375,0.0009765625,0.04296875
361,1.429,IMU1,1.9512195121951221,-1.7682926829268295,-106.95121951219514,0.0263671875,-0.00390625,0.0361328125
362,1.439,IMU0,0.426829268292683,-3.536585365853659,-106.89024390243904,0.02734375,0.029296875,0.029296875
363,1.439,IMU1,1.1585365853658538,-2.5609756097560976,-107.37804878048782,0.0185546875,0.0244140625,0.0244140625
364,1.449,IMU0,0.24390243902439027,-1.4634146341463417,-106.28048780487806,0.0380859375,0.0419921875,0.03125
365,1.449,IMU1,2.8658536585365857,-1.402439024390244,-109.26829268292684,0.0244140625,0.0302734375,0.0234375
366,1.459,IMU0,0.6707317073170732,-2.9268292682926833,-103.35365853658537,0.0634765625,0.0341796875,0.0341796875
367,1.459,IMU1,2.0121951219512195,-1.8902439024390245,-106.70731707317074,0.041015625,0.0263671875,0.0283203125
368,1.469,IMU0,2.25609756097561,-3.1707317073170733,-104.45121951219514,0.025390625,0.0009765625,0.02734375
369,1.469,IMU1,2.1341463414634148,-2.804878048780488,-101.95121951219512,0.01953125,0.0107421875,0.0224609375
370,1.479,IMU0,-0.853658536585366,-2.7439024390243905,-108.23170731707317,0.0048828125,-0.009765625,0.02734375
371,1.479,IMU1,1.9512195121951221,-2.1951219512195124,-112.92682926829269,0.0009765625,-0.025390625,0.01953125
372,1.489,IMU0,-1.2195121951219514,-1.7682926829268295,-102.8658536585366,0.0400390625,0.0224609375,0.0244140625
373,1.489,IMU1,-0.1829268292682927,-0.9146341463414634,-104.63414634146342,0.029296875,0.0205078125,0.017578125
374,1.499,IMU0,0.12195121951219513,-3.231707317073171,-106.28048780487806,0.017578125,0.0478515625,0.0263671875
375,1.499,IMU1,0.9756097560975611,-2.5,-106.52439024390245,0.0009765625,0.04296875,0.0205078125
376,1.509,IMU0,1.3414634146341464,-2.987804878048781,-105.85365853658537,0.0244140625,0.0283203125,0.0224609375
377,1.509,IMU1,3.658536585365854,-2.6219512195121952,-108.78048780487806,-0.0068359375,0.0205078125,0.0185546875
378,1.519,IMU0,-0.48780487804878053,-3.048780487804878,-102.92682926829269,0.0419921875,0.0087890625,0.0224609375
379,1.519,IMU1,1.524390243902439,-2.1341463414634148,-105.3658536585366,0.0146484375,0.0009765625,0.017578125
380,1.529,IMU0,-2.9268292682926833,-2.3170731707317076,-103.41463414634147,0.033203125,0.009765625,0.0205078125
381,1.529,IMU1,-1.707317073170732,-1.829268292682927,-105.48780487804879,0.0068359375,0.0078125,0.0166015625
382,1.539,IMU0,0.48780487804878053,-2.5,-106.82926829268294,0.0380859375,0.017578125,0.005859375
383,1.539,IMU1,1.4634146341463417,-1.9512195121951221,-106.76829268292684,0.0146484375,0.0185546875,0.0029296875
384,1.549,IMU0,-0.9146341463414634,-3.1097560975609757,-106.15853658536587,0.0556640625,0.01953125,-0.0029296875
385,1.549,IMU1,1.7682926829268295,-2.6219512195121952,-111.03658536585367,0.0234375,0.005859375,-0.0078125
386,1.559,IMU0,-1.2195121951219514,-3.7195121951219514,-101.82926829268294,0.033203125,0.0146484375,-0.0078125
387,1.559,IMU1,0.0,-2.987804878048781,-103.65853658536587,0.0009765625,0.0126953125,-0.01171875
388,1.569,IMU0,-1.1585365853658538,-1.9512195121951221,-103.90243902439025,0.02734375,0.001953125,0.005859375
389,1.569,IMU1,-0.30487804878048785,-1.2195121951219514,-104.20731707317074,-0.0009765625,0.0029296875,0.0029296875
390,1.579,IMU0,-0.426829268292683,-3.658536585365854,-108.23170731707317,0.0263671875,0.00390625,0.015625
391,1.579,IMU1,1.5853658536585367,-3.1707317073170733,-111.09756097560977,0.001953125,-0.001953125,0.0126953125
392,1.589,IMU0,-1.829268292682927,-1.829268292682927,-103.23170731707317,0.0224609375,0.0556640625,0.0244140625
393,1.589,IMU1,0.3658536585365854,-1.402439024390244,-106.40243902439025,0.001953125,0.0615234375,0.017578125
394,1.599,IMU0,-0.853658536585366,-2.8658536585365857,-102.98780487804879,0.03515625,0.0634765625,0.0361328125
395,1.599,IMU1,0.426829268292683,-2.1951219512195124,-105.2439024390244,0.017578125,0.06640625,0.0302734375
396,1.609,IMU0,0.426829268292683,-2.682926829268293,-100.60975609756099,0.052734375,0.048828125,0.033203125
397,1.609,IMU1,1.2195121951219514,-1.9512195121951221,-100.79268292682927,0.0361328125,0.0556640625,0.0283203125
398,1.619,IMU0,2.1341463414634148,-3.1097560975609757,-105.91463414634147,0.0390625,0.0009765625,0.0263671875
399,1.619,IMU1,4.085365853658537,-2.6219512195121952,-108.35365853658537,0.021484375,0.00390625,0.0205078125
400,1.629,IMU0,2.1341463414634148,-3.1097560975609757,-105.91463414634147,0.0390625,0.0009765625,0.0263671875
401,1.629,IMU1,1.2195121951219514,-2.8658536585365857,-107.50000000000001,0.0126953125,0.009765625,0.0205078125
402,1.639,IMU0,-2.9268292682926833,-2.682926829268293,-98.29268292682927,0.02734375,0.0498046875,0.0166015625
403,1.639,IMU1,-1.9512195121951221,-2.1341463414634148,-99.75609756097562,-0.0068359375,0.0517578125,0.01171875
404,1.649,IMU0,1.524390243902439,-2.6219512195121952,-103.71951219512196,0.0185546875,0.0341796875,0.0146484375
405,1.649,IMU1,2.1951219512195124,-2.0121951219512195,-103.59756097560977,-0.0009765625,0.03125,0.009765625
406,1.659,IMU0,0.7926829268292683,-2.3170731707317076,-103.59756097560977,0.0205078125,0.009765625,0.0107421875
407,1.659,IMU1,2.8658536585365857,-1.7682926829268295,-106.34146341463416,0.0009765625,0.0029296875,0.005859375
408,1.669,IMU0,-0.6097560975609757,-2.439024390243903,-101.64634146341464,0.0263671875,-0.001953125,0.0126953125
409,1.669,IMU1,1.402439024390244,-2.073170731707317,-104.14634146341464,0.001953125,-0.00390625,0.0068359375
410,1.679,IMU0,-2.5609756097560976,-2.0121951219512195,-99.93902439024392,0.0419921875,0.03125,0.017578125
411,1.679,IMU1,-1.1585365853658538,-1.4634146341463417,-102.19512195121952,0.013671875,0.0302734375,0.01171875
412,1.689,IMU0,-1.3414634146341464,-3.414634146341464,-99.57317073170732,0.0224609375,0.0283203125,0.0126953125
413,1.689,IMU1,-0.3658536585365854,-2.7439024390243905,-100.3658536585366,0.0029296875,0.03515625,0.005859375
414,1.699,IMU0,-0.12195121951219513,-1.2804878048780488,-104.26829268292684,0.03515625,0.0048828125,0.015625
415,1.699,IMU1,1.524390243902439,-0.5487804878048781,-105.67073170731709,0.013671875,0.0126953125,0.0087890625
416,1.709,IMU0,-2.6219512195121952,-1.7682926829268295,-103.35365853658537,0.0498046875,0.0166015625,0.01953125
417,1.709,IMU1,-0.30487804878048785,-1.2195121951219514,-107.56097560975611,0.02734375,0.009765625,0.0126953125
418,1.719,IMU0,-2.439024390243903,-3.2926829268292686,-96.09756097560977,0.0205078125,0.0166015625,0.021484375
419,1.719,IMU1,-1.4634146341463417,-2.5609756097560976,-96.95121951219512,-0.01171875,0.0205078125,0.0166015625
420,1.729,IMU0,-3.536585365853659,-1.8902439024390245,-99.93902439024392,-0.044921875,0.0078125,0.021484375
421,1.729,IMU1,-2.0121951219512195,-1.0975609756097562,-101.58536585365854,-0.06640625,0.005859375,0.015625
422,1.739,IMU0,-1.5853658536585367,-3.4756097560975614,-99.57317073170732,-0.0546875,0.0146484375,0.02734375
423,1.739,IMU1,-0.12195121951219513,-2.804878048780488,-100.67073170731709,-0.072265625,0.02734375,0.021484375
424,1.749,IMU0,-1.3414634146341464,-1.2804878048780488,-100.60975609756099,-0.1083984375,0.0126953125,0.021484375
425,1.749,IMU1,1.1585365853658538,-0.9146341463414634,-103.41463414634147,-0.1279296875,0.0185546875,0.0224609375
426,1.759,IMU0,-3.048780487804878,-1.5853658536585367,-96.89024390243904,-0.111328125,0.0068359375,0.0234375
427,1.759,IMU1,-1.402439024390244,-0.9756097560975611,-99.45121951219512,-0.1396484375,-0.0087890625,0.013671875
428,1.769,IMU0,-3.780487804878049,-2.378048780487805,-93.29268292682927,-0.109375,0.0126953125,0.0234375
429,1.769,IMU1,-3.048780487804878,-1.9512195121951221,-93.96341463414635,-0.13671875,0.0,0.0126953125
430,1.779,IMU0,0.48780487804878053,-3.4756097560975614,-100.48780487804879,-0.19140625,0.0068359375,0.0126953125
431,1.779,IMU1,2.1341463414634148,-2.8658536585365857,-102.6829268292683,-0.189453125,0.0283203125,0.009765625
432,1.789,IMU0,-1.402439024390244,-1.7682926829268295,-95.3658536585366,-0.2021484375,0.0283203125,0.0263671875
433,1.789,IMU1,1.707317073170732,-1.707317073170732,-99.32926829268294,-0.2099609375,0.005859375,0.0185546875
434,1.799,IMU0,-1.4634146341463417,-2.5,-93.71951219512196,-0.208984375,-0.0107421875,0.0166015625
435,1.799,IMU1,1.2804878048780488,-2.3170731707317076,-97.01219512195122,-0.21484375,-0.0234375,0.0078125
436,1.809,IMU0,-3.2926829268292686,-1.2195121951219514,-92.50000000000001,-0.2236328125,-0.0078125,0.017578125
437,1.809,IMU1,0.0,-1.0975609756097562,-98.96341463414635,-0.2392578125,-0.01171875,0.009765625
438,1.819,IMU0,-0.30487804878048785,-2.6219512195121952,-93.59756097560977,-0.197265625,0.03515625,0.0185546875
439,1.819,IMU1,-1.3414634146341464,-1.0975609756097562,-92.92682926829269,-0.21875,0.0390625,0.0107421875
440,1.829,IMU0,-0.12195121951219513,-2.804878048780488,-95.1829268292683,-0.2255859375,-0.001953125,0.015625
441,1.829,IMU1,-0.5487804878048781,-2.25609756097561,-89.93902439024392,-0.2509765625,0.005859375,0.0107421875
442,1.839,IMU0,-1.7682926829268295,-1.829268292682927,-90.2439024390244,-0.234375,-0.01953125,0.0185546875
443,1.839,IMU1,3.4756097560975614,-0.6707317073170732,-97.98780487804879,-0.265625,-0.0224609375,0.013671875
444,1.849,IMU0,-2.378048780487805,-2.1341463414634148,-90.1829268292683,-0.25390625,0.0068359375,0.0205078125
445,1.849,IMU1,-0.6707317073170732,-1.524390243902439,-92.6829268292683,-0.2734375,0.005859375,0.0146484375
446,1.859,IMU0,-1.5853658536585367,-2.073170731707317,-86.64634146341464,-0.2763671875,0.015625,0.021484375
447,1.859,IMU1,-0.30487804878048785,-1.4634146341463417,-87.92682926829269,-0.302734375,0.015625,0.0166015625
448,1.869,IMU0,-1.8902439024390245,-0.853658536585366,-87.6219512195122,-0.2607421875,0.0234375,0.0205078125
449,1.869,IMU1,-0.48780487804878053,-0.30487804878048785,-89.63414634146342,-0.2919921875,0.017578125,0.0146484375
450,1.879,IMU0,0.0,-1.707317073170732,-89.14634146341464,-0.25,0.0380859375,0.0185546875
451,1.879,IMU1,1.524390243902439,-1.1585365853658538,-91.52439024390245,-0.2734375,0.0302734375,0.01171875
452,1.889,IMU0,-0.7317073170731708,-0.7317073170731708,-89.63414634146342,-0.255859375,0.0283203125,0.01171875
453,1.889,IMU1,1.0365853658536586,-0.12195121951219513,-92.31707317073172,-0.27734375,0.0263671875,0.0068359375
454,1.899,IMU0,-2.1341463414634148,-1.4634146341463417,-87.25609756097562,-0.2265625,0.044921875,0.021484375
455,1.899,IMU1,-0.9146341463414634,-0.853658536585366,-88.84146341463415,-0.24609375,0.037109375,0.013671875
456,1.909,IMU0,-1.7682926829268295,-1.8902439024390245,-82.8048780487805,-0.2177734375,0.025390625,0.0185546875
457,1.909,IMU1,-0.6707317073170732,-1.2195121951219514,-84.26829268292684,-0.2412109375,0.0322265625,0.01171875
458,1.919,IMU0,2.1341463414634148,-1.524390243902439,-90.79268292682927,-0.203125,-0.013671875,0.0029296875
459,1.919,IMU1,3.8414634146341466,-0.9146341463414634,-93.96341463414635,-0.224609375,-0.0068359375,-0.00390625
460,1.929,IMU0,-2.0121951219512195,-1.3414634146341464,-86.21951219512196,-0.1728515625,0.0048828125,0.005859375
461,1.929,IMU1,-0.3658536585365854,-0.7926829268292683,-88.04878048780489,-0.2021484375,0.01171875,0.0
462,1.939,IMU0,-2.1341463414634148,-0.7317073170731708,-83.04878048780489,-0.1484375,0.02734375,0.009765625
463,1.939,IMU1,-0.7317073170731708,-0.12195121951219513,-84.75609756097562,-0.169921875,0.0263671875,0.00390625
464,1.949,IMU0,-2.5609756097560976,-1.8902439024390245,-84.51219512195122,-0.1220703125,0.0478515625,0.0087890625
465,1.949,IMU1,-1.2195121951219514,-1.3414634146341464,-86.21951219512196,-0.13671875,0.0400390625,0.0009765625
466,1.959,IMU0,0.12195121951219513,-1.7682926829268295,-84.08536585365854,-0.076171875,0.048828125,0.0078125
467,1.959,IMU1,1.8902439024390245,-1.2195121951219514,-86.28048780487805,-0.0830078125,0.037109375,-0.001953125
468,1.969,IMU0,0.30487804878048785,-1.5853658536585367,-86.34146341463415,-0.033203125,0.0185546875,0.0078125
469,1.969,IMU1,1.8902439024390245,-1.0365853658536586,-89.45121951219512,-0.056640625,0.0087890625,0.0029296875
470,1.979,IMU0,-3.048780487804878,-1.2195121951219514,-85.67073170731707,0.01953125,0.021484375,0.0166015625
471,1.979,IMU1,-1.5853658536585367,-0.9146341463414634,-87.37804878048782,-0.0234375,0.01953125,0.013671875
472,1.989,IMU0,-2.7439024390243905,-2.7439024390243905,-77.7439024390244,0.0478515625,0.0341796875,0.02734375
473,1.989,IMU1,-1.5853658536585367,-2.1341463414634148,-78.41463414634147,0.021484375,0.0244140625,0.0224609375
474,1.999,IMU0,1.707317073170732,-4.51219512195122,-85.1829268292683,0.0078125,-0.017578125,0.0234375
475,1.999,IMU1,3.2926829268292686,-4.024390243902439,-88.29268292682927,-0.01953125,-0.0302734375,0.017578125
476,2.009,IMU0,-0.6707317073170732,-3.353658536585366,-86.28048780487805,-0.013671875,-0.0322265625,0.015625
477,2.009,IMU1,0.6097560975609757,-2.804878048780488,-88.10975609756099,-0.044921875,-0.033203125,0.0107421875
478,2.019,IMU0,-0.6097560975609757,-2.682926829268293,-82.37804878048782,0.0087890625,-0.02734375,0.0146484375
479,2.019,IMU1,0.853658536585366,-2.1341463414634148,-83.53658536585367,-0.0234375,-0.0166015625,0.0107421875
480,2.029,IMU0,-0.6707317073170732,-1.0975609756097562,-83.29268292682927,0.005859375,-0.021484375,0.017578125
481,2.029,IMU1,0.48780487804878053,-0.6097560975609757,-85.54878048780489,-0.0205078125,-0.015625,0.0126953125
482,2.039,IMU0,-0.24390243902439027,-2.25609756097561,-82.6829268292683,0.041015625,-0.0283203125,0.0234375
483,2.039,IMU1,1.6463414634146343,-1.829268292682927,-84.87804878048782,0.013671875,-0.0263671875,0.0185546875
484,2.049,IMU0,0.24390243902439027,-4.2682926829268295,-83.84146341463415,0.0263671875,-0.015625,0.0205078125
485,2.049,IMU1,1.707317073170732,-3.5975609756097566,-86.70731707317074,0.0048828125,-0.009765625,0.0146484375
486,2.059,IMU0,-1.829268292682927,-2.682926829268293,-85.3048780487805,0.0146484375,0.0234375,0.021484375
487,2.059,IMU1,-0.3658536585365854,-2.25609756097561,-87.50000000000001,-0.013671875,0.0244140625,0.017578125
488,2.069,IMU0,-2.073170731707317,-2.7439024390243905,-79.32926829268294,0.0390625,0.044921875,0.0205078125
489,2.069,IMU1,-0.9146341463414634,-2.1951219512195124,-79.69512195121952,0.0205078125,0.0546875,0.0146484375
490,2.079,IMU0,0.0,-2.6219512195121952,-79.69512195121952,0.0361328125,0.0009765625,0.0146484375
491,2.079,IMU1,2.25609756097561,-1.829268292682927,-83.41463414634147,0.0146484375,0.0068359375,0.0087890625
492,2.089,IMU0,1.402439024390244,-2.378048780487805,-83.53658536585367,0.041015625,-0.0439453125,0.0078125
493,2.089,IMU1,2.439024390243903,-1.6463414634146343,-86.40243902439025,0.0205078125,-0.0322265625,0.0009765625
494,2.099,IMU0,-2.1951219512195124,-3.231707317073171,-78.17073170731707,0.0654296875,-0.00390625,0.0087890625
495,2.099,IMU1,-1.0365853658536586,-2.5609756097560976,-78.78048780487805,0.052734375,0.0029296875,0.001953125
496,2.109,IMU0,-1.524390243902439,-2.25609756097561,-75.1829268292683,0.0361328125,0.0234375,0.001953125
497,2.109,IMU1,-0.24390243902439027,-1.6463414634146343,-76.64634146341464,0.029296875,0.0263671875,-0.005859375
498,2.119,IMU0,-0.426829268292683,-2.378048780487805,-76.64634146341464,0.03125,0.0400390625,0.009765625
499,2.119,IMU1,1.402439024390244,-2.0121951219512195,-79.57317073170732,0.0166015625,0.037109375,0.0009765625
500,2.129,IMU0,0.48780487804878053,-3.2926829268292686,-77.5609756097561,0.0087890625,0.044921875,0.015625
501,2.129,IMU1,2.073170731707317,-2.6219512195121952,-80.3658536585366,0.0068359375,0.0400390625,0.00390625
502,2.139,IMU0,1.0975609756097562,-1.7682926829268295,-77.31707317073172,0.0078125,0.0419921875,0.01953125
503,2.139,IMU1,2.5,-1.2195121951219514,-79.81707317073172,-0.0048828125,0.03125,0.0107421875
504,2.149,IMU0,-0.12195121951219513,-1.2195121951219514,-75.79268292682927,0.0283203125,0.048828125,0.0263671875
505,2.149,IMU1,0.9146341463414634,-0.7926829268292683,-76.46341463414635,0.0166015625,0.0458984375,0.0205078125
506,2.159,IMU0,-2.073170731707317,-1.2195121951219514,-70.97560975609757,0.05859375,0.037109375,0.02734375
507,2.159,IMU1,-0.48780487804878053,-0.6707317073170732,-72.13414634146342,0.0380859375,0.025390625,0.0224609375
508,2.169,IMU0,-0.24390243902439027,-2.1951219512195124,-75.3048780487805,0.0400390625,0.033203125,0.02734375
509,2.169,IMU1,1.4634146341463417,-1.4634146341463417,-79.32926829268294,0.017578125,0.01171875,0.01953125
510,2.179,IMU0,0.6097560975609757,-2.3170731707317076,-77.8658536585366,0.0625,0.0244140625,0.017578125
511,2.179,IMU1,1.7682926829268295,-1.829268292682927,-80.1219512195122,0.0439453125,0.015625,0.0126953125
512,2.189,IMU0,-0.6707317073170732,-2.0121951219512195,-74.75609756097562,0.0361328125,0.015625,0.0068359375
513,2.189,IMU1,0.24390243902439027,-1.4634146341463417,-74.87804878048782,0.0302734375,0.005859375,0.0009765625
514,2.199,IMU0,-2.5,-0.7317073170731708,-70.48780487804879,0.0322265625,0.0205078125,0.01171875
515,2.199,IMU1,-1.2195121951219514,-0.3658536585365854,-72.6219512195122,0.021484375,0.005859375,0.0068359375
516,2.209,IMU0,-1.4634146341463417,-1.2195121951219514,-74.20731707317074,0.05078125,0.0068359375,0.00390625
517,2.209,IMU1,0.5487804878048781,-0.6707317073170732,-76.76829268292684,0.037109375,-0.0078125,-0.0029296875
518,2.219,IMU0,-0.5487804878048781,-1.0365853658536586,-73.23170731707317,0.013671875,0.0234375,0.0107421875
519,2.219,IMU1,1.1585365853658538,-0.6097560975609757,-76.15853658536587,0.005859375,0.0107421875,0.0029296875
520,2.229,IMU0,0.6707317073170732,-1.1585365853658538,-76.21951219512196,0.05078125,-0.0126953125,0.0166015625
521,2.229,IMU1,1.4634146341463417,-0.48780487804878053,-79.26829268292684,0.015625,-0.009765625,0.0126953125
522,2.239,IMU0,-1.524390243902439,-0.30487804878048785,-73.23170731707317,0.0419921875,-0.0009765625,0.0166015625
523,2.239,IMU1,-0.6097560975609757,-0.06097560975609757,-73.47560975609757,0.0068359375,0.017578125,0.0146484375
524,2.249,IMU0,-2.0121951219512195,-0.48780487804878053,-69.45121951219512,0.0400390625,-0.00390625,0.017578125
525,2.249,IMU1,-0.3658536585365854,-0.06097560975609757,-70.91463414634147,0.0078125,-0.0009765625,0.0146484375
526,2.259,IMU0,0.30487804878048785,-0.6097560975609757,-71.34146341463415,0.0498046875,0.015625,0.0244140625
527,2.259,IMU1,2.804878048780488,-0.06097560975609757,-76.40243902439025,0.0224609375,0.0068359375,0.0185546875
528,2.269,IMU0,1.4634146341463417,-0.6097560975609757,-77.37804878048782,0.015625,-0.0126953125,0.017578125
529,2.269,IMU1,1.829268292682927,0.06097560975609757,-79.93902439024392,0.009765625,-0.0107421875,0.0107421875
530,2.279,IMU0,-0.7926829268292683,0.30487804878048785,-71.70731707317074,0.052734375,0.017578125,0.0244140625
531,2.279,IMU1,-0.06097560975609757,1.0975609756097562,-71.70731707317074,0.029296875,0.03125,0.0205078125
532,2.289,IMU0,-1.2195121951219514,-0.48780487804878053,-71.40243902439025,0.0625,0.0283203125,0.0283203125
533,2.289,IMU1,-0.06097560975609757,0.1829268292682927,-73.59756097560977,0.0283203125,0.03125,0.0244140625
534,2.299,IMU0,-1.7682926829268295,-0.1829268292682927,-70.60975609756098,0.0537109375,0.046875,0.0361328125
535,2.299,IMU1,-0.48780487804878053,-0.06097560975609757,-71.76829268292684,0.0244140625,0.0517578125,0.03125
536,2.309,IMU0,0.24390243902439027,-1.0365853658536586,-71.28048780487805,0.0380859375,0.0625,0.0361328125
537,2.309,IMU1,2.5609756097560976,-0.7317073170731708,-75.2439024390244,0.015625,0.046875,0.0302734375
538,2.319,IMU0,1.707317073170732,0.12195121951219513,-73.41463414634147,0.048828125,0.029296875,0.0341796875
539,2.319,IMU1,2.439024390243903,0.6097560975609757,-76.76829268292684,0.0361328125,0.025390625,0.029296875
540,2.329,IMU0,-1.524390243902439,-0.5487804878048781,-74.02439024390245,0.0234375,0.0234375,0.02734375
541,2.329,IMU1,-0.853658536585366,-0.426829268292683,-72.8048780487805,0.009765625,0.0380859375,0.025390625
542,2.339,IMU0,-3.048780487804878,0.853658536585366,-64.9390243902439,0.048828125,0.0400390625,0.02734375
543,2.339,IMU1,-0.853658536585366,1.3414634146341464,-66.40243902439025,0.0048828125,0.0400390625,0.0244140625
544,2.349,IMU0,0.12195121951219513,0.12195121951219513,-72.31707317073172,0.0615234375,0.02734375,0.0283203125
545,2.349,IMU1,2.682926829268293,0.6097560975609757,-77.92682926829269,0.0185546875,0.0126953125,0.0234375
546,2.359,IMU0,0.9146341463414634,0.06097560975609757,-72.92682926829269,0.0556640625,0.021484375,0.015625
547,2.359,IMU1,2.1341463414634148,0.6707317073170732,-74.75609756097562,0.0126953125,0.0361328125,0.0107421875
548,2.369,IMU0,0.5487804878048781,-0.3658536585365854,-69.75609756097562,0.0732421875,0.01171875,0.0146484375
549,2.369,IMU1,1.6463414634146343,0.7926829268292683,-71.40243902439025,0.0439453125,0.021484375,0.0107421875
550,2.379,IMU0,-0.12195121951219513,-0.3658536585365854,-70.48780487804879,0.05859375,0.001953125,0.0068359375
551,2.379,IMU1,0.6707317073170732,0.3658536585365854,-71.34146341463415,0.0341796875,0.0107421875,0.00390625
552,2.389,IMU0,-1.2195121951219514,-0.12195121951219513,-69.14634146341464,0.02734375,-0.0029296875,0.001953125
553,2.389,IMU1,0.30487804878048785,0.24390243902439027,-70.60975609756098,0.009765625,-0.00390625,-0.00390625
554,2.399,IMU0,-0.12195121951219513,0.3658536585365854,-68.10975609756098,0.0478515625,0.0029296875,0.0029296875
555,2.399,IMU1,2.7439024390243905,1.2195121951219514,-73.17073170731707,0.0205078125,-0.00390625,-0.00390625
556,2.409,IMU0,0.9756097560975611,0.30487804878048785,-75.73170731707317,0.0380859375,0.0087890625,-0.0029296875
557,2.409,IMU1,1.2195121951219514,0.5487804878048781,-79.08536585365854,0.013671875,-0.0009765625,-0.009765625
558,2.419,IMU0,-2.5609756097560976,1.1585365853658538,-70.48780487804879,0.0302734375,0.03515625,0.0107421875
559,2.419,IMU1,-2.1341463414634148,1.4634146341463417,-67.98780487804879,-0.0009765625,0.044921875,0.0078125
560,2.429,IMU0,-2.0121951219512195,1.5853658536585367,-66.09756097560977,0.0517578125,0.03515625,0.0234375
561,2.429,IMU1,0.24390243902439027,2.073170731707317,-69.39024390243902,0.0205078125,0.033203125,0.0185546875
562,2.439,IMU0,-0.48780487804878053,0.6707317073170732,-68.53658536585367,0.0390625,0.0263671875,0.02734375
563,2.439,IMU1,1.7682926829268295,1.0975609756097562,-72.6829268292683,0.0146484375,0.03515625,0.021484375
564,2.449,IMU0,0.1829268292682927,-0.06097560975609757,-70.2439024390244,0.0361328125,0.013671875,0.021484375
565,2.449,IMU1,2.439024390243903,0.3658536585365854,-72.92682926829269,0.0166015625,0.01953125,0.0166015625
566,2.459,IMU0,0.7317073170731708,0.3658536585365854,-70.0609756097561,0.0283203125,0.013671875,0.017578125
567,2.459,IMU1,1.524390243902439,1.3414634146341464,-71.70731707317074,0.015625,0.0068359375,0.0126953125
568,2.469,IMU0,-0.853658536585366,1.1585365853658538,-70.48780487804879,0.0234375,0.0078125,0.0224609375
569,2.469,IMU1,0.426829268292683,1.3414634146341464,-71.28048780487805,0.01953125,-0.0078125,0.0146484375
570,2.479,IMU0,-1.2804878048780488,1.2195121951219514,-66.28048780487805,0.0517578125,0.017578125,0.029296875
571,2.479,IMU1,0.24390243902439027,1.6463414634146343,-65.91463414634147,0.0341796875,-0.0166015625,0.021484375
572,2.489,IMU0,-1.0365853658536586,0.30487804878048785,-66.82926829268293,0.0498046875,0.033203125,0.0419921875
573,2.489,IMU1,-2.439024390243903,0.7317073170731708,-65.0,0.04296875,0.037109375,0.0361328125
574,2.499,IMU0,1.707317073170732,0.9756097560975611,-71.82926829268294,0.0234375,0.0419921875,0.037109375
575,2.499,IMU1,1.6463414634146343,1.0365853658536586,-69.87804878048782,0.005859375,0.04296875,0.03515625
576,2.509,IMU0,1.0365853658536586,0.7926829268292683,-65.1219512195122,0.044921875,0.0537109375,0.0341796875
577,2.509,IMU1,4.085365853658537,1.524390243902439,-69.45121951219512,0.0283203125,0.052734375,0.0263671875
578,2.519,IMU0,0.0,0.6707317073170732,-59.39024390243903,0.060546875,0.0166015625,0.0361328125
579,2.519,IMU1,2.073170731707317,0.5487804878048781,-63.84146341463415,0.025390625,0.009765625,0.0263671875
580,2.529,IMU0,0.1829268292682927,0.30487804878048785,-59.451219512195124,0.0205078125,-0.0087890625,0.0224609375
581,2.529,IMU1,-0.06097560975609757,2.073170731707317,-58.963414634146346,0.0107421875,0.0009765625,0.0166015625
582,2.539,IMU0,-0.9756097560975611,1.707317073170732,-57.07317073170732,0.0224609375,0.0,0.021484375
583,2.539,IMU1,1.2195121951219514,1.2804878048780488,-59.57317073170732,0.0107421875,-0.00390625,0.013671875
584,2.549,IMU0,-1.2195121951219514,0.9756097560975611,-52.6829268292683,0.0361328125,0.0107421875,0.021484375
585,2.549,IMU1,0.853658536585366,1.707317073170732,-56.15853658536586,0.005859375,0.009765625,0.0146484375
586,2.559,IMU0,0.6707317073170732,0.7926829268292683,-45.426829268292686,0.037109375,0.02734375,0.017578125
587,2.559,IMU1,-0.24390243902439027,1.6463414634146343,-44.69512195121952,0.017578125,0.0458984375,0.013671875
588,2.569,IMU0,-1.707317073170732,1.0365853658536586,-46.03658536585366,0.0185546875,0.0146484375,0.021484375
589,2.569,IMU1,1.4634146341463417,0.6707317073170732,-50.243902439024396,-0.0087890625,0.00390625,0.0146484375
590,2.579,IMU0,-0.30487804878048785,-0.24390243902439027,-38.35365853658537,0.0068359375,0.02734375,0.0185546875
591,2.579,IMU1,-0.12195121951219513,0.7926829268292683,-39.268292682926834,0.001953125,0.029296875,0.0107421875
592,2.589,IMU0,-0.3658536585365854,0.9146341463414634,-39.57317073170732,-0.0283203125,0.021484375,0.0244140625
593,2.589,IMU1,2.1341463414634148,1.0975609756097562,-41.951219512195124,-0.0400390625,0.0068359375,0.017578125
594,2.599,IMU0,-0.7926829268292683,1.0975609756097562,-31.158536585365855,0.0078125,0.0361328125,0.0341796875
595,2.599,IMU1,-0.7926829268292683,1.1585365853658538,-33.71951219512196,-0.0048828125,0.02734375,0.025390625
596,2.609,IMU0,-0.7317073170731708,0.06097560975609757,-36.524390243902445,0.00390625,0.01171875,0.0302734375
597,2.609,IMU1,2.25609756097561,0.1829268292682927,-40.426829268292686,-0.0146484375,0.0009765625,0.0244140625
598,2.619,IMU0,0.5487804878048781,0.7926829268292683,-31.58536585365854,0.0029296875,0.02734375,0.0341796875
599,2.619,IMU1,0.9146341463414634,1.7682926829268295,-30.426829268292686,-0.0078125,0.0400390625,0.02734375
600,2.629,IMU0,-0.12195121951219513,1.9512195121951221,-29.451219512195124,0.0234375,0.025390625,0.025390625
601,2.629,IMU1,1.7682926829268295,1.829268292682927,-34.63414634146342,0.0068359375,0.017578125,0.0205078125
602,2.639,IMU0,-0.06097560975609757,0.9146341463414634,-29.146341463414636,0.03125,0.0185546875,0.021484375
603,2.639,IMU1,0.06097560975609757,1.3414634146341464,-30.853658536585368,0.013671875,0.0126953125,0.0166015625
604,2.649,IMU0,-0.9756097560975611,0.7926829268292683,-27.621951219512198,0.0322265625,-0.00390625,0.0185546875
605,2.649,IMU1,1.7682926829268295,0.7317073170731708,-29.573170731707318,0.021484375,-0.0048828125,0.0087890625
606,2.659,IMU0,0.30487804878048785,0.06097560975609757,-24.573170731707318,0.037109375,0.0087890625,0.0087890625
607,2.659,IMU1,0.9146341463414634,0.6707317073170732,-25.121951219512198,0.0283203125,0.0126953125,0.001953125
608,2.669,IMU0,-1.2804878048780488,0.9146341463414634,-23.231707317073173,0.029296875,0.015625,0.0029296875
609,2.669,IMU1,-0.06097560975609757,1.8902439024390245,-27.073170731707318,0.009765625,0.015625,-0.005859375
610,2.679,IMU0,-0.06097560975609757,1.524390243902439,-23.29268292682927,0.0390625,0.00390625,-0.005859375
611,2.679,IMU1,2.25609756097561,1.9512195121951221,-23.902439024390247,0.0185546875,0.013671875,-0.013671875
612,2.689,IMU0,1.707317073170732,1.0975609756097562,-18.231707317073173,0.03125,0.0146484375,-0.0048828125
613,2.689,IMU1,0.9146341463414634,0.6707317073170732,-18.902439024390244,0.0185546875,0.021484375,-0.009765625
614,2.699,IMU0,-0.30487804878048785,0.853658536585366,-16.82926829268293,0.00390625,0.0107421875,-0.0048828125
615,2.699,IMU1,0.30487804878048785,0.6707317073170732,-22.012195121951223,-0.013671875,-0.01171875,-0.013671875
616,2.709,IMU0,-2.1341463414634148,0.6707317073170732,-19.939024390243905,0.009765625,-0.0263671875,-0.0068359375
617,2.709,IMU1,0.6097560975609757,0.7926829268292683,-23.10975609756098,-0.0009765625,-0.0302734375,-0.015625
618,2.719,IMU0,-0.7317073170731708,0.3658536585365854,-18.475609756097562,0.0146484375,0.001953125,-0.001953125
619,2.719,IMU1,0.7317073170731708,0.9756097560975611,-18.53658536585366,0.0087890625,0.017578125,-0.0107421875
620,2.729,IMU0,-0.06097560975609757,0.5487804878048781,-13.78048780487805,0.0078125,0.0341796875,0.0068359375
621,2.729,IMU1,0.6097560975609757,1.0365853658536586,-16.402439024390244,-0.0146484375,0.03515625,-0.0009765625
622,2.739,IMU0,-0.06097560975609757,1.3414634146341464,-15.182926829268293,0.02734375,0.0224609375,0.0107421875
623,2.739,IMU1,1.2195121951219514,2.0121951219512195,-18.53658536585366,0.0,0.01953125,0.0029296875
624,2.749,IMU0,0.30487804878048785,0.3658536585365854,-17.439024390243905,0.025390625,0.0078125,0.0068359375
625,2.749,IMU1,2.5,1.0365853658536586,-18.84146341463415,0.01171875,0.0087890625,0.0009765625
626,2.759,IMU0,1.0365853658536586,0.48780487804878053,-15.975609756097562,0.001953125,-0.0048828125,-0.0048828125
627,2.759,IMU1,1.9512195121951221,0.853658536585366,-15.54878048780488,-0.013671875,0.005859375,-0.0107421875
628,2.769,IMU0,-0.12195121951219513,0.24390243902439027,-12.74390243902439,0.005859375,-0.0048828125,-0.0166015625
629,2.769,IMU1,1.4634146341463417,0.853658536585366,-13.414634146341465,0.0,0.0,-0.0244140625
630,2.779,IMU0,-0.7317073170731708,0.24390243902439027,-10.792682926829269,-0.03515625,-0.005859375,-0.0302734375
631,2.779,IMU1,0.7926829268292683,0.426829268292683,-12.682926829268293,-0.0458984375,-0.001953125,-0.0390625
632,2.789,IMU0,-0.5487804878048781,0.24390243902439027,-9.573170731707318,-0.0732421875,-0.0029296875,-0.0390625
633,2.789,IMU1,1.8902439024390245,0.48780487804878053,-12.439024390243903,-0.0771484375,0.001953125,-0.048828125
634,2.799,IMU0,-0.5487804878048781,0.24390243902439027,-9.573170731707318,-0.0732421875,-0.0029296875,-0.0390625
635,2.799,IMU1,1.9512195121951221,0.6707317073170732,-11.707317073170733,-0.0927734375,0.013671875,-0.0390625
636,2.809,IMU0,0.9756097560975611,-0.30487804878048785,-5.731707317073171,-0.0966796875,0.0205078125,-0.021484375
637,2.809,IMU1,1.707317073170732,0.1829268292682927,-8.475609756097562,-0.0966796875,0.0146484375,-0.0283203125
638,2.819,IMU0,0.426829268292683,0.5487804878048781,-3.963414634146342,-0.0859375,0.0068359375,-0.009765625
639,2.819,IMU1,0.48780487804878053,0.9756097560975611,-6.585365853658537,-0.095703125,0.0078125,-0.013671875
640,2.829,IMU0,-0.12195121951219513,0.1829268292682927,-2.0121951219512195,-0.080078125,0.0,0.0009765625
641,2.829,IMU1,0.1829268292682927,0.24390243902439027,-5.0,-0.08984375,-0.0078125,-0.00390625
642,2.839,IMU0,-0.853658536585366,0.6097560975609757,-0.7317073170731708,-0.068359375,-0.0048828125,0.01171875
643,2.839,IMU1,-0.6097560975609757,0.30487804878048785,-4.207317073170732,-0.0810546875,-0.0166015625,0.0087890625
644,2.849,IMU0,-0.5487804878048781,0.24390243902439027,1.829268292682927,-0.05859375,-0.00390625,0.01953125
645,2.849,IMU1,-0.7317073170731708,-0.12195121951219513,-1.2195121951219514,-0.0732421875,-0.0166015625,0.017578125
646,2.859,IMU0,-0.3658536585365854,0.5487804878048781,5.3048780487804885,-0.0458984375,0.001953125,0.0224609375
647,2.859,IMU1,-0.426829268292683,0.426829268292683,2.073170731707317,-0.0673828125,0.0009765625,0.0205078125
648,2.869,IMU0,0.6707317073170732,0.06097560975609757,7.865853658536586,-0.0615234375,0.005859375,0.0205078125
649,2.869,IMU1,0.6097560975609757,0.24390243902439027,4.878048780487806,-0.083984375,0.0009765625,0.017578125
650,2.879,IMU0,0.30487804878048785,-0.3658536585365854,9.085365853658537,-0.0849609375,0.0078125,0.017578125
651,2.879,IMU1,0.853658536585366,-0.3658536585365854,6.2804878048780495,-0.107421875,0.005859375,0.0126953125
652,2.889,IMU0,0.0,0.30487804878048785,10.060975609756099,-0.0791015625,0.005859375,-0.0029296875
653,2.889,IMU1,0.7926829268292683,-0.12195121951219513,7.987804878048781,-0.103515625,0.0087890625,-0.0068359375
654,2.899,IMU0,0.24390243902439027,1.707317073170732,9.451219512195122,-0.0732421875,0.0078125,-0.0244140625
655,2.899,IMU1,1.8902439024390245,1.707317073170732,7.439024390243903,-0.095703125,0.0,-0.029296875
656,2.909,IMU0,0.426829268292683,0.853658536585366,8.658536585365855,-0.0625,0.0107421875,-0.0341796875
657,2.909,IMU1,2.378048780487805,1.524390243902439,7.195121951219513,-0.08203125,0.0029296875,-0.0458984375
658,2.919,IMU0,-0.3658536585365854,-0.5487804878048781,8.170731707317074,-0.0478515625,0.0205078125,-0.0380859375
659,2.919,IMU1,1.2804878048780488,0.3658536585365854,5.609756097560976,-0.0625,0.005859375,-0.05078125
660,2.929,IMU0,-0.9756097560975611,-0.6097560975609757,7.500000000000001,-0.0546875,0.01953125,-0.0478515625
661,2.929,IMU1,-1.3414634146341464,-0.6097560975609757,4.939024390243903,-0.068359375,0.001953125,-0.056640625
662,2.939,IMU0,-0.48780487804878053,0.12195121951219513,8.414634146341465,-0.041015625,0.0224609375,-0.06640625
663,2.939,IMU1,-0.30487804878048785,0.06097560975609757,5.853658536585367,-0.0478515625,0.01171875,-0.0703125
664,2.949,IMU0,0.06097560975609757,0.7317073170731708,8.414634146341465,-0.0341796875,0.01953125,-0.083984375
665,2.949,IMU1,1.2804878048780488,0.7926829268292683,6.036585365853659,-0.04296875,0.013671875,-0.087890625
666,2.959,IMU0,-0.48780487804878053,-0.5487804878048781,7.621951219512196,-0.044921875,0.0107421875,-0.0947265625
667,2.959,IMU1,1.5853658536585367,-0.1829268292682927,5.2439024390243905,-0.060546875,0.0068359375,-0.1025390625
668,2.969,IMU0,-0.6707317073170732,-0.1829268292682927,7.8048780487804885,-0.05078125,0.009765625,-0.0947265625
669,2.969,IMU1,0.6707317073170732,0.06097560975609757,5.121951219512195,-0.0693359375,0.0078125,-0.103515625
670,2.979,IMU0,-0.06097560975609757,-0.3658536585365854,7.743902439024391,-0.0654296875,0.0107421875,-0.09765625
671,2.979,IMU1,1.2195121951219514,0.06097560975609757,4.939024390243903,-0.083984375,0.009765625,-0.1044921875
672,2.989,IMU0,-0.48780487804878053,-0.12195121951219513,7.378048780487806,-0.0810546875,0.0048828125,-0.09375
673,2.989,IMU1,0.426829268292683,0.30487804878048785,5.121951219512195,-0.1015625,0.0048828125,-0.099609375
674,2.999,IMU0,-0.6707317073170732,-0.426829268292683,5.182926829268293,-0.0810546875,0.0,-0.09375
675,2.999,IMU1,0.30487804878048785,-0.12195121951219513,2.987804878048781,-0.1005859375,0.001953125,-0.0986328125
676,3.009,IMU0,-0.12195121951219513,-0.1829268292682927,5.914634146341464,-0.0908203125,-0.001953125,-0.1044921875
677,3.009,IMU1,1.4634146341463417,0.06097560975609757,3.231707317073171,-0.109375,-0.00390625,-0.1103515625
678,3.019,IMU0,-0.30487804878048785,0.24390243902439027,7.317073170731708,-0.0859375,0.0087890625,-0.0927734375
679,3.019,IMU1,0.6097560975609757,0.5487804878048781,4.878048780487806,-0.1064453125,0.00390625,-0.1025390625
680,3.029,IMU0,-0.12195121951219513,-0.30487804878048785,6.463414634146342,-0.0966796875,0.009765625,-0.0888671875
681,3.029,IMU1,0.6707317073170732,-0.06097560975609757,4.817073170731708,-0.1142578125,0.0078125,-0.095703125
682,3.039,IMU0,-1.2195121951219514,-1.0365853658536586,5.060975609756098,-0.115234375,0.0048828125,-0.0947265625
683,3.039,IMU1,0.06097560975609757,-0.5487804878048781,3.1097560975609757,-0.140625,0.001953125,-0.1005859375
684,3.049,IMU0,-0.06097560975609757,-1.829268292682927,6.829268292682928,-0.1318359375,0.0166015625,-0.109375
685,3.049,IMU1,0.6097560975609757,-1.6463414634146343,3.9024390243902443,-0.15625,0.0126953125,-0.1142578125
686,3.059,IMU0,0.9756097560975611,0.48780487804878053,7.500000000000001,-0.1533203125,0.0244140625,-0.1318359375
687,3.059,IMU1,1.829268292682927,0.30487804878048785,5.121951219512195,-0.17578125,0.02734375,-0.138671875
688,3.069,IMU0,0.06097560975609757,-1.707317073170732,5.426829268292684,-0.1826171875,0.0126953125,-0.162109375
689,3.069,IMU1,1.1585365853658538,-0.7317073170731708,3.414634146341464,-0.203125,0.0126953125,-0.169921875
690,3.079,IMU0,0.24390243902439027,-3.048780487804878,7.195121951219513,-0.2041015625,0.005859375,-0.189453125
691,3.079,IMU1,1.0975609756097562,-3.414634146341464,4.024390243902439,-0.2314453125,0.0009765625,-0.1943359375
692,3.089,IMU0,0.9756097560975611,0.9756097560975611,8.292682926829269,-0.236328125,0.0029296875,-0.216796875
693,3.089,IMU1,2.073170731707317,1.2804878048780488,7.01219512195122,-0.263671875,-0.0009765625,-0.22265625
694,3.099,IMU0,0.3658536585365854,-4.51219512195122,4.390243902439025,-0.2822265625,-0.013671875,-0.220703125
695,3.099,IMU1,1.1585365853658538,-3.7195121951219514,2.073170731707317,-0.3017578125,-0.0185546875,-0.228515625
696,3.109,IMU0,0.3658536585365854,-0.7317073170731708,8.353658536585366,-0.306640625,-0.017578125,-0.234375
697,3.109,IMU1,1.402439024390244,-1.2804878048780488,5.670731707317073,-0.3271484375,-0.0068359375,-0.244140625
698,3.119,IMU0,0.3658536585365854,-2.073170731707317,7.987804878048781,-0.3408203125,0.0029296875,-0.248046875
699,3.119,IMU1,2.3170731707317076,-0.9146341463414634,6.585365853658537,-0.357421875,-0.0078125,-0.251953125
700,3.129,IMU0,-1.0975609756097562,-2.378048780487805,13.78048780487805,-0.3837890625,0.0,-0.2314453125
701,3.129,IMU1,-0.853658536585366,-2.682926829268293,11.097560975609756,-0.400390625,-0.0009765625,-0.244140625
702,3.139,IMU0,-1.3414634146341464,-1.8902439024390245,13.963414634146343,-0.3974609375,0.021484375,-0.244140625
703,3.139,IMU1,0.3658536585365854,-0.9756097560975611,12.073170731707318,-0.4150390625,0.009765625,-0.24609375
704,3.149,IMU0,0.6707317073170732,-2.3170731707317076,18.475609756097562,-0.41015625,0.0244140625,-0.2666015625
705,3.149,IMU1,1.3414634146341464,-2.378048780487805,16.28048780487805,-0.423828125,0.029296875,-0.2763671875
706,3.159,IMU0,-2.0121951219512195,-2.073170731707317,17.378048780487806,-0.3994140625,0.0234375,-0.296875
707,3.159,IMU1,-1.2195121951219514,-1.2804878048780488,14.878048780487806,-0.41796875,0.0224609375,-0.3056640625
708,3.169,IMU0,-0.12195121951219513,-0.48780487804878053,19.512195121951223,-0.396484375,0.0302734375,-0.345703125
709,3.169,IMU1,1.1585365853658538,-0.6097560975609757,17.195121951219512,-0.4140625,0.025390625,-0.353515625
710,3.179,IMU0,-1.1585365853658538,-3.658536585365854,19.878048780487806,-0.40234375,0.013671875,-0.3818359375
711,3.179,IMU1,0.9146341463414634,-5.060975609756098,17.682926829268293,-0.419921875,0.0078125,-0.390625
712,3.189,IMU0,-0.06097560975609757,0.12195121951219513,20.853658536585368,-0.39453125,0.009765625,-0.4228515625
713,3.189,IMU1,-0.6707317073170732,-1.402439024390244,17.926829268292686,-0.4140625,0.0087890625,-0.4306640625
714,3.199,IMU0,1.6463414634146343,-3.7195121951219514,21.097560975609756,-0.3974609375,-0.0009765625,-0.4560546875
715,3.199,IMU1,2.682926829268293,-3.8414634146341466,18.963414634146343,-0.412109375,-0.0029296875,-0.4658203125
716,3.209,IMU0,0.24390243902439027,-5.426829268292684,20.243902439024392,-0.3828125,-0.0185546875,-0.484375
717,3.209,IMU1,1.524390243902439,-4.817073170731708,17.865853658536587,-0.4052734375,-0.0185546875,-0.4921875
718,3.219,IMU0,-2.0121951219512195,-0.5487804878048781,19.26829268292683,-0.3720703125,-0.025390625,-0.49609375
719,3.219,IMU1,-0.853658536585366,0.06097560975609757,16.82926829268293,-0.39453125,-0.025390625,-0.501953125
720,3.229,IMU0,-0.6097560975609757,-0.1829268292682927,18.902439024390244,-0.3623046875,-0.013671875,-0.5029296875
721,3.229,IMU1,0.12195121951219513,-0.426829268292683,16.463414634146343,-0.380859375,-0.01171875,-0.5107421875
722,3.239,IMU0,1.3414634146341464,-6.097560975609756,18.231707317073173,-0.361328125,-0.005859375,-0.517578125
723,3.239,IMU1,2.1341463414634148,-6.097560975609756,15.914634146341465,-0.37890625,-0.00390625,-0.525390625
724,3.249,IMU0,0.1829268292682927,-5.7926829268292686,16.646341463414636,-0.357421875,-0.00390625,-0.5322265625
725,3.249,IMU1,1.4634146341463417,-5.060975609756098,14.329268292682928,-0.376953125,0.0009765625,-0.5390625
726,3.259,IMU0,-0.7926829268292683,-0.6707317073170732,15.000000000000002,-0.3583984375,0.0009765625,-0.5283203125
727,3.259,IMU1,0.48780487804878053,-0.1829268292682927,12.926829268292684,-0.3798828125,0.0068359375,-0.5361328125
728,3.269,IMU0,0.9756097560975611,-1.402439024390244,15.609756097560977,-0.3515625,0.0078125,-0.51953125
729,3.269,IMU1,1.8902439024390245,-1.4634146341463417,13.414634146341465,-0.3740234375,0.0126953125,-0.5263671875
730,3.279,IMU0,1.0975609756097562,-5.426829268292684,15.79268292682927,-0.349609375,0.0029296875,-0.5078125
731,3.279,IMU1,2.3170731707317076,-5.426829268292684,13.231707317073171,-0.3681640625,0.00390625,-0.515625
732,3.289,IMU0,-0.24390243902439027,-5.2439024390243905,13.170731707317074,-0.337890625,-0.0048828125,-0.48828125
733,3.289,IMU1,1.1585365853658538,-4.75609756097561,10.792682926829269,-0.359375,-0.00390625,-0.49609375
734,3.299,IMU0,0.853658536585366,-3.1097560975609757,11.158536585365855,-0.3388671875,0.0029296875,-0.46875
735,3.299,IMU1,1.9512195121951221,-2.682926829268293,9.02439024390244,-0.3525390625,0.0048828125,-0.4755859375
736,3.309,IMU0,1.402439024390244,-3.963414634146342,10.670731707317074,-0.34375,0.015625,-0.4560546875
737,3.309,IMU1,2.804878048780488,-3.780487804878049,8.597560975609756,-0.361328125,0.0146484375,-0.462890625
738,3.319,IMU0,1.3414634146341464,-4.024390243902439,11.219512195121952,-0.3408203125,0.009765625,-0.435546875
739,3.319,IMU1,2.7439024390243905,-3.8414634146341466,8.719512195121952,-0.3681640625,0.0126953125,-0.4423828125
740,3.329,IMU0,0.06097560975609757,-1.0365853658536586,10.975609756097562,-0.3427734375,0.0107421875,-0.4013671875
741,3.329,IMU1,1.2195121951219514,-0.7926829268292683,8.719512195121952,-0.3681640625,0.0087890625,-0.4091796875
742,3.339,IMU0,0.6707317073170732,-1.707317073170732,8.963414634146343,-0.328125,0.01171875,-0.3701171875
743,3.339,IMU1,1.524390243902439,-1.6463414634146343,6.890243902439025,-0.341796875,0.0068359375,-0.3779296875
744,3.349,IMU0,0.7317073170731708,-5.548780487804878,7.01219512195122,-0.291015625,0.0078125,-0.3349609375
745,3.349,IMU1,2.0121951219512195,-5.365853658536586,4.75609756097561,-0.3056640625,0.00390625,-0.3427734375
746,3.359,IMU0,0.1829268292682927,-4.51219512195122,6.52439024390244,-0.259765625,0.0,-0.302734375
747,3.359,IMU1,1.4634146341463417,-4.085365853658537,4.146341463414634,-0.2763671875,-0.0029296875,-0.310546875
748,3.369,IMU0,0.7317073170731708,-3.963414634146342,4.2682926829268295,-0.2333984375,0.0029296875,-0.267578125
749,3.369,IMU1,1.829268292682927,-3.658536585365854,2.25609756097561,-0.2509765625,0.001953125,-0.2744140625
750,3.379,IMU0,1.5853658536585367,-6.097560975609756,3.048780487804878,-0.216796875,0.005859375,-0.234375
751,3.379,IMU1,3.1097560975609757,-5.7926829268292686,0.9146341463414634,-0.2333984375,0.0048828125,-0.2421875
752,3.389,IMU0,0.7317073170731708,-5.182926829268293,3.658536585365854,-0.216796875,0.0087890625,-0.2060546875
753,3.389,IMU1,2.5,-5.060975609756098,1.2195121951219514,-0.2451171875,0.0068359375,-0.2138671875
754,3.399,IMU0,0.7926829268292683,-1.524390243902439,4.51219512195122,-0.220703125,0.02734375,-0.1630859375
755,3.399,IMU1,2.378048780487805,-1.2804878048780488,2.25609756097561,-0.244140625,0.0244140625,-0.171875
756,3.409,IMU0,1.7682926829268295,-4.573170731707317,4.451219512195122,-0.2333984375,0.03515625,-0.1162109375
757,3.409,IMU1,2.804878048780488,-4.2682926829268295,2.378048780487805,-0.2568359375,0.0361328125,-0.1240234375
758,3.419,IMU0,1.829268292682927,-4.695121951219512,5.670731707317073,-0.251953125,0.0263671875,-0.0947265625
759,3.419,IMU1,3.536585365853659,-4.51219512195122,3.353658536585366,-0.2783203125,0.0244140625,-0.1025390625
760,3.429,IMU0,0.9756097560975611,0.426829268292683,7.987804878048781,-0.255859375,0.0107421875,-0.0546875
761,3.429,IMU1,2.987804878048781,0.3658536585365854,5.2439024390243905,-0.2890625,0.009765625,-0.0625
762,3.439,IMU0,0.06097560975609757,1.829268292682927,9.817073170731708,-0.25390625,0.0107421875,-0.0009765625
763,3.439,IMU1,1.4634146341463417,1.8902439024390245,7.317073170731708,-0.2861328125,0.0107421875,-0.0078125
764,3.449,IMU0,-0.3658536585365854,-3.7195121951219514,10.426829268292684,-0.2509765625,0.0185546875,0.0234375
765,3.449,IMU1,0.24390243902439027,-3.353658536585366,8.109756097560977,-0.267578125,0.021484375,0.017578125
766,3.459,IMU0,-0.48780487804878053,-7.439024390243903,10.670731707317074,-0.24609375,0.029296875,0.0283203125
767,3.459,IMU1,0.24390243902439027,-6.829268292682928,8.719512195121952,-0.25390625,0.0302734375,0.0224609375
768,3.469,IMU0,0.30487804878048785,-7.926829268292684,13.597560975609758,-0.2509765625,0.03515625,0.029296875
769,3.469,IMU1,1.0975609756097562,-7.439024390243903,12.01219512195122,-0.2607421875,0.0380859375,0.0234375
770,3.479,IMU0,-0.06097560975609757,-6.158536585365854,17.012195121951223,-0.263671875,0.060546875,0.0302734375
771,3.479,IMU1,1.0365853658536586,-5.7926829268292686,15.426829268292684,-0.2724609375,0.060546875,0.0224609375
772,3.489,IMU0,-0.3658536585365854,-5.853658536585367,19.207317073170735,-0.275390625,0.091796875,0.01953125
773,3.489,IMU1,0.7317073170731708,-5.487804878048781,17.012195121951223,-0.2880859375,0.09375,0.0107421875
774,3.499,IMU0,-1.0365853658536586,-3.1097560975609757,19.146341463414636,-0.283203125,0.099609375,0.0
775,3.499,IMU1,0.06097560975609757,-2.6219512195121952,17.134146341463417,-0.2978515625,0.09765625,-0.0087890625
776,3.509,IMU0,-0.48780487804878053,0.6097560975609757,20.0609756097561,-0.2841796875,0.103515625,-0.0302734375
777,3.509,IMU1,1.2804878048780488,0.853658536585366,18.10975609756098,-0.2978515625,0.1015625,-0.0400390625
778,3.519,IMU0,-0.24390243902439027,-1.0975609756097562,20.670731707317074,-0.283203125,0.1015625,-0.046875
779,3.519,IMU1,1.2804878048780488,-1.402439024390244,18.658536585365855,-0.2998046875,0.1015625,-0.0546875
780,3.529,IMU0,-0.9146341463414634,-7.134146341463415,22.31707317073171,-0.2978515625,0.109375,-0.02734375
781,3.529,IMU1,-0.426829268292683,-7.25609756097561,20.0,-0.3232421875,0.109375,-0.03515625
782,3.539,IMU0,0.5487804878048781,-4.75609756097561,25.0609756097561,-0.2958984375,0.126953125,-0.0185546875
783,3.539,IMU1,1.0975609756097562,-4.573170731707317,22.926829268292686,-0.318359375,0.12890625,-0.0283203125
784,3.549,IMU0,0.1829268292682927,-4.329268292682928,25.365853658536587,-0.302734375,0.0947265625,-0.0390625
785,3.549,IMU1,1.2804878048780488,-4.207317073170732,22.80487804878049,-0.3193359375,0.0947265625,-0.048828125
786,3.559,IMU0,1.1585365853658538,-4.024390243902439,26.219512195121954,-0.3037109375,0.060546875,-0.05078125
787,3.559,IMU1,2.1951219512195124,-4.146341463414634,24.02439024390244,-0.328125,0.0625,-0.05859375
788,3.569,IMU0,-0.12195121951219513,-6.646341463414635,30.30487804878049,-0.3193359375,0.0380859375,-0.046875
789,3.569,IMU1,0.1829268292682927,-6.402439024390245,27.80487804878049,-0.337890625,0.037109375,-0.0537109375
790,3.579,IMU0,0.9146341463414634,-2.5,29.695121951219516,-0.310546875,0.021484375,-0.0478515625
791,3.579,IMU1,2.5,-2.6219512195121952,27.439024390243905,-0.330078125,0.0234375,-0.0556640625
792,3.589,IMU0,-1.7682926829268295,-5.060975609756098,34.51219512195122,-0.3291015625,0.009765625,-0.0224609375
793,3.589,IMU1,-1.0365853658536586,-4.695121951219512,32.13414634146342,-0.34765625,0.0078125,-0.0283203125
794,3.599,IMU0,0.24390243902439027,-4.573170731707317,31.158536585365855,-0.3125,0.0244140625,-0.0283203125
795,3.599,IMU1,1.3414634146341464,-4.817073170731708,28.719512195121954,-0.3369140625,0.0224609375,-0.0361328125
796,3.609,IMU0,-0.06097560975609757,-3.048780487804878,36.890243902439025,-0.3076171875,0.0126953125,-0.009765625
797,3.609,IMU1,1.2195121951219514,-3.048780487804878,34.207317073170735,-0.3203125,0.0087890625,-0.01953125
798,3.619,IMU0,-1.7682926829268295,-3.1097560975609757,32.926829268292686,-0.3095703125,0.02734375,0.009765625
799,3.619,IMU1,-0.853658536585366,-2.8658536585365857,30.60975609756098,-0.3330078125,0.021484375,0.001953125
800,3.629,IMU0,-0.06097560975609757,-4.451219512195122,35.1219512195122,-0.306640625,0.037109375,0.0
801,3.629,IMU1,0.48780487804878053,-4.695121951219512,32.31707317073171,-0.326171875,0.037109375,-0.005859375
802,3.639,IMU0,0.12195121951219513,-2.8658536585365857,35.0609756097561,-0.302734375,0.046875,0.001953125
803,3.639,IMU1,1.0365853658536586,-2.7439024390243905,33.29268292682927,-0.322265625,0.046875,-0.005859375
804,3.649,IMU0,1.524390243902439,-4.085365853658537,37.07317073170732,-0.30078125,0.0517578125,-0.0009765625
805,3.649,IMU1,2.7439024390243905,-4.146341463414634,34.69512195121951,-0.3232421875,0.052734375,-0.0087890625
806,3.659,IMU0,0.5487804878048781,-3.780487804878049,34.93902439024391,-0.2998046875,0.056640625,0.013671875
807,3.659,IMU1,1.5853658536585367,-3.7195121951219514,32.6219512195122,-0.3212890625,0.0576171875,0.005859375
808,3.669,IMU0,-0.06097560975609757,-4.207317073170732,35.609756097560975,-0.296875,0.0634765625,0.015625
809,3.669,IMU1,1.1585365853658538,-4.329268292682928,32.926829268292686,-0.318359375,0.0625,0.0078125
810,3.679,IMU0,-1.2195121951219514,-3.536585365853659,34.08536585365854,-0.283203125,0.078125,0.0146484375
811,3.679,IMU1,-0.06097560975609757,-3.4756097560975614,31.76829268292683,-0.3046875,0.076171875,0.0068359375
812,3.689,IMU0,-1.707317073170732,-3.9024390243902443,32.86585365853659,-0.2666015625,0.0947265625,0.0048828125
813,3.689,IMU1,-0.853658536585366,-3.9024390243902443,30.30487804878049,-0.2880859375,0.091796875,-0.0029296875
814,3.699,IMU0,-1.7682926829268295,-2.5,31.707317073170735,-0.2412109375,0.1181640625,0.00390625
815,3.699,IMU1,-1.0365853658536586,-2.25609756097561,29.451219512195124,-0.26171875,0.115234375,-0.0048828125
816,3.709,IMU0,-0.853658536585366,-3.048780487804878,30.731707317073173,-0.2119140625,0.1416015625,0.0078125
817,3.709,IMU1,-0.3658536585365854,-2.9268292682926833,27.743902439024392,-0.2333984375,0.138671875,-0.0009765625
818,3.719,IMU0,-0.12195121951219513,-2.0121951219512195,29.939024390243905,-0.16015625,0.1640625,0.0166015625
819,3.719,IMU1,0.7317073170731708,-1.707317073170732,27.682926829268297,-0.1806640625,0.1640625,0.0068359375
820,3.729,IMU0,0.6097560975609757,-3.4756097560975614,29.02439024390244,-0.1015625,0.16796875,0.015625
821,3.729,IMU1,1.2195121951219514,-3.2926829268292686,25.975609756097562,-0.1240234375,0.1669921875,0.0087890625
822,3.739,IMU0,0.24390243902439027,-2.1951219512195124,27.743902439024392,-0.033203125,0.1630859375,0.013671875
823,3.739,IMU1,1.4634146341463417,-2.1951219512195124,25.121951219512198,-0.0546875,0.162109375,0.005859375
824,3.749,IMU0,0.5487804878048781,-2.378048780487805,27.439024390243905,0.0185546875,0.142578125,0.009765625
825,3.749,IMU1,1.4634146341463417,-2.378048780487805,24.75609756097561,-0.0029296875,0.1376953125,0.001953125
826,3.759,IMU0,0.426829268292683,-2.073170731707317,27.5609756097561,0.068359375,0.1220703125,0.0068359375
827,3.759,IMU1,1.402439024390244,-1.8902439024390245,25.48780487804878,0.048828125,0.119140625,0.0009765625
828,3.769,IMU0,0.5487804878048781,-2.073170731707317,27.012195121951223,0.0966796875,0.1015625,0.001953125
829,3.769,IMU1,1.2195121951219514,-1.8902439024390245,24.75609756097561,0.076171875,0.1005859375,-0.00390625
830,3.779,IMU0,0.7317073170731708,-2.378048780487805,27.80487804878049,0.1201171875,0.08984375,0.00390625
831,3.779,IMU1,1.524390243902439,-2.1341463414634148,25.365853658536587,0.099609375,0.0888671875,-0.0029296875
832,3.789,IMU0,0.0,-2.439024390243903,27.073170731707318,0.1328125,0.080078125,0.0048828125
833,3.789,IMU1,0.853658536585366,-2.25609756097561,24.573170731707318,0.11328125,0.0791015625,-0.001953125
834,3.799,IMU0,-0.48780487804878053,-2.804878048780488,27.073170731707318,0.13671875,0.0849609375,0.009765625
835,3.799,IMU1,0.48780487804878053,-2.6219512195121952,24.573170731707318,0.1162109375,0.0830078125,0.001953125
836,3.809,IMU0,-1.5853658536585367,-2.7439024390243905,26.951219512195124,0.134765625,0.08984375,0.015625
837,3.809,IMU1,-0.48780487804878053,-2.3170731707317076,24.512195121951223,0.115234375,0.087890625,0.0078125
838,3.819,IMU0,-1.7682926829268295,-2.7439024390243905,26.34146341463415,0.1259765625,0.0986328125,0.013671875
839,3.819,IMU1,-0.5487804878048781,-2.6219512195121952,23.78048780487805,0.1025390625,0.0947265625,0.0068359375
840,3.829,IMU0,-1.6463414634146343,-2.987804878048781,25.30487804878049,0.12109375,0.1123046875,0.0126953125
841,3.829,IMU1,-0.48780487804878053,-2.7439024390243905,22.926829268292686,0.099609375,0.111328125,0.0068359375
842,3.839,IMU0,-1.0975609756097562,-3.1707317073170733,24.75609756097561,0.11328125,0.1357421875,0.0078125
843,3.839,IMU1,0.12195121951219513,-2.7439024390243905,22.25609756097561,0.091796875,0.134765625,0.0009765625
844,3.849,IMU0,-1.2804878048780488,-3.1097560975609757,23.719512195121954,0.1123046875,0.1669921875,0.0078125
845,3.849,IMU1,-0.1829268292682927,-3.048780487804878,21.219512195121954,0.0888671875,0.1650390625,0.0009765625
846,3.859,IMU0,-1.5853658536585367,-2.073170731707317,23.231707317073173,0.1220703125,0.203125,0.015625
847,3.859,IMU1,-0.7317073170731708,-2.25609756097561,20.48780487804878,0.0986328125,0.2001953125,0.0078125
848,3.869,IMU0,-2.378048780487805,-2.1951219512195124,22.5609756097561,0.1435546875,0.240234375,0.01953125
849,3.869,IMU1,-1.0365853658536586,-2.25609756097561,20.121951219512198,0.1240234375,0.240234375,0.009765625
850,3.879,IMU0,-3.414634146341464,-2.5609756097560976,21.34146341463415,0.166015625,0.2763671875,0.001953125
851,3.879,IMU1,-2.1951219512195124,-2.439024390243903,19.02439024390244,0.1494140625,0.2783203125,-0.0078125
852,3.889,IMU0,-3.231707317073171,-2.1951219512195124,20.426829268292686,0.1728515625,0.3154296875,-0.0205078125
853,3.889,IMU1,-2.439024390243903,-2.1951219512195124,17.926829268292686,0.1572265625,0.318359375,-0.033203125
854,3.899,IMU0,-3.353658536585366,-1.7682926829268295,20.54878048780488,0.18359375,0.3515625,-0.0400390625
855,3.899,IMU1,-2.1341463414634148,-1.707317073170732,18.04878048780488,0.1630859375,0.3623046875,-0.052734375
856,3.909,IMU0,-3.2926829268292686,-2.3170731707317076,20.426829268292686,0.1923828125,0.3876953125,-0.05078125
857,3.909,IMU1,-2.0121951219512195,-2.1341463414634148,17.98780487804878,0.166015625,0.400390625,-0.0615234375
858,3.919,IMU0,-3.231707317073171,-1.7682926829268295,19.75609756097561,0.1884765625,0.4375,-0.0595703125
859,3.919,IMU1,-1.9512195121951221,-1.7682926829268295,17.195121951219512,0.166015625,0.4404296875,-0.0712890625
860,3.929,IMU0,-3.4756097560975614,-2.439024390243903,19.146341463414636,0.177734375,0.4697265625,-0.078125
861,3.929,IMU1,-1.9512195121951221,-1.8902439024390245,16.82926829268293,0.15625,0.4716796875,-0.08984375
862,3.939,IMU0,-3.536585365853659,-2.7439024390243905,18.475609756097562,0.15234375,0.49609375,-0.0849609375
863,3.939,IMU1,-2.5,-2.073170731707317,16.097560975609756,0.130859375,0.49609375,-0.0966796875
864,3.949,IMU0,-3.2926829268292686,-3.231707317073171,18.10975609756098,0.1162109375,0.515625,-0.091796875
865,3.949,IMU1,-2.5609756097560976,-2.8658536585365857,15.975609756097562,0.09375,0.5146484375,-0.1015625
866,3.959,IMU0,-3.048780487804878,-2.439024390243903,17.743902439024392,0.06640625,0.5126953125,-0.087890625
867,3.959,IMU1,-2.1951219512195124,-2.25609756097561,15.670731707317074,0.0439453125,0.513671875,-0.0966796875
868,3.969,IMU0,-2.8658536585365857,-3.048780487804878,17.5609756097561,0.0087890625,0.501953125,-0.078125
869,3.969,IMU1,-1.8902439024390245,-2.6219512195121952,15.426829268292684,-0.0126953125,0.5029296875,-0.08984375
870,3.979,IMU0,-2.6219512195121952,-3.536585365853659,17.5,-0.044921875,0.4755859375,-0.0673828125
871,3.979,IMU1,-1.829268292682927,-2.804878048780488,15.426829268292684,-0.0673828125,0.4775390625,-0.080078125
872,3.989,IMU0,-1.4634146341463417,-3.1097560975609757,17.804878048780488,-0.109375,0.4365234375,-0.06640625
873,3.989,IMU1,-0.9756097560975611,-2.9268292682926833,15.731707317073171,-0.1328125,0.435546875,-0.0771484375
874,3.999,IMU0,-1.402439024390244,-2.6219512195121952,17.31707317073171,-0.169921875,0.388671875,-0.072265625
875,3.999,IMU1,-0.1829268292682927,-2.6219512195121952,15.365853658536587,-0.1923828125,0.3896484375,-0.08203125
876,4.009,IMU0,-1.5853658536585367,-2.804878048780488,17.073170731707318,-0.234375,0.3369140625,-0.080078125
877,4.009,IMU1,-0.3658536585365854,-2.439024390243903,15.060975609756099,-0.251953125,0.3330078125,-0.091796875
878,4.019,IMU0,-1.7682926829268295,-3.048780487804878,16.82926829268293,-0.2783203125,0.2783203125,-0.0869140625
879,4.019,IMU1,-0.7926829268292683,-2.5,14.878048780487806,-0.302734375,0.279296875,-0.09765625
880,4.029,IMU0,-1.402439024390244,-2.378048780487805,16.890243902439025,-0.3154296875,0.220703125,-0.095703125
881,4.029,IMU1,-0.426829268292683,-1.9512195121951221,14.817073170731708,-0.341796875,0.22265625,-0.1044921875
882,4.039,IMU0,-0.3658536585365854,-2.5609756097560976,16.463414634146343,-0.365234375,0.1669921875,-0.0986328125
883,4.039,IMU1,0.426829268292683,-2.378048780487805,14.085365853658537,-0.390625,0.1630859375,-0.107421875
884,4.049,IMU0,0.0,-2.5,16.097560975609756,-0.4228515625,0.1181640625,-0.1025390625
885,4.049,IMU1,0.48780487804878053,-2.6219512195121952,13.536585365853659,-0.4453125,0.109375,-0.111328125
886,4.059,IMU0,0.12195121951219513,-2.6219512195121952,15.853658536585368,-0.474609375,0.072265625,-0.1015625
887,4.059,IMU1,0.853658536585366,-2.7439024390243905,13.109756097560977,-0.4990234375,0.05859375,-0.111328125
888,4.069,IMU0,-0.426829268292683,-2.378048780487805,15.79268292682927,-0.517578125,0.0341796875,-0.1025390625
889,4.069,IMU1,0.6707317073170732,-2.5609756097560976,13.231707317073171,-0.5400390625,0.0166015625,-0.1123046875
890,4.079,IMU0,-0.853658536585366,-2.0121951219512195,14.451219512195124,-0.5537109375,-0.005859375,-0.0986328125
891,4.079,IMU1,0.426829268292683,-1.9512195121951221,12.439024390243903,-0.576171875,-0.0224609375,-0.1083984375
892,4.089,IMU0,-1.0975609756097562,-2.3170731707317076,14.26829268292683,-0.5927734375,-0.0400390625,-0.099609375
893,4.089,IMU1,-0.12195121951219513,-1.8902439024390245,12.01219512195122,-0.6123046875,-0.0537109375,-0.1083984375
894,4.099,IMU0,-2.378048780487805,-1.829268292682927,13.353658536585368,-0.619140625,-0.0615234375,-0.0986328125
895,4.099,IMU1,-1.2195121951219514,-1.707317073170732,11.219512195121952,-0.63671875,-0.0712890625,-0.1083984375
896,4.109,IMU0,-2.682926829268293,-1.6463414634146343,12.378048780487806,-0.634765625,-0.078125,-0.1005859375
897,4.109,IMU1,-1.707317073170732,-1.6463414634146343,10.121951219512196,-0.658203125,-0.0791015625,-0.1064453125
898,4.119,IMU0,-3.1097560975609757,-1.1585365853658538,11.585365853658537,-0.642578125,-0.0869140625,-0.1015625
899,4.119,IMU1,-1.707317073170732,-1.0975609756097562,9.207317073170733,-0.666015625,-0.08203125,-0.1064453125
900,4.129,IMU0,-3.048780487804878,-1.524390243902439,10.670731707317074,-0.654296875,-0.0810546875,-0.091796875
901,4.129,IMU1,-1.8902439024390245,-0.9756097560975611,8.414634146341465,-0.67578125,-0.0732421875,-0.099609375
902,4.139,IMU0,-2.804878048780488,-0.9756097560975611,10.609756097560977,-0.662109375,-0.0478515625,-0.0771484375
903,4.139,IMU1,-1.8902439024390245,-0.853658536585366,7.865853658536586,-0.681640625,-0.046875,-0.0859375
904,4.149,IMU0,-2.8658536585365857,-0.426829268292683,9.939024390243903,-0.658203125,-0.013671875,-0.0654296875
905,4.149,IMU1,-1.707317073170732,-0.12195121951219513,7.317073170731708,-0.6787109375,-0.015625,-0.0751953125
906,4.159,IMU0,-2.9268292682926833,-0.30487804878048785,9.451219512195122,-0.640625,0.025390625,-0.0576171875
907,4.159,IMU1,-1.8902439024390245,0.0,6.951219512195123,-0.6630859375,0.0341796875,-0.0673828125
908,4.169,IMU0,-3.658536585365854,-1.524390243902439,8.658536585365855,-0.62890625,0.0830078125,-0.0498046875
909,4.169,IMU1,-2.5,-1.3414634146341464,6.097560975609756,-0.6474609375,0.0859375,-0.0615234375
910,4.179,IMU0,-3.536585365853659,-1.0365853658536586,7.439024390243903,-0.6162109375,0.150390625,-0.0439453125
911,4.179,IMU1,-2.5609756097560976,-0.9146341463414634,5.0,-0.6337890625,0.1533203125,-0.0546875
912,4.189,IMU0,-4.024390243902439,-0.426829268292683,6.707317073170732,-0.6044921875,0.2216796875,-0.0458984375
913,4.189,IMU1,-2.987804878048781,-0.1829268292682927,4.085365853658537,-0.623046875,0.2265625,-0.0576171875
914,4.199,IMU0,-5.0,-0.9756097560975611,6.463414634146342,-0.5927734375,0.3037109375,-0.048828125
915,4.199,IMU1,-3.780487804878049,-0.5487804878048781,3.5975609756097566,-0.6123046875,0.310546875,-0.0634765625
916,4.209,IMU0,-4.939024390243903,-0.9756097560975611,6.7682926829268295,-0.5693359375,0.3974609375,-0.0703125
917,4.209,IMU1,-3.963414634146342,-0.9146341463414634,4.329268292682928,-0.5830078125,0.4013671875,-0.0859375
918,4.219,IMU0,-4.329268292682928,-0.6707317073170732,6.463414634146342,-0.5458984375,0.470703125,-0.09375
919,4.219,IMU1,-3.048780487804878,-0.3658536585365854,4.2682926829268295,-0.556640625,0.4736328125,-0.109375
920,4.229,IMU0,-4.024390243902439,-1.4634146341463417,6.707317073170732,-0.52734375,0.52734375,-0.1171875
921,4.229,IMU1,-3.1097560975609757,-1.0365853658536586,4.085365853658537,-0.541015625,0.529296875,-0.1357421875
922,4.239,IMU0,-3.8414634146341466,-1.8902439024390245,7.195121951219513,-0.521484375,0.5771484375,-0.158203125
923,4.239,IMU1,-3.353658536585366,-1.8902439024390245,4.146341463414634,-0.5361328125,0.5849609375,-0.1767578125
924,4.249,IMU0,-3.2926829268292686,-1.5853658536585367,7.195121951219513,-0.5048828125,0.6220703125,-0.2041015625
925,4.249,IMU1,-2.378048780487805,-1.402439024390244,4.939024390243903,-0.5224609375,0.6328125,-0.220703125
926,4.259,IMU0,-3.1097560975609757,-1.402439024390244,7.743902439024391,-0.4892578125,0.662109375,-0.2568359375
927,4.259,IMU1,-1.829268292682927,-0.7926829268292683,5.060975609756098,-0.5009765625,0.6630859375,-0.2763671875
928,4.269,IMU0,-3.1097560975609757,-1.402439024390244,7.500000000000001,-0.4814453125,0.6708984375,-0.2880859375
929,4.269,IMU1,-2.073170731707317,-0.9756097560975611,5.121951219512195,-0.4990234375,0.677734375,-0.3076171875
930,4.279,IMU0,-2.682926829268293,-2.0121951219512195,7.439024390243903,-0.4677734375,0.66796875,-0.314453125
931,4.279,IMU1,-1.829268292682927,-1.5853658536585367,5.3048780487804885,-0.490234375,0.67578125,-0.3310546875
932,4.289,IMU0,-2.25609756097561,-1.829268292682927,7.378048780487806,-0.4609375,0.6611328125,-0.33203125
933,4.289,IMU1,-1.1585365853658538,-1.707317073170732,4.817073170731708,-0.478515625,0.6640625,-0.3486328125
934,4.299,IMU0,-2.0121951219512195,-0.6707317073170732,6.829268292682928,-0.4560546875,0.6376953125,-0.3515625
935,4.299,IMU1,-0.9756097560975611,-0.6097560975609757,4.146341463414634,-0.4755859375,0.640625,-0.3671875
936,4.309,IMU0,-1.6463414634146343,-1.1585365853658538,6.585365853658537,-0.435546875,0.6015625,-0.3701171875
937,4.309,IMU1,-0.6707317073170732,-0.7926829268292683,4.207317073170732,-0.4521484375,0.60546875,-0.384765625
938,4.319,IMU0,-1.0365853658536586,-1.0365853658536586,6.036585365853659,-0.412109375,0.568359375,-0.3837890625
939,4.319,IMU1,-0.06097560975609757,-0.853658536585366,3.536585365853659,-0.42578125,0.564453125,-0.3994140625
940,4.329,IMU0,-1.2195121951219514,-0.5487804878048781,5.182926829268293,-0.390625,0.5185546875,-0.396484375
941,4.329,IMU1,0.0,-0.426829268292683,2.5609756097560976,-0.4091796875,0.51953125,-0.4111328125
942,4.339,IMU0,-1.6463414634146343,-0.426829268292683,5.3048780487804885,-0.3564453125,0.470703125,-0.4052734375
943,4.339,IMU1,-0.48780487804878053,-0.12195121951219513,2.9268292682926833,-0.37890625,0.4736328125,-0.4189453125
944,4.349,IMU0,-1.1585365853658538,-0.426829268292683,5.0,-0.3125,0.435546875,-0.41796875
945,4.349,IMU1,-0.1829268292682927,-0.06097560975609757,2.5,-0.3291015625,0.431640625,-0.4306640625
946,4.359,IMU0,-1.524390243902439,0.06097560975609757,3.963414634146342,-0.2783203125,0.3974609375,-0.4287109375
947,4.359,IMU1,-0.426829268292683,0.0,1.1585365853658538,-0.2880859375,0.3857421875,-0.44140625
948,4.369,IMU0,-1.9512195121951221,0.0,3.780487804878049,-0.2353515625,0.3486328125,-0.4560546875
949,4.369,IMU1,-0.7926829268292683,0.1829268292682927,1.1585365853658538,-0.2509765625,0.3447265625,-0.46875
950,4.379,IMU0,-1.707317073170732,0.6707317073170732,3.4756097560975614,-0.17578125,0.306640625,-0.4736328125
951,4.379,IMU1,-0.6097560975609757,1.0365853658536586,0.7926829268292683,-0.1953125,0.3056640625,-0.4833984375
952,4.389,IMU0,-1.4634146341463417,0.30487804878048785,3.231707317073171,-0.12890625,0.275390625,-0.4794921875
953,4.389,IMU1,-0.5487804878048781,0.426829268292683,0.6097560975609757,-0.140625,0.267578125,-0.4892578125
954,4.399,IMU0,-1.402439024390244,-0.24390243902439027,3.048780487804878,-0.0830078125,0.234375,-0.48828125
955,4.399,IMU1,-0.30487804878048785,0.0,0.48780487804878053,-0.09765625,0.228515625,-0.498046875
956,4.409,IMU0,-1.7682926829268295,0.0,3.414634146341464,-0.05078125,0.203125,-0.4951171875
957,4.409,IMU1,-0.6097560975609757,0.5487804878048781,0.7926829268292683,-0.06640625,0.1953125,-0.5048828125
958,4.419,IMU0,-1.7682926829268295,0.0,4.024390243902439,-0.01953125,0.177734375,-0.4921875
959,4.419,IMU1,-0.7317073170731708,0.48780487804878053,1.402439024390244,-0.0380859375,0.169921875,-0.501953125
960,4.429,IMU0,-1.6463414634146343,-0.3658536585365854,3.8414634146341466,0.0068359375,0.15234375,-0.4951171875
961,4.429,IMU1,-0.7317073170731708,-0.06097560975609757,1.2804878048780488,-0.01171875,0.150390625,-0.50390625
962,4.439,IMU0,-2.1341463414634148,0.30487804878048785,2.9268292682926833,0.015625,0.1376953125,-0.486328125
963,4.439,IMU1,-1.0365853658536586,0.48780487804878053,0.3658536585365854,-0.00390625,0.134765625,-0.4951171875
964,4.449,IMU0,-2.1341463414634148,0.0,2.8658536585365857,0.0302734375,0.1259765625,-0.4658203125
965,4.449,IMU1,-0.9146341463414634,0.24390243902439027,0.30487804878048785,0.013671875,0.123046875,-0.4755859375
966,4.459,IMU0,-1.8902439024390245,-0.24390243902439027,2.25609756097561,0.0498046875,0.125,-0.44921875
967,4.459,IMU1,-0.5487804878048781,0.24390243902439027,-0.3658536585365854,0.0322265625,0.1220703125,-0.45703125
968,4.469,IMU0,-2.25609756097561,-0.1829268292682927,1.9512195121951221,0.0556640625,0.1220703125,-0.4306640625
969,4.469,IMU1,-1.0365853658536586,0.24390243902439027,-0.6707317073170732,0.0361328125,0.1171875,-0.4384765625
970,4.479,IMU0,-2.0121951219512195,-0.426829268292683,1.7682926829268295,0.068359375,0.1181640625,-0.40625
971,4.479,IMU1,-0.6097560975609757,-0.1829268292682927,-0.6097560975609757,0.0517578125,0.115234375,-0.416015625
972,4.489,IMU0,-1.7682926829268295,-0.426829268292683,1.0365853658536586,0.078125,0.1123046875,-0.3623046875
973,4.489,IMU1,-0.6097560975609757,-0.06097560975609757,-1.2195121951219514,0.060546875,0.1103515625,-0.37109375
974,4.499,IMU0,-1.6463414634146343,-0.1829268292682927,0.7926829268292683,0.0830078125,0.099609375,-0.3154296875
975,4.499,IMU1,-0.48780487804878053,0.0,-1.5853658536585367,0.0634765625,0.099609375,-0.326171875
976,4.509,IMU0,-1.7682926829268295,0.06097560975609757,0.3658536585365854,0.087890625,0.0888671875,-0.27734375
977,4.509,IMU1,-0.6097560975609757,-0.12195121951219513,-2.073170731707317,0.068359375,0.087890625,-0.2880859375
978,4.519,IMU0,-1.8902439024390245,0.12195121951219513,0.1829268292682927,0.09375,0.0751953125,-0.2392578125
979,4.519,IMU1,-0.3658536585365854,-0.1829268292682927,-2.3170731707317076,0.0703125,0.080078125,-0.2470703125
980,4.529,IMU0,-1.707317073170732,-0.48780487804878053,-0.30487804878048785,0.0849609375,0.0732421875,-0.2001953125
981,4.529,IMU1,-0.426829268292683,-0.06097560975609757,-2.5609756097560976,0.0634765625,0.06640625,-0.20703125
982,4.539,IMU0,-1.9512195121951221,-0.5487804878048781,-0.7317073170731708,0.078125,0.064453125,-0.1669921875
983,4.539,IMU1,-0.5487804878048781,0.1829268292682927,-2.987804878048781,0.0615234375,0.056640625,-0.1767578125
984,4.549,IMU0,-1.8902439024390245,-0.1829268292682927,-1.0365853658536586,0.08203125,0.0478515625,-0.146484375
985,4.549,IMU1,-0.426829268292683,-0.24390243902439027,-3.2926829268292686,0.0595703125,0.046875,-0.154296875
986,4.559,IMU0,-2.073170731707317,-0.48780487804878053,-0.9756097560975611,0.0849609375,0.0361328125,-0.1318359375
987,4.559,IMU1,-1.0365853658536586,-0.48780487804878053,-3.536585365853659,0.05859375,0.037109375,-0.1376953125
988,4.569,IMU0,-1.7682926829268295,-1.0365853658536586,-1.402439024390244,0.078125,0.0224609375,-0.1220703125
989,4.569,IMU1,-0.426829268292683,-0.426829268292683,-3.780487804878049,0.0517578125,0.0244140625,-0.1279296875
990,4.579,IMU0,-1.6463414634146343,-0.24390243902439027,-1.524390243902439,0.0634765625,0.0205078125,-0.1201171875
991,4.579,IMU1,-0.6707317073170732,-0.12195121951219513,-4.024390243902439,0.0439453125,0.021484375,-0.126953125
992,4.589,IMU0,-2.0121951219512195,-0.06097560975609757,-1.3414634146341464,0.0576171875,0.0166015625,-0.1162109375
993,4.589,IMU1,-0.9756097560975611,-0.426829268292683,-3.5975609756097566,0.037109375,0.013671875,-0.1240234375
994,4.599,IMU0,-2.1951219512195124,-0.7926829268292683,-1.524390243902439,0.060546875,0.0068359375,-0.1181640625
995,4.599,IMU1,-1.0975609756097562,-0.06097560975609757,-3.780487804878049,0.037109375,0.0107421875,-0.123046875
996,4.609,IMU0,-1.9512195121951221,-0.6097560975609757,-1.9512195121951221,0.0498046875,0.01171875,-0.1162109375
997,4.609,IMU1,-0.853658536585366,-0.48780487804878053,-4.451219512195122,0.0341796875,0.005859375,-0.1220703125
998,4.619,IMU0,-1.9512195121951221,-0.1829268292682927,-2.0121951219512195,0.04296875,0.0048828125,-0.115234375
999,4.619,IMU1,-0.7926829268292683,0.12195121951219513,-4.51219512195122,0.0185546875,0.009765625,-0.12109375
1000,4.629,IMU0,-2.25609756097561,0.0,-1.8902439024390245,0.0419921875,0.00390625,-0.115234375
1001,4.629,IMU1,-1.2804878048780488,0.1829268292682927,-4.390243902439025,0.0126953125,0.0107421875,-0.1201171875
1002,4.639,IMU0,-2.1951219512195124,0.24390243902439027,-2.439024390243903,0.048828125,0.0146484375,-0.1201171875
1003,4.639,IMU1,-1.0365853658536586,0.426829268292683,-4.878048780487806,0.02734375,0.0126953125,-0.125
1004,4.649,IMU0,-2.1951219512195124,0.0,-2.804878048780488,0.0546875,0.0205078125,-0.119140625
1005,4.649,IMU1,-0.9146341463414634,0.24390243902439027,-5.365853658536586,0.033203125,0.01953125,-0.125
1006,4.659,IMU0,-2.25609756097561,-0.06097560975609757,-2.987804878048781,0.05859375,0.0263671875,-0.11328125
1007,4.659,IMU1,-1.2804878048780488,0.1829268292682927,-5.365853658536586,0.0361328125,0.025390625,-0.1181640625
1008,4.669,IMU0,-2.1951219512195124,0.426829268292683,-2.804878048780488,0.0751953125,0.0341796875,-0.125
1009,4.669,IMU1,-1.0365853658536586,0.7317073170731708,-5.2439024390243905,0.0537109375,0.0322265625,-0.1298828125
1010,4.679,IMU0,-2.3170731707317076,0.48780487804878053,-2.8658536585365857,0.0908203125,0.0361328125,-0.146484375
1011,4.679,IMU1,-1.2804878048780488,0.6707317073170732,-5.3048780487804885,0.0703125,0.0361328125,-0.1533203125
1012,4.689,IMU0,-2.0121951219512195,0.48780487804878053,-2.804878048780488,0.099609375,0.0400390625,-0.16796875
1013,4.689,IMU1,-1.0365853658536586,0.7926829268292683,-5.2439024390243905,0.0791015625,0.0380859375,-0.173828125
1014,4.699,IMU0,-1.829268292682927,0.426829268292683,-2.804878048780488,0.1142578125,0.0361328125,-0.189453125
1015,4.699,IMU1,-0.6707317073170732,0.6707317073170732,-5.3048780487804885,0.095703125,0.033203125,-0.1962890625
1016,4.709,IMU0,-1.6463414634146343,0.5487804878048781,-2.987804878048781,0.119140625,0.0390625,-0.197265625
1017,4.709,IMU1,-0.5487804878048781,0.7926829268292683,-5.426829268292684,0.1044921875,0.029296875,-0.205078125
1018,4.719,IMU0,-1.7682926829268295,0.24390243902439027,-2.804878048780488,0.12890625,0.0302734375,-0.2021484375
1019,4.719,IMU1,-0.6097560975609757,0.5487804878048781,-5.060975609756098,0.111328125,0.025390625,-0.208984375
1020,4.729,IMU0,-1.524390243902439,0.12195121951219513,-2.9268292682926833,0.1337890625,0.0224609375,-0.2109375
1021,4.729,IMU1,-0.3658536585365854,0.426829268292683,-5.365853658536586,0.1123046875,0.0205078125,-0.2177734375
1022,4.739,IMU0,-1.402439024390244,0.30487804878048785,-3.231707317073171,0.1328125,0.017578125,-0.21484375
1023,4.739,IMU1,-0.426829268292683,0.48780487804878053,-5.548780487804878,0.111328125,0.015625,-0.220703125
1024,4.749,IMU0,-1.707317073170732,0.1829268292682927,-3.1097560975609757,0.1298828125,0.0087890625,-0.2138671875
1025,4.749,IMU1,-0.6097560975609757,0.426829268292683,-5.487804878048781,0.109375,0.0068359375,-0.2197265625
1026,4.759,IMU0,-1.524390243902439,-0.06097560975609757,-3.1097560975609757,0.1259765625,0.00390625,-0.21875
1027,4.759,IMU1,-0.426829268292683,0.12195121951219513,-5.487804878048781,0.1044921875,0.0009765625,-0.224609375
1028,4.769,IMU0,-1.7682926829268295,0.12195121951219513,-3.353658536585366,0.1201171875,0.0,-0.21484375
1029,4.769,IMU1,-0.7317073170731708,0.3658536585365854,-5.670731707317073,0.099609375,-0.00390625,-0.220703125
1030,4.779,IMU0,-1.6463414634146343,-0.12195121951219513,-3.536585365853659,0.1123046875,-0.005859375,-0.21484375
1031,4.779,IMU1,-0.6097560975609757,0.12195121951219513,-5.853658536585367,0.091796875,-0.0087890625,-0.21875
1032,4.789,IMU0,-1.829268292682927,-0.30487804878048785,-3.780487804878049,0.109375,-0.0068359375,-0.2177734375
1033,4.789,IMU1,-0.7926829268292683,-0.06097560975609757,-6.219512195121951,0.0869140625,-0.0087890625,-0.2216796875
1034,4.799,IMU0,-1.707317073170732,0.30487804878048785,-3.9024390243902443,0.1025390625,-0.005859375,-0.212890625
1035,4.799,IMU1,-0.6707317073170732,0.6097560975609757,-6.402439024390245,0.08203125,-0.0078125,-0.216796875
1036,4.809,IMU0,-2.1951219512195124,0.06097560975609757,-4.207317073170732,0.09375,-0.005859375,-0.216796875
1037,4.809,IMU1,-1.0975609756097562,0.3658536585365854,-6.585365853658537,0.0732421875,-0.0087890625,-0.2216796875
1038,4.819,IMU0,-2.073170731707317,0.24390243902439027,-4.390243902439025,0.0908203125,-0.0009765625,-0.2158203125
1039,4.819,IMU1,-1.0365853658536586,0.48780487804878053,-6.707317073170732,0.072265625,-0.0029296875,-0.2216796875
1040,4.829,IMU0,-2.1341463414634148,0.48780487804878053,-4.146341463414634,0.0849609375,0.005859375,-0.2294921875
1041,4.829,IMU1,-0.9756097560975611,0.6707317073170732,-6.463414634146342,0.0673828125,0.0029296875,-0.2353515625
1042,4.839,IMU0,-2.3170731707317076,0.30487804878048785,-4.573170731707317,0.080078125,0.0107421875,-0.2529296875
1043,4.839,IMU1,-1.2195121951219514,0.5487804878048781,-6.829268292682928,0.0595703125,0.0078125,-0.2587890625
1044,4.849,IMU0,-1.9512195121951221,0.30487804878048785,-4.634146341463415,0.08203125,0.0244140625,-0.2705078125
1045,4.849,IMU1,-0.9756097560975611,0.5487804878048781,-6.7682926829268295,0.060546875,0.0224609375,-0.2763671875
1046,4.859,IMU0,-2.3170731707317076,0.426829268292683,-4.695121951219512,0.0771484375,0.0302734375,-0.2998046875
1047,4.859,IMU1,-1.1585365853658538,0.6707317073170732,-7.073170731707318,0.056640625,0.025390625,-0.306640625
1048,4.869,IMU0,-2.0121951219512195,0.9146341463414634,-5.060975609756098,0.083984375,0.0380859375,-0.3203125
1049,4.869,IMU1,-0.9146341463414634,1.1585365853658538,-7.560975609756098,0.064453125,0.0341796875,-0.3271484375
1050,4.879,IMU0,-2.073170731707317,0.6707317073170732,-5.060975609756098,0.0869140625,0.0400390625,-0.341796875
1051,4.879,IMU1,-0.9756097560975611,0.9756097560975611,-7.621951219512196,0.0673828125,0.037109375,-0.3486328125
1052,4.889,IMU0,-2.073170731707317,0.9756097560975611,-5.670731707317073,0.0947265625,0.0419921875,-0.361328125
1053,4.889,IMU1,-1.0365853658536586,1.3414634146341464,-7.987804878048781,0.0751953125,0.037109375,-0.3681640625
1054,4.899,IMU0,-1.6463414634146343,0.7317073170731708,-5.853658536585367,0.1064453125,0.0458984375,-0.376953125
1055,4.899,IMU1,-0.5487804878048781,1.0975609756097562,-8.353658536585366,0.0869140625,0.041015625,-0.3828125
1056,4.909,IMU0,-2.1341463414634148,1.2804878048780488,-6.341463414634147,0.1142578125,0.0419921875,-0.3896484375
1057,4.909,IMU1,-1.0365853658536586,1.4634146341463417,-8.78048780487805,0.0947265625,0.0361328125,-0.396484375
1058,4.919,IMU0,-1.4634146341463417,1.4634146341463417,-7.134146341463415,0.1337890625,0.0400390625,-0.396484375
1059,4.919,IMU1,-0.30487804878048785,1.6463414634146343,-9.573170731707318,0.1142578125,0.03515625,-0.40234375
1060,4.929,IMU0,-1.2804878048780488,1.7682926829268295,-7.439024390243903,0.150390625,0.033203125,-0.396484375
1061,4.929,IMU1,0.12195121951219513,1.9512195121951221,-10.121951219512196,0.1337890625,0.02734375,-0.4033203125
1062,4.939,IMU0,-2.073170731707317,1.829268292682927,-8.353658536585366,0.1689453125,0.0234375,-0.3935546875
1063,4.939,IMU1,-0.7317073170731708,2.073170731707317,-10.975609756097562,0.1513671875,0.0166015625,-0.3994140625
1064,4.949,IMU0,-2.1951219512195124,1.2195121951219514,-9.146341463414634,0.1962890625,0.0126953125,-0.404296875
1065,4.949,IMU1,-1.0365853658536586,1.4634146341463417,-11.76829268292683,0.177734375,0.0068359375,-0.41015625
1066,4.959,IMU0,-1.7682926829268295,1.402439024390244,-10.0,0.216796875,0.013671875,-0.423828125
1067,4.959,IMU1,-0.6097560975609757,1.6463414634146343,-12.439024390243903,0.197265625,0.009765625,-0.4296875
1068,4.969,IMU0,-2.073170731707317,1.829268292682927,-10.609756097560977,0.2314453125,0.017578125,-0.4482421875
1069,4.969,IMU1,-0.9146341463414634,2.073170731707317,-12.987804878048781,0.2109375,0.0126953125,-0.4521484375
1070,4.979,IMU0,-2.6219512195121952,1.2195121951219514,-11.28048780487805,0.2509765625,0.0234375,-0.482421875
1071,4.979,IMU1,-1.524390243902439,1.524390243902439,-13.597560975609758,0.232421875,0.01953125,-0.4873046875
1072,4.989,IMU0,-2.682926829268293,0.5487804878048781,-12.865853658536587,0.2548828125,0.0283203125,-0.513671875
1073,4.989,IMU1,-1.5853658536585367,0.853658536585366,-15.060975609756099,0.2353515625,0.025390625,-0.51953125
1074,4.999,IMU0,-2.1951219512195124,0.426829268292683,-14.207317073170733,0.2333984375,0.0341796875,-0.54296875
1075,4.999,IMU1,-1.0365853658536586,0.7317073170731708,-16.52439024390244,0.21484375,0.0302734375,-0.548828125
1076,5.009,IMU0,-1.6463414634146343,0.7317073170731708,-15.060975609756099,0.2041015625,0.0380859375,-0.560546875
1077,5.009,IMU1,-0.48780487804878053,1.0365853658536586,-17.439024390243905,0.1845703125,0.0341796875,-0.5654296875
1078,5.019,IMU0,-1.6463414634146343,0.426829268292683,-15.670731707317074,0.17578125,0.037109375,-0.5703125
1079,5.019,IMU1,-0.48780487804878053,0.7317073170731708,-17.804878048780488,0.15625,0.0341796875,-0.5771484375
1080,5.029,IMU0,-1.524390243902439,0.5487804878048781,-16.463414634146343,0.1474609375,0.03515625,-0.5732421875
1081,5.029,IMU1,-0.30487804878048785,0.7926829268292683,-18.658536585365855,0.126953125,0.0322265625,-0.580078125
1082,5.039,IMU0,-1.7682926829268295,0.9756097560975611,-17.195121951219512,0.1142578125,0.0439453125,-0.5556640625
1083,5.039,IMU1,-0.48780487804878053,1.2195121951219514,-19.634146341463417,0.0927734375,0.041015625,-0.5625
1084,5.049,IMU0,-2.1951219512195124,1.829268292682927,-18.10975609756098,0.0888671875,0.06640625,-0.5234375
1085,5.049,IMU1,-0.7317073170731708,2.1341463414634148,-20.54878048780488,0.0673828125,0.0634765625,-0.5302734375
1086,5.059,IMU0,-2.6219512195121952,2.378048780487805,-18.84146341463415,0.072265625,0.10546875,-0.48046875
1087,5.059,IMU1,-1.2195121951219514,2.7439024390243905,-21.097560975609756,0.0517578125,0.1005859375,-0.48828125
1088,5.069,IMU0,-2.682926829268293,2.439024390243903,-19.207317073170735,0.064453125,0.15234375,-0.4296875
1089,5.069,IMU1,-1.2804878048780488,2.804878048780488,-21.463414634146343,0.0439453125,0.1494140625,-0.4375
1090,5.079,IMU0,-3.536585365853659,2.439024390243903,-20.0,0.0595703125,0.2041015625,-0.3828125
1091,5.079,IMU1,-1.829268292682927,2.7439024390243905,-22.195121951219512,0.041015625,0.201171875,-0.390625
1092,5.089,IMU0,-4.2682926829268295,2.682926829268293,-20.30487804878049,0.05859375,0.267578125,-0.341796875
1093,5.089,IMU1,-2.682926829268293,2.9268292682926833,-22.500000000000004,0.0400390625,0.263671875,-0.3505859375
1094,5.099,IMU0,-4.939024390243903,2.682926829268293,-20.914634146341466,0.0576171875,0.3291015625,-0.30859375
1095,5.099,IMU1,-3.4756097560975614,2.9268292682926833,-23.10975609756098,0.037109375,0.326171875,-0.3173828125
1096,5.109,IMU0,-5.2439024390243905,3.048780487804878,-21.402439024390247,0.0595703125,0.38671875,-0.279296875
1097,5.109,IMU1,-3.9024390243902443,3.231707317073171,-23.78048780487805,0.0400390625,0.3837890625,-0.2900390625
1098,5.119,IMU0,-5.3048780487804885,3.1097560975609757,-21.402439024390247,0.0595703125,0.4423828125,-0.2587890625
1099,5.119,IMU1,-4.146341463414634,3.414634146341464,-23.658536585365855,0.0390625,0.4404296875,-0.26953125
