,ts,acc_x,acc_y,acc_z
0,2289131,-2,0,0
1,2289141,-2,0,0
2,2289151,-2,0,0
3,2289161,-2,0,0
4,2289171,-2,0,0
5,2289181,-2,0,0
6,2289191,-2,0,0
7,2289201,-2,0,0
8,2289211,-2,0,0
9,2289221,-2,0,0
10,2289231,-2,0,0
11,2289241,-2,0,0
12,2289251,-2,0,0
13,2289261,-2,0,0
14,2289271,-2,0,0
15,2289281,-2,0,0
16,2289291,-2,0,0
17,2289301,-2,0,0
18,2289311,-2,0,0
19,2289321,-2,0,0
20,2289331,-2,0,0
21,2289341,-2,0,0
22,2289351,-2,0,0
23,2289361,-18,-1,0
24,2289371,-11,0,0
25,2289381,-13,-1,0
26,2289391,-12,0,0
27,2289401,-13,0,0
28,2289411,-11,0,0
29,2289421,-12,0,0
30,2289431,-12,0,0
31,2289441,-12,0,0
32,2289451,-12,0,0
33,2289461,-12,0,0
34,2289471,-12,0,0
35,2289481,-12,0,0
36,2289491,-11,0,0
37,2289501,-12,0,0
38,2289511,-12,0,0
39,2289521,-12,0,0
40,2289531,-12,1,0
41,2289541,-12,0,0
42,2289551,-11,0,0
43,2289561,-12,0,0
44,2289571,-12,0,0
45,2289581,-11,0,0
46,2289591,-12,0,0
47,2289601,-11,0,0
48,2289611,-11,0,0
49,2289621,-11,0,0
50,2289651,-11,0,0
51,2289661,-11,0,0
52,2289671,-11,0,0
53,2289681,-12,0,0
54,2289691,-12,0,0
55,2289701,-12,0,0
56,2289711,-11,0,0
57,2289721,-12,0,0
58,2289731,-12,0,0
59,2289741,-11,0,0
60,2289751,-11,0,0
61,2289761,-11,0,0
62,2289771,-11,0,0
63,2289781,-11,0,0
64,2289791,-11,0,0
65,2289801,-11,0,0
66,2289811,-11,0,0
67,2289821,-11,0,0
68,2289831,-11,0,0
69,2289841,-11,0,0
70,2289851,-11,0,0
71,2289861,-11,0,0
72,2289871,-11,0,0
73,2289881,-10,0,0
74,2289891,-11,0,0
75,2289901,-11,1,0
76,2289911,-10,0,0
77,2289921,-11,0,0
78,2289931,-11,1,0
79,2289941,-11,1,0
80,2289951,-11,0,0
81,2289961,-11,1,0
82,2289971,-11,0,0
83,2289981,-10,1,0
84,2289991,-10,1,0
85,2290001,-10,1,0
86,2290011,-11,1,0
87,2290021,-10,1,0
88,2290031,-10,1,0
89,2290041,-10,1,0
90,2290051,-10,1,0
91,2290061,-10,0,0
92,2290071,-10,1,0
93,2290081,-10,1,0
94,2290091,-10,1,0
95,2290101,-10,1,0
96,2290111,-10,1,0
97,2290121,-11,0,0
98,2290131,-10,0,0
99,2290141,-10,1,0
100,2290151,-10,0,0
101,2290161,-9,0,0
102,2290171,-9,1,0
103,2290181,-10,1,0
104,2290191,-10,0,0
105,2290201,-9,1,0
106,2290211,-9,0,0
107,2290221,-10,1,0
108,2290231,-10,0,0
109,2290241,-10,0,0
110,2290251,-9,0,0
111,2290261,-9,0,0
112,2290271,-9,0,0
113,2290281,-9,0,0
114,2290291,-10,0,0
115,2290301,-9,1,0
116,2290311,-9,0,0
117,2290321,-9,1,0
118,2290331,-9,1,0
119,2290341,-9,0,0
120,2290351,-9,1,0
121,2290361,-9,0,0
122,2290371,-9,1,0
123,2290381,-9,1,0
124,2290391,-9,1,0
125,2290401,-9,1,0
126,2290411,-9,1,0
127,2290421,-9,1,0
128,2290431,-9,1,0
129,2290441,-9,1,0
130,2290451,-9,1,0
131,2290461,-9,1,0
132,2290471,-9,1,0
133,2290481,-9,1,0
134,2290491,-8,1,0
135,2290501,-9,1,0
136,2290511,-8,1,0
137,2290521,-8,1,0
138,2290531,-8,1,0
139,2290541,-8,1,0
140,2290551,-8,1,0
141,2290561,-8,1,0
142,2290571,-8,1,0
143,2290581,-8,1,0
144,2290591,-8,1,0
145,2290601,-8,1,0
146,2290611,-8,1,0
147,2290621,-8,1,0
148,2290631,-8,1,0
149,2290641,-8,1,0
150,2290651,-8,1,0
151,2290661,-8,1,0
152,2290671,-8,1,0
153,2290681,-8,0,0
154,2290691,-7,1,0
155,2290701,-8,1,0
156,2290711,-7,0,0
157,2290721,-7,0,0
158,2290731,-7,1,0
159,2290741,-7,0,0
160,2290751,-7,0,0
161,2290761,-7,0,0
162,2290771,-7,0,0
163,2290781,-7,0,0
164,2290791,-7,0,0
165,2290801,-7,0,0
166,2290811,-7,1,0
167,2290821,-7,0,0
168,2290831,-7,0,0
169,2290841,-7,0,0
170,2290851,-7,0,0
171,2290861,-7,0,0
172,2290871,-7,0,0
173,2290881,-6,0,0
174,2290891,-6,0,0
175,2290901,-6,0,0
176,2290911,-7,0,0
177,2290921,-6,0,0
178,2290931,-6,1,0
179,2290941,-6,0,0
180,2290951,-6,0,0
181,2290961,-6,0,0
182,2290971,-6,0,0
183,2290981,-6,0,0
184,2290991,-6,0,0
185,2291001,-6,1,0
186,2291011,-6,1,0
187,2291021,-6,0,0
188,2291031,-6,1,0
189,2291041,-6,0,0
190,2291051,-6,1,0
191,2291061,-6,0,0
192,2291071,-5,1,0
193,2291081,-5,1,0
194,2291091,-5,0,0
195,2291101,-5,1,0
196,2291111,-5,0,0
197,2291121,-5,1,0
198,2291131,-5,1,0
199,2291141,-5,1,0
200,2291151,-4,0,0
201,2291161,-4,0,0
202,2291171,-4,0,0
203,2291181,-4,0,0
204,2291191,-3,0,0
205,2291201,-3,0,0
206,2291211,-3,1,0
207,2291221,-3,0,0
208,2291231,-3,0,0
209,2291241,-3,0,0
210,2291251,-2,0,0
211,2291261,-2,0,0
212,2291271,-2,0,0
213,2291281,-2,0,0
214,2291291,-2,0,0
215,2291301,-2,0,0
216,2291311,-2,0,0
217,2291321,-2,0,0
218,2291331,-1,0,0
219,2291341,-1,0,0
220,2291351,-1,0,0
221,2291361,-1,0,0
222,2291371,-1,0,0
223,2291381,-1,0,0
224,2291391,-1,0,0
225,2291401,-1,0,0
226,2291411,-1,0,0
227,2291421,0,0,0
228,2291431,0,0,0
229,2291441,0,0,0
230,2291451,0,0,0
231,2291461,0,0,0
232,2291471,0,0,0
233,2291481,-1,0,0
234,2291491,0,0,0
235,2291501,0,1,0
236,2291511,0,0,0
237,2291521,0,0,0
238,2291531,0,1,0
239,2291541,0,0,0
240,2291551,0,0,0
241,2291561,0,0,0
242,2291571,0,0,0
243,2291581,0,0,0
244,2291591,0,0,0
245,2291601,0,0,0
246,2291611,0,0,0
247,2291621,0,0,0
248,2291631,0,0,0
249,2291641,0,0,0
250,2291651,0,0,0
251,2291661,0,0,0
252,2291671,0,1,0
253,2291681,0,0,0
254,2291691,0,0,0
255,2291701,0,0,0
256,2291711,0,0,0
257,2291721,0,0,0
258,2291731,0,0,0
259,2291741,0,0,0
260,2291751,0,0,0
261,2291761,0,0,0
262,2291771,0,0,0
263,2291781,0,0,0
264,2291791,0,0,0
265,2291801,0,0,0
266,2291811,0,0,0
267,2291821,0,1,0
268,2291831,0,0,0
269,2291841,0,0,0
270,2291851,0,0,0
271,2291861,0,0,0
272,2291871,0,0,0
273,2291881,0,0,0
274,2291891,0,0,0
275,2291901,0,0,0
276,2291911,0,0,0
277,2291921,0,0,0
278,2291931,1,0,0
279,2291941,1,0,0
280,2291951,0,1,0
281,2291961,0,0,0
282,2291971,0,0,0
283,2291981,0,0,0
284,2291991,0,0,0
285,2292001,0,0,0
286,2292011,0,0,0
287,2292021,0,0,0
288,2292031,0,0,0
289,2292041,0,0,0
290,2292051,0,0,0
291,2292061,0,0,0
292,2292071,0,0,0
293,2292081,0,0,0
294,2292091,0,0,0
295,2292101,0,0,0
296,2292111,0,0,0
297,2292121,0,0,0
298,2292131,1,0,0
299,2292141,0,0,0
300,2292151,0,0,0
301,2292161,0,0,0
302,2292171,0,0,0
303,2292181,0,0,0
304,2292191,1,0,0
305,2292201,0,0,0
306,2292211,0,0,0
307,2292221,1,0,0
308,2292231,0,0,0
309,2292241,0,0,0
310,2292251,0,0,0
311,2292261,0,0,0
312,2292271,0,0,0
313,2292281,0,0,0
314,2292291,0,0,0
315,2292301,0,0,0
316,2292311,0,0,0
317,2292321,0,0,0
318,2292331,0,0,0
319,2292341,0,0,0
320,2292351,0,0,0
321,2292361,0,0,0
322,2292371,0,0,0
323,2292381,0,0,0
324,2292391,0,0,0
325,2292401,0,0,0
326,2292411,0,0,0
327,2292421,0,0,0
328,2292431,0,0,0
329,2292441,0,0,0
330,2292451,0,0,0
331,2292461,0,0,0
332,2292471,0,0,0
333,2292481,0,0,0
334,2292491,0,0,0
335,2292501,0,0,0
336,2292511,0,0,0
337,2292521,0,0,0
338,2292531,0,0,0
339,2292541,0,0,0
340,2292551,0,0,0
341,2292561,0,0,0
342,2292571,0,0,0
343,2292581,0,0,0
344,2292591,0,0,0
345,2292601,0,0,0
346,2292611,0,0,0
347,2292621,0,0,0
348,2292631,0,0,0
349,2292641,0,0,0
350,2292651,0,0,0
351,2292661,0,0,0
352,2292671,0,0,0
353,2292681,0,0,0
354,2292691,0,0,0
355,2292701,0,0,0
356,2292711,0,1,0
357,2292721,0,0,0
358,2292731,0,0,0
359,2292741,0,0,0
360,2292751,0,0,0
361,2292761,0,0,0
362,2292771,0,0,0
363,2292781,0,0,0
364,2292791,0,0,0
365,2292801,0,0,0
366,2292811,0,0,0
367,2292821,0,0,0
368,2292831,0,0,0
369,2292841,0,0,0
370,2292851,0,0,0
371,2292861,0,0,0
372,2292871,0,0,0
373,2292881,0,0,0
374,2292891,0,0,0
375,2292901,0,0,0
376,2292911,0,0,0
377,2292921,0,0,0
378,2292931,0,0,0
379,2292941,0,0,0
380,2292951,0,0,0
381,2292961,0,0,0
382,2292971,0,0,0
383,2292981,0,0,0
384,2292991,0,0,0
385,2293001,0,0,0
386,2293011,0,0,0
387,2293021,0,0,0
388,2293031,0,0,0
389,2293041,0,0,0
390,2293051,0,0,0
391,2293061,0,0,0
392,2293071,0,0,0
393,2293081,0,0,0
394,2293091,0,0,0
395,2293101,0,0,0
396,2293111,0,0,0
397,2293121,0,0,0
398,2293131,0,0,0
399,2293141,0,0,0
400,2293151,0,0,0
401,2293161,0,0,0
402,2293171,0,0,0
403,2293181,0,0,0
404,2293191,0,0,0
405,2293201,0,0,0
406,2293211,0,0,0
407,2293221,0,0,0
408,2293231,0,0,0
409,2293241,0,0,0
410,2293251,0,0,0
411,2293261,0,0,0
412,2293271,0,0,0
413,2293281,0,0,0
414,2293291,0,0,0
415,2293301,0,0,0
416,2293311,0,0,0
417,2293321,0,0,0
418,2293331,0,0,0
419,2293341,0,0,0
420,2293351,0,0,0
421,2293361,0,0,0
422,2293371,0,0,0
423,2293381,0,0,0
424,2293391,0,0,0
425,2293401,0,0,0
426,2293411,0,0,0
427,2293421,0,0,0
428,2293431,0,0,0
429,2293441,0,0,0
430,2293451,0,0,0
431,2293461,0,0,0
432,2293471,0,0,0
433,2293481,0,0,0
434,2293491,0,0,0
435,2293501,0,0,0
436,2293511,0,0,0
437,2293521,0,0,0
438,2293531,0,0,0
439,2293541,0,0,0
440,2293551,0,0,0
441,2293561,0,0,0
442,2293571,0,0,0
443,2293581,0,0,0
444,2293591,0,0,0
445,2293601,0,0,0
446,2293611,0,0,0
447,2293621,0,0,0
448,2293631,0,0,0
449,2293641,0,0,0
450,2293651,0,0,0
451,2293661,0,0,0
452,2293671,0,0,0
453,2293681,0,0,0
454,2293691,0,0,0
455,2293701,0,0,0
456,2293711,0,0,0
457,2293721,0,0,0
458,2293731,0,0,0
459,2293741,0,0,0
460,2293751,0,0,0
461,2293761,0,0,0
462,2293771,0,0,0
463,2293781,0,0,0
464,2293791,0,0,0
465,2293801,0,0,0
466,2293811,0,0,0
467,2293821,0,0,0
468,2293831,0,0,0
469,2293841,0,0,0
470,2293851,0,0,0
471,2293861,0,0,0
472,2293871,0,0,0
473,2293881,0,0,0
474,2293891,0,0,0
475,2293901,0,0,0
476,2293911,0,0,0
477,2293921,0,0,0
478,2293931,0,0,0
479,2293941,0,0,0
480,2293951,0,0,0
481,2293961,0,0,0
482,2293971,0,0,0
483,2293981,0,0,0
484,2293991,0,0,0
485,2294001,0,0,0
486,2294011,0,0,0
487,2294021,0,0,0
488,2294031,0,0,0
489,2294041,0,0,0
490,2294051,0,0,0
491,2294061,0,0,0
492,2294071,0,0,0
493,2294081,0,0,0
494,2294091,0,0,0
495,2294101,0,0,0
496,2294111,0,0,0
497,2294121,0,0,0
498,2294131,0,0,0
499,2294141,0,0,0
500,2294151,0,0,0
501,2294161,0,0,0
502,2294171,0,0,0
503,2294181,0,0,0
504,2294191,0,0,0
505,2294201,0,0,0
506,2294211,0,0,0
507,2294221,0,0,0
508,2294231,0,0,0
509,2294241,0,0,0
510,2294251,0,0,0
511,2294261,0,0,0
512,2294271,0,0,0
513,2294281,0,0,0
514,2294291,0,0,0
515,2294301,0,0,0
516,2294311,0,0,0
517,2294321,0,0,0
518,2294331,0,0,0
519,2294341,0,0,0
520,2294351,0,0,0
521,2294361,0,0,0
522,2294371,0,0,0
523,2294381,0,0,0
524,2294391,0,0,0
525,2294401,0,0,0
526,2294411,0,0,0
527,2294421,0,0,0
528,2294431,0,0,0
529,2294441,0,0,0
530,2294451,0,0,0
531,2294461,0,0,0
532,2294471,0,0,0
533,2294481,0,0,0
534,2294491,0,0,0
535,2294501,0,0,0
536,2294511,0,0,0
537,2294521,0,0,0
538,2294531,0,0,0
539,2294541,0,0,0
540,2294551,0,0,0
541,2294561,0,0,0
542,2294571,0,0,0
543,2294581,0,0,0
544,2294591,0,0,0
545,2294601,0,0,0
546,2294611,0,0,0
547,2294621,0,0,0
548,2294631,0,0,0
549,2294641,0,0,0
550,2294651,0,0,0
551,2294661,0,0,0
552,2294671,0,0,0
553,2294681,0,0,0
554,2294691,0,0,0
555,2294701,0,0,0
556,2294711,0,0,0
557,2294721,0,0,0
558,2294731,0,0,0
559,2294741,0,0,0
560,2294751,0,0,0
561,2294761,0,0,0
562,2294771,0,0,0
563,2294781,0,0,0
564,2294791,0,0,0
565,2294801,0,0,0
566,2294811,0,0,0
567,2294821,0,0,0
568,2294831,0,0,0
569,2294841,0,0,0
570,2294851,-1,0,0
571,2294861,0,0,0
572,2294871,0,0,0
573,2294881,0,0,0
574,2294891,0,0,0
575,2294901,0,0,0
576,2294911,0,0,0
577,2294921,0,0,0
578,2294931,0,0,0
579,2294941,0,0,0
580,2294951,0,0,0
581,2294961,0,0,0
582,2294971,0,0,0
583,2294981,0,0,0
584,2294991,0,0,0
585,2295001,0,0,0
586,2295011,0,0,0
587,2295021,0,0,0
588,2295031,0,0,0
589,2295041,0,0,0
590,2295051,0,0,0
591,2295061,0,0,0
592,2295071,0,0,0
593,2295081,0,0,0
594,2295091,0,0,0
595,2295101,0,0,0
596,2295111,0,0,0
597,2295121,0,0,0
598,2295131,0,0,0
599,2295141,0,0,0
600,2295151,0,0,0
601,2295161,-1,0,0
602,2295171,0,0,0
603,2295181,0,0,0
604,2295191,0,0,0
605,2295201,0,0,0
606,2295211,0,0,0
607,2295221,0,0,0
608,2295231,0,0,0
609,2295241,0,0,0
610,2295251,0,0,0
611,2295261,0,0,0
612,2295271,0,0,0
613,2295281,0,0,0
614,2295291,0,0,0
615,2295301,0,0,0
616,2295311,0,0,0
617,2295321,0,0,0
618,2295331,0,0,0
619,2295341,0,0,0
620,2295351,0,0,0
621,2295361,0,0,0
622,2295371,0,0,0
623,2295381,0,0,0
624,2295391,0,0,0
625,2295401,0,0,0
626,2295411,0,0,0
627,2295421,0,0,0
628,2295431,0,0,0
629,2295441,0,0,0
630,2295451,0,0,0
631,2295461,0,0,0
632,2295471,0,0,0
633,2295481,0,0,0
634,2295491,0,0,0
635,2295501,0,0,0
636,2295511,0,0,0
637,2295521,0,0,0
638,2295531,0,0,0
639,2295541,0,0,0
640,2295551,0,0,0
641,2295561,0,0,0
642,2295571,0,0,0
643,2295581,0,0,0
644,2295591,0,0,0
645,2295601,0,0,0
646,2295611,-1,0,0
647,2295621,0,0,0
648,2295631,0,0,0
649,2295641,0,0,0
650,2295651,0,0,0
651,2295661,-1,0,0
652,2295671,0,0,0
653,2295681,0,0,0
654,2295691,0,0,0
655,2295701,0,0,0
656,2295711,0,0,0
657,2295721,0,0,0
658,2295731,0,0,0
659,2295741,0,0,0
660,2295751,0,0,0
661,2295761,0,0,0
662,2295771,0,0,0
663,2295781,-1,0,0
664,2295791,0,0,0
665,2295801,0,0,0
666,2295811,0,0,0
667,2295821,0,0,0
668,2295831,0,0,0
669,2295841,0,0,0
670,2295851,0,0,0
671,2295861,0,0,0
672,2295871,0,0,0
673,2295881,0,0,0
674,2295891,0,0,0
675,2295901,0,0,0
676,2295911,0,0,0
677,2295921,0,0,0
678,2295931,0,0,0
679,2295941,0,0,0
680,2295951,0,0,0
681,2295961,0,0,0
682,2295971,0,0,0
683,2295981,0,0,0
684,2295991,0,0,0
685,2296001,-1,0,0
686,2296011,0,0,0
687,2296021,0,0,0
688,2296031,0,0,0
689,2296041,0,0,0
690,2296051,0,0,0
691,2296061,0,0,0
692,2296071,0,0,0
693,2296081,0,0,0
694,2296091,0,0,0
695,2296101,0,0,0
696,2296111,0,0,0
697,2296121,-1,0,0
698,2296131,-1,0,0
699,2296141,0,0,0
700,2296151,0,0,0
701,2296161,0,0,0
702,2296171,0,0,0
703,2296181,0,0,0
704,2296191,0,0,0
705,2296201,0,0,0
706,2296211,0,0,0
707,2296221,0,0,0
708,2296231,0,0,0
709,2296241,0,0,0
710,2296251,0,0,0
711,2296261,-1,0,0
712,2296271,0,0,0
713,2296281,0,0,0
714,2296291,0,0,0
715,2296301,-20,-1,0
716,2296311,-86,0,0
717,2296321,-3,0,0
718,2296331,-3,-1,0
719,2296341,-1,-1,0
720,2296351,-1,0,0
721,2296361,-1,0,0
722,2296371,-1,0,0
723,2296381,0,0,0
724,2296391,0,0,0
725,2296401,0,0,0
726,2296411,0,0,0
727,2296421,0,0,0
728,2296431,1,0,0
729,2296441,1,-1,0
730,2296451,4,0,0
731,2296461,1,0,0
732,2296471,0,0,0
733,2296481,7,0,0
734,2296491,0,-1,0
735,2296501,0,0,0
736,2296511,0,0,0
737,2296521,0,0,0
738,2296531,0,1,0
739,2296541,55,9,0
740,2296551,18,7,0
741,2296561,18,4,0
742,2296571,30,6,0
743,2296581,36,2,0
744,2296591,62,0,0
745,2296601,74,-16,0
746,2296611,36,-2,0
747,2296621,20,-4,0
748,2296631,13,-2,0
749,2296641,8,-4,0
750,2296651,15,-1,0
751,2296661,12,0,0
752,2296671,8,1,0
753,2296681,9,0,0
754,2296691,9,2,0
755,2296701,9,2,0
756,2296711,9,1,0
757,2296721,3,2,0
758,2296731,2,0,0
759,2296741,4,1,0
760,2296751,3,0,0
761,2296761,2,0,0
762,2296771,2,1,0
763,2296781,2,0,0
764,2296791,2,0,0
765,2296801,2,0,0
766,2296811,0,0,0
767,2296821,0,0,0
768,2296831,0,0,0
769,2296841,1,0,0
770,2296851,0,0,0
771,2296861,0,0,0
772,2296871,0,0,0
773,2296881,0,0,0
774,2296891,-1,-1,0
775,2296901,0,0,0
776,2296911,0,-1,0
777,2296921,0,-1,0
778,2296931,-1,0,0
779,2296941,-1,-1,0
780,2296951,0,0,0
781,2296961,-1,0,0
782,2296971,-1,-1,0
783,2296981,1,-1,0
784,2296991,0,-1,0
785,2297001,-1,0,0
786,2297011,-1,-1,0
787,2297021,-1,-1,0
788,2297031,-1,-1,0
789,2297041,-12,-1,0
790,2297051,-8,-2,0
791,2297061,-1,-1,0
792,2297071,-1,0,0
793,2297081,0,0,0
794,2297091,-1,0,0
795,2297101,-1,-1,0
796,2297111,-1,0,0
797,2297121,0,0,0
798,2297131,0,0,0
799,2297141,0,0,0
800,2297151,0,1,0
801,2297161,-1,0,0
802,2297171,-2,0,0
803,2297181,-3,-3,0
804,2297191,-2,-1,0
805,2297201,-2,0,0
806,2297211,-3,0,0
807,2297221,-4,1,0
808,2297231,-3,1,0
809,2297241,-2,1,0
810,2297251,-3,1,0
811,2297261,-2,0,0
812,2297271,-2,0,0
813,2297281,-2,0,0
814,2297291,-2,0,0
815,2297301,-2,0,0
816,2297311,-2,0,0
817,2297321,-2,0,0
818,2297331,-2,0,0
819,2297341,-2,0,0
820,2297351,-2,0,0
821,2297361,-1,-1,0
822,2297371,-2,0,0
823,2297381,-2,0,0
824,2297391,-2,0,0
825,2297401,-2,0,0
826,2297411,-2,0,0
827,2297421,-1,0,0
828,2297431,-1,0,0
829,2297441,-1,0,0
830,2297451,1,1,0
831,2297461,2,2,0
832,2297471,3,3,0
833,2297481,2,3,0
834,2297491,2,3,0
835,2297501,2,2,0
836,2297511,2,2,0
837,2297521,1,2,0
838,2297531,1,1,0
839,2297541,2,2,0
840,2297551,1,2,0
841,2297561,1,1,0
842,2297571,1,1,0
843,2297581,1,1,0
844,2297591,0,1,0
845,2297601,0,1,0
846,2297611,0,1,0
847,2297621,0,1,0
848,2297631,0,1,0
849,2297641,0,0,0
850,2297651,0,0,0
851,2297661,0,0,0
852,2297671,0,0,0
853,2297681,0,0,0
854,2297691,0,0,0
855,2297701,0,0,0
856,2297711,0,0,0
857,2297721,0,0,0
858,2297731,0,0,0
859,2297741,0,0,0
860,2297751,-1,0,0
861,2297761,0,0,0
862,2297771,0,0,0
863,2297781,0,0,0
864,2297791,0,0,0
865,2297801,-1,0,0
866,2297811,-1,0,0
867,2297821,0,0,0
868,2297831,0,0,0
869,2297841,-1,0,0
870,2297851,0,0,0
871,2297861,0,0,0
872,2297871,-1,0,0
873,2297881,0,0,0
874,2297891,0,0,0
875,2297901,0,0,0
876,2297911,0,0,0
877,2297921,0,0,0
878,2297931,-1,0,0
879,2297941,0,0,0
880,2297951,0,0,0
881,2297961,-1,0,0
882,2297971,-1,0,0
883,2297981,0,0,0
884,2297991,0,0,0
885,2298001,0,0,0
886,2298011,0,0,0
887,2298021,0,0,0
888,2298031,0,0,0
889,2298041,0,0,0
890,2298051,0,0,0
891,2298061,0,0,0
892,2298071,0,0,0
893,2298081,0,0,0
894,2298091,0,0,0
895,2298101,0,0,0
896,2298111,0,0,0
897,2298121,1,0,0
898,2298131,1,0,0
899,2298141,1,1,0
900,2298151,1,1,0
901,2298161,1,1,0
902,2298171,1,1,0
903,2298181,1,1,0
904,2298191,1,1,0
905,2298201,0,0,0
906,2298211,1,1,0
907,2298221,1,0,0
908,2298231,0,1,0
909,2298241,0,0,0
910,2298251,0,0,0
911,2298261,0,0,0
912,2298271,0,0,0
913,2298281,0,0,0
914,2298291,0,0,0
915,2298301,0,0,0
916,2298311,0,0,0
917,2298321,0,0,0
918,2298331,0,0,0
919,2298341,0,0,0
920,2298351,0,0,0
921,2298361,0,0,0
922,2298371,1,0,0
923,2298381,0,0,0
924,2298391,0,0,0
925,2298401,0,0,0
926,2298411,0,0,0
927,2298421,0,0,0
928,2298431,0,0,0
929,2298441,0,0,0
930,2298451,0,0,0
931,2298461,-1,0,0
932,2298471,-1,0,0
933,2298481,-1,0,0
934,2298491,-1,0,0
935,2298501,-1,0,0
936,2298511,0,0,0
937,2298521,0,0,0
938,2298531,-1,0,0
939,2298541,0,0,0
940,2298551,-1,0,0
941,2298561,-1,0,0
942,2298571,-1,0,0
943,2298581,0,0,0
944,2298591,-1,0,0
945,2298601,0,0,0
946,2298611,-1,0,0
947,2298621,-1,0,0
948,2298631,-1,0,0
949,2298641,-1,0,0
950,2298651,-1,0,0
951,2298661,0,0,0
952,2298671,0,0,0
953,2298681,0,0,0
954,2298691,-1,0,0
955,2298701,-1,0,0
956,2298711,-1,0,0
957,2298721,-1,0,0
958,2298731,-1,0,0
959,2298741,-1,0,0
960,2298751,-1,0,0
961,2298761,-1,0,0
962,2298771,-1,0,0
963,2298781,-1,0,0
964,2298791,0,0,0
965,2298801,-1,0,0
966,2298811,-1,0,0
967,2298821,-1,0,0
968,2298831,-1,0,0
969,2298841,-1,0,0
970,2298851,-1,0,0
971,2298861,-1,0,0
972,2298871,-1,0,0
973,2298881,0,0,0
974,2298891,-1,0,0
975,2298901,-1,0,0
976,2298911,-1,0,0
977,2298921,-1,0,0
978,2298931,-1,0,0
979,2298941,-1,0,0
980,2298951,-1,0,0
981,2298961,-1,0,0
982,2298971,-1,0,0
983,2298981,-1,0,0
984,2298991,0,0,0
985,2299001,0,0,0
986,2299011,0,1,0
987,2299021,2,3,0
988,2299031,1,1,0
989,2299041,0,2,0
990,2299051,1,2,0
991,2299061,0,1,0
992,2299071,0,1,0
993,2299081,1,1,0
994,2299091,1,1,0
995,2299101,0,1,0
996,2299111,0,1,0
997,2299121,0,1,0
998,2299131,0,1,0
999,2299141,1,1,0
1000,2299151,1,1,0
1001,2299161,1,1,0
1002,2299171,1,1,0
1003,2299181,1,1,0
1004,2299191,1,0,0
1005,2299201,1,0,0
1006,2299211,0,0,0
1007,2299221,1,-1,0
1008,2299231,1,-1,0
1009,2299241,2,-2,0
1010,2299251,1,-2,0
1011,2299261,1,-2,0
1012,2299271,2,-3,0
1013,2299281,1,-2,0
1014,2299291,1,-2,0
1015,2299301,1,-2,0
1016,2299311,1,-1,0
1017,2299321,1,-1,0
1018,2299331,0,-1,0
1019,2299341,0,-1,0
1020,2299351,0,-1,0
1021,2299361,0,-1,0
1022,2299371,0,-1,0
1023,2299381,0,-1,0
1024,2299391,0,-1,0
1025,2299401,0,-1,0
1026,2299411,0,-1,0
1027,2299421,0,-1,0
1028,2299431,0,-1,0
1029,2299441,0,-1,0
1030,2299451,0,-1,0
1031,2299461,0,-1,0
1032,2299471,1,-1,0
1033,2299481,1,-1,0
1034,2299491,1,-1,0
1035,2299501,1,-1,0
1036,2299511,1,-1,0
1037,2299521,1,-1,0
1038,2299531,1,-1,0
1039,2299541,1,-1,0
1040,2299551,1,-1,0
1041,2299561,2,-2,0
1042,2299571,2,-1,0
1043,2299581,2,-2,0
1044,2299591,1,-2,0
1045,2299601,1,-2,0
1046,2299611,1,-2,0
1047,2299621,1,-1,0
1048,2299631,1,-1,0
1049,2299641,0,-1,0
1050,2299651,0,-1,0
1051,2299661,0,-1,0
1052,2299671,0,-1,0
1053,2299681,0,-1,0
1054,2299691,0,-1,0
1055,2299701,1,-1,0
1056,2299711,0,-1,0
1057,2299721,0,-1,0
1058,2299731,0,-1,0
1059,2299741,0,-1,0
1060,2299751,0,-1,0
1061,2299761,1,-1,0
1062,2299771,0,-1,0
1063,2299781,1,-1,0
1064,2299791,0,-1,0
1065,2299801,-1,-1,0
1066,2299811,0,0,0
1067,2299821,0,0,0
1068,2299831,0,0,0
1069,2299841,0,0,0
1070,2299851,0,0,0
1071,2299861,0,0,0
1072,2299871,0,0,0
1073,2299881,-1,0,0
1074,2299891,-1,0,0
1075,2299901,-1,0,0
1076,2299911,-1,0,0
1077,2299921,0,0,0
1078,2299931,-1,0,0
1079,2299941,-1,0,0
1080,2299951,-1,0,0
1081,2299961,0,0,0
1082,2299971,-1,0,0
1083,2299981,-1,0,0
1084,2299991,-1,0,0
1085,2300001,-1,0,0
1086,2300011,-1,0,0
1087,2300021,0,0,0
1088,2300031,-1,0,0
1089,2300041,-1,0,0
1090,2300051,-1,0,0
1091,2300061,-1,0,0
1092,2300071,-1,0,0
1093,2300081,-1,0,0
1094,2300091,0,0,0
1095,2300101,-1,1,0
1096,2300111,0,1,0
1097,2300121,0,0,0
1098,2300131,-1,0,0
1099,2300141,0,1,0
1100,2300151,-1,1,0
1101,2300161,-1,1,0
1102,2300171,0,1,0
1103,2300181,2,3,0
1104,2300191,5,5,0
1105,2300201,4,3,0
1106,2300211,1,1,0
1107,2300221,1,1,0
1108,2300231,0,1,0
1109,2300241,0,1,0
1110,2300251,0,1,0
1111,2300261,0,1,0
1112,2300271,1,1,0
1113,2300281,2,1,0
1114,2300291,4,1,0
1115,2300301,4,0,0
1116,2300311,3,1,0
1117,2300321,4,1,0
1118,2300331,2,1,0
1119,2300341,1,1,0
1120,2300351,1,1,0
1121,2300361,1,1,0
1122,2300371,1,1,0
1123,2300381,1,1,0
1124,2300391,1,1,0
1125,2300401,0,1,0
1126,2300411,0,1,0
1127,2300421,1,2,0
1128,2300431,1,3,0
1129,2300441,0,2,0
1130,2300451,0,1,0
1131,2300461,0,1,0
1132,2300471,0,1,0
1133,2300481,0,1,0
1134,2300491,0,1,0
1135,2300501,0,1,0
1136,2300511,0,1,0
1137,2300521,1,1,0
1138,2300531,0,1,0
1139,2300541,0,1,0
1140,2300551,0,1,0
1141,2300561,0,1,0
1142,2300571,0,1,0
1143,2300581,0,1,0
1144,2300591,0,1,0
1145,2300601,0,0,0
1146,2300611,0,0,0
1147,2300621,0,0,0
1148,2300631,0,0,0
1149,2300641,1,0,0
1150,2300651,1,0,0
1151,2300661,1,-1,0
1152,2300671,1,0,0
1153,2300681,1,0,0
1154,2300691,1,-1,0
1155,2300701,1,-1,0
1156,2300711,1,-1,0
1157,2300721,1,-1,0
1158,2300731,0,-1,0
1159,2300741,0,0,0
1160,2300751,0,0,0
1161,2300761,0,0,0
1162,2300771,0,0,0
1163,2300781,0,0,0
1164,2300791,0,0,0
1165,2300801,0,0,0
1166,2300811,0,0,0
1167,2300821,1,0,0
1168,2300831,0,0,0
1169,2300841,0,0,0
1170,2300851,0,0,0
1171,2300861,0,0,0
1172,2300871,0,0,0
1173,2300881,0,0,0
1174,2300891,0,0,0
1175,2300901,0,0,0
1176,2300911,0,0,0
1177,2300921,0,0,0
1178,2300931,0,1,0
1179,2300941,0,1,0
1180,2300951,0,1,0
1181,2300961,0,1,0
1182,2300971,0,0,0
1183,2300981,0,0,0
1184,2300991,0,1,0
1185,2301001,0,0,0
1186,2301011,0,0,0
1187,2301021,0,0,0
1188,2301031,0,0,0
1189,2301041,0,1,0
1190,2301051,1,0,0
1191,2301061,0,0,0
1192,2301071,0,0,0
1193,2301081,0,0,0
1194,2301091,0,0,0
1195,2301101,0,0,0
1196,2301111,0,0,0
1197,2301121,0,0,0
1198,2301131,1,0,0
1199,2301141,0,0,0
1200,2301151,1,0,0
1201,2301161,1,0,0
1202,2301171,1,0,0
1203,2301181,1,0,0
1204,2301191,1,-1,0
1205,2301201,1,-1,0
1206,2301211,1,0,0
1207,2301221,1,-1,0
1208,2301231,1,-1,0
1209,2301241,0,-1,0
1210,2301251,1,0,0
1211,2301261,1,-1,0
1212,2301271,1,0,0
1213,2301281,1,-1,0
1214,2301291,1,-1,0
1215,2301301,1,-1,0
1216,2301311,1,-1,0
1217,2301321,1,-1,0
1218,2301331,0,-1,0
1219,2301341,1,-1,0
1220,2301351,0,-1,0
1221,2301361,1,0,0
1222,2301371,1,0,0
1223,2301381,1,0,0
1224,2301391,1,0,0
1225,2301401,1,0,0
1226,2301411,1,0,0
1227,2301421,0,0,0
1228,2301431,1,0,0
1229,2301441,1,-1,0
1230,2301451,1,-1,0
1231,2301461,1,0,0
1232,2301471,1,0,0
1233,2301481,1,0,0
1234,2301491,1,0,0
1235,2301501,1,0,0
1236,2301511,1,0,0
1237,2301521,0,0,0
1238,2301531,1,0,0
1239,2301541,1,-1,0
1240,2301551,1,0,0
1241,2301561,0,0,0
1242,2301571,0,-1,0
1243,2301581,0,-1,0
1244,2301591,1,-1,0
1245,2301601,1,-1,0
1246,2301611,1,-1,0
1247,2301621,1,-1,0
1248,2301631,1,-1,0
1249,2301641,1,-1,0
1250,2301651,1,-1,0
1251,2301661,1,-1,0
1252,2301671,1,-1,0
1253,2301681,1,-1,0
1254,2301691,1,-1,0
1255,2301701,1,-1,0
1256,2301711,1,-1,0
1257,2301721,1,-1,0
1258,2301731,1,-1,0
1259,2301741,1,-1,0
1260,2301751,1,-1,0
1261,2301761,1,-1,0
1262,2301771,1,-1,0
1263,2301781,1,0,0
1264,2301791,1,0,0
1265,2301801,1,0,0
1266,2301811,1,0,0
1267,2301821,1,0,0
1268,2301831,1,0,0
1269,2301841,1,0,0
1270,2301851,1,0,0
1271,2301861,1,0,0
1272,2301871,1,0,0
1273,2301881,1,0,0
1274,2301891,1,0,0
1275,2301901,0,0,0
1276,2301911,1,0,0
1277,2301921,1,0,0
1278,2301931,1,0,0
1279,2301941,1,0,0
1280,2301951,0,0,0
1281,2301961,1,0,0
1282,2301971,0,0,0
1283,2301981,1,0,0
1284,2301991,1,0,0
1285,2302001,1,-1,0
1286,2302011,1,0,0
1287,2302021,1,0,0
1288,2302031,1,0,0
1289,2302041,0,0,0
1290,2302051,0,0,0
1291,2302061,1,0,0
1292,2302071,1,0,0
1293,2302081,1,-1,0
1294,2302091,1,0,0
1295,2302101,1,0,0
1296,2302111,1,0,0
1297,2302121,1,0,0
1298,2302131,1,0,0
1299,2302141,1,0,0
1300,2302151,1,0,0
1301,2302161,1,0,0
1302,2302171,1,0,0
1303,2302181,1,0,0
1304,2302191,1,0,0
1305,2302201,1,0,0
1306,2302211,1,0,0
1307,2302221,1,0,0
1308,2302231,1,0,0
1309,2302241,1,0,0
1310,2302251,1,0,0
1311,2302261,1,0,0
1312,2302271,1,0,0
1313,2302281,1,0,0
1314,2302291,1,1,0
1315,2302301,1,0,0
1316,2302311,1,0,0
1317,2302321,1,0,0
1318,2302331,1,0,0
1319,2302341,1,0,0
1320,2302351,1,0,0
1321,2302361,0,0,0
1322,2302371,1,0,0
1323,2302381,1,0,0
1324,2302391,1,0,0
1325,2302401,1,0,0
1326,2302411,1,0,0
1327,2302421,1,0,0
1328,2302431,1,0,0
1329,2302441,1,0,0
1330,2302451,1,0,0
1331,2302461,1,0,0
1332,2302471,1,0,0
1333,2302481,1,0,0
1334,2302491,1,0,0
1335,2302501,1,0,0
1336,2302511,1,-1,0
1337,2302521,1,-1,0
1338,2302531,1,0,0
1339,2302541,1,0,0
1340,2302551,1,0,0
1341,2302561,1,0,0
1342,2302571,1,-1,0
1343,2302581,1,-1,0
1344,2302591,1,-1,0
1345,2302601,1,-1,0
1346,2302611,1,-1,0
1347,2302621,1,-1,0
1348,2302631,1,-1,0
1349,2302641,1,-1,0
1350,2302651,1,-1,0
1351,2302661,1,-1,0
1352,2302671,1,-1,0
1353,2302681,1,-1,0
1354,2302691,1,0,0
1355,2302701,1,0,0
1356,2302711,1,0,0
1357,2302721,1,0,0
1358,2302731,1,0,0
1359,2302741,1,0,0
1360,2302751,1,0,0
1361,2302761,1,0,0
1362,2302771,1,0,0
1363,2302781,1,0,0
1364,2302791,1,0,0
1365,2302801,1,0,0
1366,2302811,1,0,0
1367,2302821,1,0,0
1368,2302831,1,0,0
1369,2302841,1,0,0
1370,2302851,1,0,0
1371,2302861,1,0,0
1372,2302871,1,0,0
1373,2302881,1,0,0
1374,2302891,1,0,0
1375,2302901,1,0,0
1376,2302911,1,0,0
1377,2302921,1,0,0
1378,2302931,1,0,0
1379,2302941,1,0,0
1380,2302951,1,0,0
1381,2302961,1,0,0
1382,2302971,1,0,0
1383,2302981,1,0,0
1384,2302991,1,0,0
1385,2303001,1,0,0
1386,2303011,1,0,0
1387,2303021,1,0,0
1388,2303031,1,1,0
1389,2303041,1,0,0
1390,2303051,1,0,0
1391,2303061,1,0,0
1392,2303071,1,0,0
1393,2303081,1,0,0
1394,2303091,1,0,0
1395,2303101,1,0,0
1396,2303111,1,0,0
1397,2303121,1,0,0
1398,2303131,1,0,0
1399,2303141,1,0,0
1400,2303151,1,0,0
1401,2303161,1,0,0
1402,2303171,1,0,0
1403,2303181,1,0,0
1404,2303191,1,0,0
1405,2303201,1,-1,0
1406,2303211,1,0,0
1407,2303221,1,0,0
1408,2303231,1,0,0
1409,2303241,1,0,0
1410,2303251,1,0,0
1411,2303261,1,0,0
1412,2303271,1,0,0
1413,2303281,1,0,0
1414,2303291,1,0,0
1415,2303301,1,0,0
1416,2303311,1,0,0
1417,2303321,1,0,0
1418,2303331,1,0,0
1419,2303341,1,0,0
1420,2303351,1,0,0
1421,2303361,1,0,0
1422,2303371,0,0,0
1423,2303381,0,0,0
1424,2303391,0,0,0
1425,2303401,1,0,0
1426,2303411,1,0,0
1427,2303421,1,0,0
1428,2303431,1,0,0
1429,2303441,1,0,0
1430,2303451,1,0,0
1431,2303461,1,0,0
1432,2303471,1,0,0
1433,2303481,1,0,0
1434,2303491,1,0,0
1435,2303501,1,0,0
1436,2303511,1,0,0
1437,2303521,1,0,0
1438,2303531,1,0,0
1439,2303541,1,0,0
1440,2303551,0,0,0
1441,2303561,1,0,0
1442,2303571,1,0,0
1443,2303581,1,0,0
1444,2303591,1,0,0
1445,2303601,1,-1,0
1446,2303611,1,0,0
1447,2303621,1,0,0
1448,2303631,1,-1,0
1449,2303641,1,-1,0
1450,2303651,1,0,0
1451,2303661,1,-1,0
1452,2303671,1,-1,0
1453,2303681,1,-1,0
1454,2303691,1,0,0
1455,2303701,0,-1,0
1456,2303711,1,0,0
1457,2303721,0,0,0
1458,2303731,1,0,0
1459,2303741,1,0,0
1460,2303751,1,-1,0
1461,2303761,1,-1,0
1462,2303771,1,0,0
1463,2303781,1,0,0
1464,2303791,0,-1,0
1465,2303801,0,0,0
1466,2303811,1,-1,0
1467,2303821,1,-1,0
1468,2303831,1,-1,0
1469,2303841,1,0,0
1470,2303851,1,0,0
1471,2303861,1,0,0
1472,2303871,1,0,0
1473,2303881,1,0,0
1474,2303891,1,0,0
1475,2303901,1,0,0
1476,2303911,0,0,0
1477,2303921,0,0,0
1478,2303931,0,0,0
1479,2303941,1,0,0
1480,2303951,1,0,0
1481,2303961,1,0,0
1482,2303971,1,0,0
1483,2303981,1,0,0
1484,2303991,1,0,0
1485,2304001,1,0,0
1486,2304011,1,0,0
1487,2304021,1,0,0
1488,2304031,1,0,0
1489,2304041,1,0,0
1490,2304051,1,0,0
1491,2304061,1,0,0
1492,2304071,1,0,0
1493,2304081,1,0,0
1494,2304091,1,0,0
1495,2304101,1,0,0
1496,2304111,1,0,0
1497,2304121,1,0,0
1498,2304131,1,0,0
1499,2304141,1,0,0
1500,2304151,1,0,0
1501,2304161,1,0,0
1502,2304171,0,0,0
1503,2304181,1,0,0
1504,2304191,0,0,0
1505,2304201,1,0,0
1506,2304211,1,0,0
1507,2304221,1,0,0
1508,2304231,0,0,0
1509,2304241,1,0,0
1510,2304251,1,0,0
1511,2304261,0,-1,0
1512,2304271,1,0,0
1513,2304281,0,-1,0
1514,2304291,1,0,0
1515,2304301,1,0,0
1516,2304311,1,0,0
1517,2304321,1,0,0
1518,2304331,1,0,0
1519,2304341,1,0,0
1520,2304351,1,-1,0
1521,2304361,1,-1,0
1522,2304371,1,-1,0
1523,2304381,0,-1,0
1524,2304391,1,0,0
1525,2304401,0,0,0
1526,2304411,1,-1,0
1527,2304421,1,0,0
1528,2304431,1,0,0
1529,2304441,1,0,0
1530,2304451,1,-1,0
1531,2304461,1,0,0
1532,2304471,1,0,0
1533,2304481,1,-1,0
1534,2304491,1,0,0
1535,2304501,1,0,0
1536,2304511,1,0,0
1537,2304521,1,0,0
1538,2304531,1,0,0
1539,2304541,1,0,0
1540,2304551,1,0,0
1541,2304561,1,0,0
1542,2304571,1,0,0
1543,2304581,1,0,0
1544,2304591,1,0,0
1545,2304601,0,0,0
1546,2304611,1,0,0
1547,2304621,1,0,0
1548,2304631,1,0,0
1549,2304641,1,0,0
1550,2304651,0,0,0
1551,2304661,1,0,0
1552,2304671,1,0,0
1553,2304681,1,0,0
1554,2304691,1,0,0
1555,2304701,1,0,0
1556,2304711,1,0,0
1557,2304721,1,0,0
1558,2304731,1,0,0
1559,2304741,1,0,0
1560,2304751,1,0,0
1561,2304761,1,0,0
1562,2304771,1,0,0
1563,2304781,1,0,0
1564,2304791,1,0,0
1565,2304801,1,0,0
1566,2304811,1,0,0
1567,2304821,1,0,0
1568,2304831,1,0,0
1569,2304841,1,0,0
1570,2304851,1,0,0
1571,2304861,1,-1,0
1572,2304871,1,-1,0
1573,2304881,1,0,0
1574,2304891,1,0,0
1575,2304901,1,-1,0
1576,2304911,1,0,0
1577,2304921,1,-1,0
1578,2304931,0,-1,0
1579,2304941,1,-1,0
1580,2304951,1,0,0
1581,2304961,1,-1,0
1582,2304971,1,-1,0
1583,2304981,1,0,0
1584,2304991,1,0,0
1585,2305001,1,-1,0
1586,2305011,1,-1,0
1587,2305021,1,0,0
1588,2305031,1,-1,0
1589,2305041,1,0,0
1590,2305051,1,0,0
1591,2305061,1,0,0
1592,2305071,1,0,0
1593,2305081,1,0,0
1594,2305091,1,0,0
1595,2305101,1,0,0
1596,2305111,1,0,0
1597,2305121,1,0,0
1598,2305131,1,0,0
1599,2305141,1,0,0
1600,2305151,1,0,0
1601,2305161,1,0,0
1602,2305171,1,0,0
1603,2305181,1,0,0
1604,2305191,1,0,0
1605,2305201,1,0,0
1606,2305211,1,0,0
1607,2305221,1,0,0
1608,2305231,1,0,0
1609,2305241,1,0,0
1610,2305251,1,0,0
1611,2305261,1,0,0
1612,2305271,1,0,0
1613,2305281,1,0,0
1614,2305291,1,0,0
1615,2305301,1,0,0
1616,2305311,1,0,0
1617,2305321,1,0,0
1618,2305331,1,0,0
1619,2305341,1,0,0
1620,2305351,1,0,0
1621,2305361,1,0,0
1622,2305371,1,0,0
1623,2305381,1,0,0
1624,2305391,1,0,0
1625,2305401,1,0,0
1626,2305411,1,0,0
1627,2305421,0,0,0
1628,2305431,1,0,0
1629,2305441,1,0,0
1630,2305451,1,0,0
1631,2305461,1,0,0
1632,2305471,1,0,0
1633,2305481,1,0,0
1634,2305491,1,0,0
1635,2305501,1,0,0
1636,2305511,1,0,0
1637,2305521,1,0,0
1638,2305531,1,0,0
1639,2305541,1,0,0
1640,2305551,1,0,0
1641,2305561,1,0,0
1642,2305571,1,0,0
1643,2305581,1,0,0
1644,2305591,1,0,0
1645,2305601,1,0,0
1646,2305611,1,0,0
1647,2305621,1,0,0
1648,2305631,1,0,0
1649,2305641,1,0,0
1650,2305651,1,0,0
1651,2305661,1,0,0
1652,2305671,1,0,0
1653,2305681,1,0,0
1654,2305691,1,0,0
1655,2305701,1,0,0
1656,2305711,1,0,0
1657,2305721,1,0,0
1658,2305731,1,0,0
1659,2305741,1,0,0
1660,2305751,1,0,0
1661,2305761,1,0,0
1662,2305771,1,1,0
1663,2305781,1,0,0
1664,2305791,1,0,0
1665,2305801,1,0,0
1666,2305811,1,0,0
1667,2305821,1,0,0
1668,2305831,1,0,0
1669,2305841,1,0,0
1670,2305851,1,0,0
1671,2305861,1,0,0
1672,2305871,1,0,0
1673,2305881,1,0,0
1674,2305891,1,0,0
1675,2305901,1,0,0
1676,2305911,1,0,0
1677,2305921,1,0,0
1678,2305931,1,0,0
1679,2305941,1,0,0
1680,2305951,1,0,0
1681,2305961,1,0,0
1682,2305971,1,0,0
1683,2305981,0,0,0
1684,2305991,0,0,0
1685,2306001,1,0,0
1686,2306011,1,0,0
1687,2306021,1,0,0
1688,2306031,1,0,0
1689,2306041,1,0,0
1690,2306051,1,0,0
1691,2306061,1,0,0
1692,2306071,1,0,0
1693,2306081,1,0,0
1694,2306091,1,0,0
1695,2306101,1,-1,0
1696,2306111,1,0,0
1697,2306121,1,0,0
1698,2306131,1,0,0
1699,2306141,1,-1,0
1700,2306151,1,0,0
1701,2306161,1,0,0
1702,2306171,1,0,0
1703,2306181,1,0,0
1704,2306191,1,0,0
1705,2306201,1,0,0
1706,2306211,1,0,0
1707,2306221,1,0,0
1708,2306231,1,0,0
1709,2306241,1,0,0
1710,2306251,1,0,0
1711,2306261,1,0,0
1712,2306271,1,0,0
1713,2306281,1,0,0
1714,2306291,1,0,0
1715,2306301,1,0,0
1716,2306311,1,0,0
1717,2306321,1,0,0
1718,2306331,1,0,0
1719,2306341,1,0,0
1720,2306351,1,0,0
1721,2306361,1,0,0
1722,2306371,1,0,0
1723,2306381,1,0,0
1724,2306391,1,0,0
1725,2306401,1,0,0
1726,2306411,1,0,0
1727,2306421,1,0,0
1728,2306431,1,0,0
1729,2306441,1,0,0
1730,2306451,1,0,0
1731,2306461,1,0,0
1732,2306471,1,0,0
1733,2306481,1,0,0
1734,2306491,1,0,0
1735,2306501,1,0,0
1736,2306511,1,0,0
1737,2306521,1,0,0
1738,2306531,1,0,0
1739,2306541,1,0,0
1740,2306551,1,0,0
1741,2306561,1,0,0
1742,2306571,1,0,0
1743,2306581,1,0,0
1744,2306591,1,0,0
1745,2306601,1,0,0
1746,2306611,1,0,0
1747,2306621,1,0,0
1748,2306631,1,0,0
1749,2306641,1,0,0
1750,2306651,1,0,0
1751,2306661,1,0,0
1752,2306671,1,0,0
1753,2306681,1,0,0
1754,2306691,1,0,0
1755,2306701,1,0,0
1756,2306711,1,0,0
1757,2306721,1,0,0
1758,2306731,1,0,0
1759,2306741,1,0,0
1760,2306751,1,0,0
1761,2306761,1,0,0
1762,2306771,1,0,0
1763,2306781,1,0,0
1764,2306791,1,0,0
1765,2306801,1,0,0
1766,2306811,1,0,0
1767,2306821,1,-1,0
1768,2306831,1,0,0
1769,2306841,1,0,0
1770,2306851,1,0,0
1771,2306861,1,-1,0
1772,2306871,1,-1,0
1773,2306881,1,0,0
1774,2306891,1,0,0
1775,2306901,1,0,0
1776,2306911,1,0,0
1777,2306921,1,-1,0
1778,2306931,1,-1,0
1779,2306941,0,-1,0
1780,2306951,0,-1,0
1781,2306961,1,0,0
1782,2306971,1,-1,0
1783,2306981,1,-1,0
1784,2306991,1,0,0
1785,2307001,1,0,0
1786,2307011,1,0,0
1787,2307021,1,0,0
1788,2307031,1,0,0
1789,2307041,1,0,0
1790,2307051,1,0,0
1791,2307061,1,0,0
1792,2307071,1,0,0
1793,2307081,1,0,0
1794,2307091,1,0,0
1795,2307101,1,0,0
1796,2307111,0,0,0
1797,2307121,1,0,0
1798,2307131,1,0,0
1799,2307141,1,0,0
1800,2307151,1,0,0
1801,2307161,1,0,0
1802,2307171,1,0,0
1803,2307181,1,0,0
1804,2307191,0,0,0
1805,2307201,1,0,0
1806,2307211,1,0,0
1807,2307221,1,0,0
1808,2307231,1,0,0
1809,2307241,1,0,0
1810,2307251,1,0,0
1811,2307261,1,0,0
1812,2307271,1,0,0
1813,2307281,1,0,0
1814,2307291,1,0,0
1815,2307301,1,0,0
1816,2307311,1,0,0
1817,2307321,1,0,0
1818,2307331,1,0,0
1819,2307341,1,0,0
1820,2307351,1,0,0
1821,2307361,1,0,0
1822,2307371,1,0,0
1823,2307381,1,0,0
1824,2307391,1,-1,0
1825,2307401,1,-1,0
1826,2307411,1,-1,0
1827,2307421,1,-1,0
1828,2307431,1,-1,0
1829,2307441,1,-1,0
1830,2307451,1,-1,0
1831,2307461,1,-1,0
1832,2307471,1,-1,0
1833,2307481,1,-1,0
1834,2307491,1,-1,0
1835,2307501,1,-1,0
1836,2307511,1,-1,0
1837,2307521,1,-1,0
1838,2307531,1,-1,0
1839,2307541,1,0,0
1840,2307551,1,0,0
1841,2307561,1,0,0
1842,2307571,1,-1,0
1843,2307581,1,0,0
1844,2307591,1,0,0
1845,2307601,1,0,0
1846,2307611,1,0,0
1847,2307621,1,0,0
1848,2307631,1,0,0
1849,2307641,1,0,0
1850,2307651,1,0,0
1851,2307661,1,0,0
1852,2307671,1,0,0
1853,2307681,1,0,0
1854,2307691,1,0,0
1855,2307701,1,0,0
1856,2307711,1,0,0
1857,2307721,1,0,0
1858,2307731,1,0,0
1859,2307741,1,0,0
1860,2307751,1,0,0
1861,2307761,1,0,0
1862,2307771,1,0,0
1863,2307781,1,0,0
1864,2307791,1,0,0
1865,2307801,1,0,0
1866,2307811,1,0,0
1867,2307821,1,0,0
1868,2307831,1,0,0
1869,2307841,1,0,0
1870,2307851,1,0,0
1871,2307861,1,0,0
1872,2307871,1,0,0
1873,2307881,1,0,0
1874,2307891,1,0,0
1875,2307901,1,0,0
1876,2307911,1,0,0
1877,2307921,1,0,0
1878,2307931,1,0,0
1879,2307941,1,0,0
1880,2307951,1,0,0
1881,2307961,1,0,0
1882,2307971,1,0,0
1883,2307981,1,0,0
1884,2307991,1,0,0
1885,2308001,1,0,0
1886,2308011,1,0,0
1887,2308021,1,0,0
1888,2308031,1,0,0
1889,2308041,1,0,0
1890,2308051,1,0,0
1891,2308061,1,0,0
1892,2308071,1,0,0
1893,2308081,1,0,0
1894,2308091,1,0,0
1895,2308101,1,0,0
1896,2308111,1,0,0
1897,2308121,1,0,0
1898,2308131,1,0,0
1899,2308141,1,0,0
1900,2308151,1,0,0
1901,2308161,0,0,0
1902,2308171,1,0,0
1903,2308181,1,0,0
1904,2308191,1,0,0
1905,2308201,1,0,0
1906,2308211,1,0,0
1907,2308221,1,0,0
1908,2308231,1,0,0
1909,2308241,1,0,0
1910,2308251,1,0,0
1911,2308261,1,0,0
1912,2308271,1,0,0
1913,2308281,1,0,0
1914,2308291,1,0,0
1915,2308301,1,0,0
1916,2308311,1,0,0
1917,2308321,1,0,0
1918,2308331,1,0,0
1919,2308341,1,0,0
1920,2308351,1,0,0
1921,2308361,1,0,0
1922,2308371,1,0,0
1923,2308381,1,0,0
1924,2308391,1,0,0
1925,2308401,1,0,0
1926,2308411,1,0,0
1927,2308421,1,0,0
1928,2308431,1,0,0
1929,2308441,1,0,0
1930,2308451,1,0,0
1931,2308461,1,0,0
1932,2308471,1,0,0
1933,2308481,1,0,0
1934,2308491,1,0,0
1935,2308501,1,0,0
1936,2308511,1,0,0
1937,2308521,1,0,0
1938,2308531,1,0,0
1939,2308541,1,0,0
1940,2308551,1,0,0
1941,2308561,1,0,0
1942,2308571,1,0,0
1943,2308581,1,0,0
1944,2308591,1,0,0
1945,2308601,1,0,0
1946,2308611,1,0,0
1947,2308621,1,0,0
1948,2308631,1,0,0
1949,2308641,1,0,0
1950,2308651,1,0,0
1951,2308661,1,0,0
1952,2308671,1,0,0
1953,2308681,1,0,0
1954,2308691,1,-1,0
1955,2308701,1,-1,0
1956,2308711,1,0,0
1957,2308721,1,0,0
1958,2308731,1,0,0
1959,2308741,1,0,0
1960,2308751,1,-1,0
1961,2308761,1,0,0
1962,2308771,1,-1,0
1963,2308781,1,-1,0
1964,2308791,1,0,0
1965,2308801,1,-1,0
1966,2308811,1,-1,0
1967,2308821,1,0,0
1968,2308831,1,-1,0
1969,2308841,1,0,0
1970,2308851,1,0,0
1971,2308861,1,-1,0
1972,2308871,1,-1,0
1973,2308881,1,-1,0
1974,2308891,1,0,0
1975,2308901,1,-1,0
1976,2308911,1,-1,0
1977,2308921,1,0,0
1978,2308931,1,0,0
1979,2308941,1,0,0
1980,2308951,1,0,0
1981,2308961,1,0,0
1982,2308971,1,0,0
1983,2308981,1,0,0
1984,2308991,1,0,0
1985,2309001,1,0,0
1986,2309011,1,0,0
1987,2309021,1,0,0
1988,2309031,1,0,0
1989,2309041,1,0,0
1990,2309051,1,0,0
1991,2309061,1,0,0
1992,2309071,1,0,0
1993,2309081,1,0,0
1994,2309091,1,0,0
1995,2309101,1,0,0
1996,2309111,1,0,0
1997,2309121,1,0,0
1998,2309131,1,0,0
1999,2309141,1,0,0
2000,2309151,1,0,0
2001,2309161,1,0,0
2002,2309171,1,0,0
2003,2309181,1,0,0
2004,2309191,1,0,0
2005,2309201,1,0,0
2006,2309211,1,0,0
2007,2309221,1,0,0
2008,2309231,1,0,0
2009,2309241,1,0,0
2010,2309251,1,0,0
2011,2309261,1,0,0
2012,2309271,1,0,0
2013,2309281,1,0,0
2014,2309291,1,0,0
2015,2309301,1,0,0
2016,2309311,1,-1,0
2017,2309321,1,0,0
2018,2309331,1,-1,0
2019,2309341,1,0,0
2020,2309351,1,-1,0
2021,2309361,1,-1,0
2022,2309371,1,0,0
2023,2309381,1,-1,0
2024,2309391,1,0,0
2025,2309401,1,-1,0
2026,2309411,1,-1,0
2027,2309421,1,-1,0
2028,2309431,1,0,0
2029,2309441,1,-1,0
2030,2309451,0,0,0
2031,2309461,1,0,0
2032,2309471,0,0,0
2033,2309481,1,0,0
2034,2309491,1,0,0
2035,2309501,1,0,0
2036,2309511,1,0,0
2037,2309521,1,0,0
2038,2309531,1,0,0
2039,2309541,1,0,0
2040,2309551,1,0,0
2041,2309561,1,0,0
2042,2309571,1,0,0
2043,2309581,1,0,0
2044,2309591,1,0,0
2045,2309601,1,0,0
2046,2309611,0,0,0
2047,2309621,1,0,0
2048,2309631,1,0,0
2049,2309641,1,0,0
2050,2309651,1,0,0
2051,2309661,1,0,0
2052,2309671,1,0,0
2053,2309681,1,0,0
2054,2309691,1,0,0
2055,2309701,1,0,0
2056,2309711,1,0,0
2057,2309721,1,0,0
2058,2309731,1,0,0
2059,2309741,1,0,0
2060,2309751,1,0,0
2061,2309761,1,0,0
2062,2309771,1,0,0
2063,2309781,1,0,0
2064,2309791,1,0,0
2065,2309801,1,0,0
2066,2309811,1,0,0
2067,2309821,1,0,0
2068,2309831,1,0,0
2069,2309841,1,0,0
2070,2309851,1,0,0
2071,2309861,1,0,0
2072,2309871,1,0,0
2073,2309881,1,0,0
2074,2309891,1,0,0
2075,2309901,1,0,0
2076,2309911,1,0,0
2077,2309921,1,0,0
2078,2309931,1,0,0
2079,2309941,0,0,0
2080,2309951,1,0,0
2081,2309961,1,0,0
2082,2309971,1,0,0
2083,2309981,1,0,0
2084,2309991,1,0,0
2085,2310001,1,0,0
2086,2310011,1,0,0
2087,2310021,1,0,0
2088,2310031,1,0,0
2089,2310041,1,0,0
2090,2310051,1,0,0
2091,2310061,1,0,0
2092,2310071,1,0,0
2093,2310081,1,0,0
2094,2310091,1,0,0
2095,2310101,1,0,0
2096,2310111,1,0,0
2097,2310121,1,0,0
2098,2310131,0,0,0
2099,2310141,1,0,0
2100,2310151,1,0,0
2101,2310161,1,0,0
2102,2310171,1,0,0
2103,2310181,1,0,0
2104,2310191,1,0,0
2105,2310201,1,0,0
2106,2310211,1,0,0
2107,2310221,1,0,0
2108,2310231,1,0,0
2109,2310241,1,0,0
2110,2310251,1,0,0
2111,2310261,1,0,0
2112,2310271,1,0,0
2113,2310281,1,0,0
2114,2310291,1,0,0
2115,2310301,1,0,0
2116,2310311,1,0,0
2117,2310321,1,0,0
2118,2310331,1,0,0
2119,2310341,1,0,0
2120,2310351,1,0,0
2121,2310361,1,0,0
2122,2310371,1,0,0
2123,2310381,1,0,0
2124,2310391,1,0,0
2125,2310401,1,0,0
2126,2310411,1,0,0
2127,2310421,1,0,0
2128,2310431,1,0,0
2129,2310441,1,0,0
2130,2310451,1,0,0
2131,2310461,1,0,0
2132,2310471,1,0,0
2133,2310481,1,0,0
2134,2310491,1,0,0
2135,2310501,1,0,0
2136,2310511,1,0,0
2137,2310521,1,0,0
2138,2310531,1,0,0
2139,2310541,1,0,0
2140,2310551,1,0,0
2141,2310561,1,0,0
2142,2310571,1,0,0
2143,2310581,1,0,0
2144,2310591,1,0,0
2145,2310601,1,0,0
2146,2310611,1,0,0
2147,2310621,1,-1,0
2148,2310631,1,0,0
2149,2310641,1,0,0
2150,2310651,1,0,0
2151,2310661,1,0,0
2152,2310671,1,0,0
2153,2310681,1,0,0
2154,2310691,1,0,0
2155,2310701,1,0,0
2156,2310711,1,0,0
2157,2310721,1,0,0
2158,2310731,1,0,0
2159,2310741,1,-1,0
2160,2310751,1,0,0
2161,2310761,1,0,0
2162,2310771,1,0,0
2163,2310781,1,0,0
2164,2310791,1,0,0
2165,2310801,1,0,0
2166,2310811,1,0,0
2167,2310821,1,0,0
2168,2310831,1,0,0
2169,2310841,1,0,0
2170,2310851,1,0,0
2171,2310861,1,0,0
2172,2310871,1,0,0
2173,2310881,1,0,0
2174,2310891,1,0,0
2175,2310901,1,0,0
2176,2310911,1,0,0
2177,2310921,1,0,0
2178,2310931,1,0,0
2179,2310941,1,0,0
2180,2310951,1,0,0
2181,2310961,1,0,0
2182,2310971,1,0,0
2183,2310981,1,0,0
2184,2310991,1,0,0
2185,2311001,1,0,0
2186,2311011,0,0,0
2187,2311021,1,0,0
2188,2311031,0,0,0
2189,2311041,1,0,0
2190,2311051,1,0,0
2191,2311061,1,0,0
2192,2311071,1,0,0
2193,2311081,0,0,0
2194,2311091,1,0,0
2195,2311101,1,0,0
2196,2311111,1,0,0
2197,2311121,1,0,0
2198,2311131,1,0,0
2199,2311141,0,0,0
2200,2311151,0,0,0
2201,2311161,1,0,0
2202,2311171,1,0,0
2203,2311181,1,0,0
2204,2311191,1,0,0
2205,2311201,1,0,0
2206,2311211,1,0,0
2207,2311221,1,0,0
2208,2311231,1,0,0
2209,2311241,1,0,0
2210,2311251,1,0,0
2211,2311261,0,0,0
2212,2311271,1,0,0
2213,2311281,1,0,0
2214,2311291,1,0,0
2215,2311301,1,0,0
2216,2311311,0,0,0
2217,2311321,1,0,0
2218,2311331,1,0,0
2219,2311341,1,0,0
2220,2311351,1,0,0
2221,2311361,1,0,0
2222,2311371,0,0,0
2223,2311381,1,0,0
2224,2311391,1,0,0
2225,2311401,0,0,0
2226,2311411,1,0,0
2227,2311421,1,0,0
2228,2311431,1,0,0
2229,2311441,1,0,0
2230,2311451,1,0,0
2231,2311461,1,0,0
2232,2311471,1,0,0
2233,2311481,1,0,0
2234,2311491,1,0,0
2235,2311501,1,0,0
2236,2311511,1,0,0
2237,2311521,1,0,0
2238,2311531,1,0,0
2239,2311541,1,0,0
2240,2311551,1,0,0
2241,2311561,1,0,0
2242,2311571,1,0,0
2243,2311581,1,0,0
2244,2311591,1,0,0
2245,2311601,1,0,0
2246,2311611,1,0,0
2247,2311621,1,0,0
2248,2311631,1,0,0
2249,2311641,1,0,0
2250,2311651,1,0,0
2251,2311661,1,0,0
2252,2311671,1,0,0
2253,2311681,1,0,0
2254,2311691,1,0,0
2255,2311701,1,0,0
2256,2311711,1,0,0
2257,2311721,1,0,0
2258,2311731,1,0,0
2259,2311741,1,0,0
2260,2311751,0,0,0
2261,2311761,1,0,0
2262,2311771,1,0,0
2263,2311781,1,0,0
2264,2311791,1,0,0
2265,2311801,1,0,0
2266,2311811,1,0,0
2267,2311821,1,0,0
2268,2311831,1,0,0
2269,2311841,1,0,0
2270,2311851,1,0,0
2271,2311861,1,0,0
2272,2311871,1,0,0
2273,2311881,1,0,0
2274,2311891,1,0,0
2275,2311901,1,0,0
2276,2311911,1,0,0
2277,2311921,1,0,0
2278,2311931,1,0,0
2279,2311941,1,0,0
2280,2311951,1,0,0
2281,2311961,1,0,0
2282,2311971,1,0,0
2283,2311981,1,0,0
2284,2311991,1,0,0
2285,2312001,1,0,0
2286,2312011,1,0,0
2287,2312021,1,0,0
2288,2312031,1,0,0
2289,2312041,1,0,0
2290,2312051,1,0,0
2291,2312061,1,0,0
2292,2312071,0,0,0
2293,2312081,1,0,0
2294,2312091,1,0,0
2295,2312101,1,0,0
2296,2312111,1,0,0
2297,2312121,1,1,0
2298,2312131,1,1,0
2299,2312141,1,1,0
2300,2312151,1,0,0
2301,2312161,0,1,0
2302,2312171,1,0,0
2303,2312181,1,0,0
2304,2312191,1,0,0
2305,2312201,1,0,0
2306,2312211,1,0,0
2307,2312221,1,0,0
2308,2312231,1,0,0
2309,2312241,1,0,0
2310,2312251,1,0,0
2311,2312261,1,0,0
2312,2312271,1,0,0
2313,2312281,1,0,0
2314,2312291,1,0,0
2315,2312301,1,0,0
2316,2312311,1,0,0
2317,2312321,1,0,0
2318,2312331,1,0,0
2319,2312341,1,0,0
2320,2312351,0,0,0
2321,2312361,1,0,0
2322,2312371,0,0,0
2323,2312381,0,0,0
2324,2312391,1,0,0
2325,2312401,1,0,0
2326,2312411,1,0,0
2327,2312421,1,0,0
2328,2312431,1,0,0
2329,2312441,1,0,0
2330,2312451,1,0,0
2331,2312461,0,0,0
2332,2312471,1,0,0
2333,2312481,1,0,0
2334,2312491,1,0,0
2335,2312501,1,0,0
2336,2312511,1,0,0
2337,2312521,1,0,0
2338,2312531,1,0,0
2339,2312541,1,0,0
2340,2312551,0,0,0
2341,2312561,0,0,0
2342,2312571,0,0,0
2343,2312581,1,0,0
2344,2312591,1,0,0
2345,2312601,1,0,0
2346,2312611,1,0,0
2347,2312621,1,0,0
2348,2312631,1,0,0
2349,2312641,0,0,0
2350,2312651,1,0,0
2351,2312661,1,0,0
2352,2312671,1,0,0
2353,2312681,1,0,0
2354,2312691,1,0,0
2355,2312701,1,0,0
2356,2312711,1,0,0
2357,2312721,1,0,0
2358,2312731,1,0,0
2359,2312741,1,0,0
2360,2312751,1,0,0
2361,2312761,1,0,0
2362,2312771,0,0,0
2363,2312781,1,0,0
2364,2312791,1,0,0
2365,2312801,1,0,0
2366,2312811,1,0,0
2367,2312821,0,0,0
2368,2312831,0,0,0
2369,2312841,1,0,0
2370,2312851,1,0,0
2371,2312861,1,0,0
2372,2312871,1,0,0
2373,2312881,1,0,0
2374,2312891,0,0,0
2375,2312901,1,0,0
2376,2312911,1,0,0
2377,2312921,1,0,0
2378,2312931,1,0,0
2379,2312941,1,0,0
2380,2312951,1,0,0
2381,2312961,1,0,0
2382,2312971,1,0,0
2383,2312981,1,0,0
2384,2312991,1,0,0
2385,2313001,1,0,0
2386,2313011,1,0,0
2387,2313021,1,0,0
2388,2313031,1,0,0
2389,2313041,1,0,0
2390,2313051,1,0,0
2391,2313061,1,0,0
2392,2313071,1,0,0
2393,2313081,1,0,0
2394,2313091,1,0,0
2395,2313101,1,0,0
2396,2313111,1,0,0
2397,2313121,1,0,0
2398,2313131,1,0,0
2399,2313141,1,0,0
2400,2313151,1,0,0
2401,2313161,1,0,0
2402,2313171,1,0,0
2403,2313181,1,0,0
2404,2313191,1,0,0
2405,2313201,1,0,0
2406,2313211,1,0,0
2407,2313221,1,0,0
2408,2313231,1,0,0
2409,2313241,1,0,0
2410,2313251,1,0,0
2411,2313261,1,0,0
2412,2313271,0,0,0
2413,2313281,1,0,0
2414,2313291,1,0,0
2415,2313301,1,0,0
2416,2313311,1,0,0
2417,2313321,1,0,0
2418,2313331,1,0,0
2419,2313341,1,0,0
2420,2313351,1,0,0
2421,2313361,1,0,0
2422,2313371,1,0,0
2423,2313381,1,0,0
2424,2313391,1,0,0
2425,2313401,1,0,0
2426,2313411,1,0,0
2427,2313421,1,0,0
2428,2313431,1,0,0
2429,2313441,0,0,0
2430,2313451,0,0,0
2431,2313461,1,0,0
2432,2313471,1,0,0
2433,2313481,1,0,0
2434,2313491,1,0,0
2435,2313501,0,0,0
2436,2313511,0,0,0
2437,2313521,0,0,0
2438,2313531,0,0,0
2439,2313541,1,0,0
2440,2313551,1,0,0
2441,2313561,1,0,0
2442,2313571,1,0,0
2443,2313581,1,0,0
2444,2313591,1,0,0
2445,2313601,1,0,0
2446,2313611,1,0,0
2447,2313621,0,1,0
2448,2313631,1,0,0
2449,2313641,1,0,0
2450,2313651,1,0,0
2451,2313661,1,0,0
2452,2313671,1,0,0
2453,2313681,1,0,0
2454,2313691,1,0,0
2455,2313701,1,0,0
2456,2313711,0,0,0
2457,2313721,1,0,0
2458,2313731,1,0,0
2459,2313741,1,0,0
2460,2313751,1,0,0
2461,2313761,1,0,0
2462,2313771,1,0,0
2463,2313781,1,0,0
2464,2313791,1,0,0
2465,2313801,1,0,0
2466,2313811,1,0,0
2467,2313821,0,0,0
2468,2313831,1,0,0
2469,2313841,1,0,0
2470,2313851,1,0,0
2471,2313861,1,0,0
2472,2313871,1,0,0
2473,2313881,1,0,0
2474,2313891,1,0,0
2475,2313901,1,0,0
2476,2313911,1,0,0
2477,2313921,1,0,0
2478,2313931,1,0,0
2479,2313941,1,0,0
2480,2313951,1,0,0
2481,2313961,1,0,0
2482,2313971,1,0,0
2483,2313981,1,0,0
2484,2313991,1,0,0
2485,2314001,1,0,0
2486,2314011,1,0,0
2487,2314021,1,0,0
2488,2314031,1,-1,0
2489,2314041,1,0,0
2490,2314051,1,-1,0
2491,2314061,1,-1,0
2492,2314071,1,-1,0
2493,2314081,1,0,0
2494,2314091,1,0,0
2495,2314101,1,-1,0
2496,2314111,1,0,0
2497,2314121,1,0,0
2498,2314131,1,0,0
2499,2314141,1,-1,0
2500,2314151,1,-1,0
2501,2314161,1,0,0
2502,2314171,1,-1,0
2503,2314181,1,-1,0
2504,2314191,1,-1,0
2505,2314201,1,0,0
2506,2314211,1,-1,0
2507,2314221,1,0,0
2508,2314231,1,0,0
2509,2314241,1,0,0
2510,2314251,1,0,0
2511,2314261,1,-1,0
2512,2314271,1,-1,0
2513,2314281,1,0,0
2514,2314291,1,0,0
2515,2314301,1,0,0
2516,2314311,1,0,0
2517,2314321,1,0,0
2518,2314331,1,0,0
2519,2314341,1,0,0
2520,2314351,1,0,0
2521,2314361,1,-1,0
2522,2314371,1,0,0
2523,2314381,1,0,0
2524,2314391,1,0,0
2525,2314401,1,0,0
2526,2314411,1,0,0
2527,2314421,1,0,0
2528,2314431,1,-1,0
2529,2314441,1,-1,0
2530,2314451,1,-1,0
2531,2314461,1,-1,0
2532,2314471,1,0,0
2533,2314481,1,0,0
2534,2314491,1,-1,0
2535,2314501,1,-1,0
2536,2314511,1,0,0
2537,2314521,1,0,0
2538,2314531,1,0,0
2539,2314541,1,0,0
2540,2314551,1,-1,0
2541,2314561,1,0,0
2542,2314571,1,0,0
2543,2314581,1,0,0
2544,2314591,1,0,0
2545,2314601,1,0,0
2546,2314611,1,0,0
2547,2314621,1,0,0
2548,2314631,1,0,0
2549,2314641,1,0,0
2550,2314651,1,0,0
2551,2314661,1,0,0
2552,2314671,1,0,0
2553,2314681,1,1,0
2554,2314691,1,0,0
2555,2314701,1,0,0
2556,2314711,1,0,0
2557,2314721,1,0,0
2558,2314731,1,0,0
2559,2314741,1,0,0
2560,2314751,1,1,0
2561,2314761,1,1,0
2562,2314771,1,1,0
2563,2314781,1,1,0
2564,2314791,1,1,0
2565,2314801,1,0,0
2566,2314811,0,0,0
2567,2314821,0,0,0
2568,2314831,1,0,0
2569,2314841,1,0,0
2570,2314851,1,0,0
2571,2314861,1,0,0
2572,2314871,1,1,0
2573,2314881,1,0,0
2574,2314891,1,0,0
2575,2314901,1,1,0
2576,2314911,1,0,0
2577,2314921,1,1,0
2578,2314931,1,0,0
2579,2314941,1,0,0
2580,2314951,1,1,0
2581,2314961,1,1,0
2582,2314971,1,0,0
2583,2314981,1,0,0
2584,2314991,1,0,0
2585,2315001,1,0,0
2586,2315011,1,0,0
2587,2315021,1,0,0
2588,2315031,1,0,0
2589,2315041,1,1,0
2590,2315051,1,0,0
2591,2315061,1,0,0
2592,2315071,1,0,0
2593,2315081,1,0,0
2594,2315091,0,0,0
2595,2315101,1,0,0
2596,2315111,1,0,0
2597,2315121,1,0,0
2598,2315131,1,0,0
2599,2315141,1,0,0
2600,2315151,1,0,0
2601,2315161,1,0,0
2602,2315171,1,0,0
2603,2315181,1,0,0
2604,2315191,1,0,0
2605,2315201,1,0,0
2606,2315211,1,0,0
2607,2315221,1,0,0
2608,2315231,1,0,0
2609,2315241,0,0,0
2610,2315251,1,0,0
2611,2315261,1,0,0
2612,2315271,1,0,0
2613,2315281,1,-1,0
2614,2315291,0,-1,0
2615,2315301,1,-1,0
2616,2315311,0,-1,0
2617,2315321,1,-1,0
2618,2315331,0,-1,0
2619,2315341,0,-1,0
2620,2315351,1,-1,0
2621,2315361,0,-1,0
2622,2315371,1,-1,0
2623,2315381,1,-1,0
2624,2315391,1,-1,0
2625,2315401,0,-1,0
2626,2315411,0,-1,0
2627,2315421,0,-1,0
2628,2315431,0,-1,0
2629,2315441,0,-1,0
2630,2315451,0,-1,0
2631,2315461,0,-1,0
2632,2315471,0,-1,0
2633,2315481,0,-1,0
2634,2315491,0,-1,0
2635,2315501,0,-1,0
2636,2315511,0,-1,0
2637,2315521,1,-1,0
2638,2315531,0,-1,0
2639,2315541,1,-1,0
2640,2315551,1,-1,0
2641,2315561,1,-1,0
2642,2315571,1,-1,0
2643,2315581,1,-1,0
2644,2315591,1,-1,0
2645,2315601,1,-1,0
2646,2315611,1,-1,0
2647,2315621,1,-1,0
2648,2315631,1,-1,0
2649,2315641,1,-1,0
2650,2315651,1,-1,0
2651,2315661,1,-1,0
2652,2315671,1,-1,0
2653,2315681,1,-1,0
2654,2315691,1,-1,0
2655,2315701,1,-1,0
2656,2315711,1,0,0
2657,2315721,0,-1,0
2658,2315731,0,-1,0
2659,2315741,0,-1,0
2660,2315751,0,-1,0
2661,2315761,0,-1,0
2662,2315771,0,0,0
2663,2315781,0,-1,0
2664,2315791,0,0,0
2665,2315801,1,-1,0
2666,2315811,1,-1,0
2667,2315821,1,0,0
2668,2315831,1,-1,0
2669,2315841,0,0,0
2670,2315851,1,0,0
2671,2315861,1,0,0
2672,2315871,1,0,0
2673,2315881,1,0,0
2674,2315891,1,0,0
2675,2315901,1,0,0
2676,2315911,1,1,0
2677,2315921,1,0,0
2678,2315931,1,0,0
2679,2315941,1,0,0
2680,2315951,1,1,0
2681,2315961,1,1,0
2682,2315971,1,1,0
2683,2315981,1,0,0
2684,2315991,1,1,0
2685,2316001,1,1,0
2686,2316011,1,1,0
2687,2316021,1,1,0
2688,2316031,0,1,0
2689,2316041,0,1,0
2690,2316051,1,1,0
2691,2316061,0,1,0
2692,2316071,0,1,0
2693,2316081,1,0,0
2694,2316091,0,1,0
2695,2316101,0,1,0
2696,2316111,1,1,0
2697,2316121,1,1,0
2698,2316131,1,1,0
2699,2316141,1,1,0
2700,2316151,1,1,0
2701,2316161,1,1,0
2702,2316171,1,1,0
2703,2316181,1,1,0
2704,2316191,1,1,0
2705,2316201,1,1,0
2706,2316211,1,1,0
2707,2316221,1,1,0
2708,2316231,1,1,0
2709,2316241,1,1,0
2710,2316251,0,1,0
2711,2316261,1,1,0
2712,2316271,0,1,0
2713,2316281,0,0,0
2714,2316291,1,1,0
2715,2316301,1,1,0
2716,2316311,0,1,0
2717,2316321,0,0,0
2718,2316331,0,1,0
2719,2316341,0,1,0
2720,2316351,1,0,0
2721,2316361,0,1,0
2722,2316371,1,1,0
2723,2316381,1,1,0
2724,2316391,1,0,0
2725,2316401,1,0,0
2726,2316411,1,0,0
2727,2316421,0,0,0
2728,2316431,1,0,0
2729,2316441,1,0,0
2730,2316451,1,0,0
2731,2316461,1,0,0
2732,2316471,1,0,0
2733,2316481,1,0,0
2734,2316491,1,-1,0
2735,2316501,1,-1,0
2736,2316511,1,0,0
2737,2316521,1,-1,0
2738,2316531,1,-1,0
2739,2316541,1,-1,0
2740,2316551,1,-1,0
2741,2316561,1,-1,0
2742,2316571,0,-1,0
2743,2316581,0,-1,0
2744,2316591,1,-1,0
2745,2316601,1,-1,0
2746,2316611,1,-1,0
2747,2316621,0,0,0
2748,2316631,0,-1,0
2749,2316641,0,-1,0
2750,2316651,0,-1,0
2751,2316661,0,-1,0
2752,2316671,0,-1,0
2753,2316681,0,0,0
2754,2316691,0,-1,0
2755,2316701,0,-1,0
2756,2316711,1,0,0
2757,2316721,1,-1,0
2758,2316731,1,-1,0
2759,2316741,1,-1,0
2760,2316751,1,-1,0
2761,2316761,1,-1,0
2762,2316771,1,0,0
2763,2316781,1,0,0
2764,2316791,1,0,0
2765,2316801,1,-1,0
2766,2316811,1,-1,0
2767,2316821,1,-1,0
2768,2316831,1,0,0
2769,2316841,1,-1,0
2770,2316851,1,-1,0
2771,2316861,1,-1,0
2772,2316871,1,-1,0
2773,2316881,1,-1,0
2774,2316891,1,-1,0
2775,2316901,1,-1,0
2776,2316911,1,-1,0
2777,2316921,1,-1,0
2778,2316931,1,-1,0
2779,2316941,1,-1,0
2780,2316951,1,-1,0
2781,2316961,0,-1,0
2782,2316971,0,-1,0
2783,2316981,1,-1,0
2784,2316991,0,-1,0
2785,2317001,0,-1,0
2786,2317011,0,-1,0
2787,2317021,0,0,0
2788,2317031,0,0,0
2789,2317041,0,0,0
2790,2317051,0,0,0
2791,2317061,0,0,0
2792,2317071,0,0,0
2793,2317081,1,0,0
2794,2317091,1,0,0
2795,2317101,1,0,0
2796,2317111,1,0,0
2797,2317121,1,0,0
2798,2317131,1,0,0
2799,2317141,1,0,0
2800,2317151,1,0,0
2801,2317161,1,0,0
2802,2317171,1,0,0
2803,2317181,1,0,0
2804,2317191,1,0,0
2805,2317201,1,0,0
2806,2317211,1,0,0
2807,2317221,1,0,0
2808,2317231,1,1,0
2809,2317241,1,0,0
2810,2317251,1,1,0
2811,2317261,1,0,0
2812,2317271,1,0,0
2813,2317281,1,1,0
2814,2317291,1,0,0
2815,2317301,1,0,0
2816,2317311,1,0,0
2817,2317321,1,0,0
2818,2317331,1,0,0
2819,2317341,1,0,0
2820,2317351,1,1,0
2821,2317361,1,0,0
2822,2317371,1,0,0
2823,2317381,1,0,0
2824,2317391,0,0,0
2825,2317401,1,0,0
2826,2317411,1,0,0
2827,2317421,0,1,0
2828,2317431,1,0,0
2829,2317441,1,0,0
2830,2317451,1,1,0
2831,2317461,1,0,0
2832,2317471,1,1,0
2833,2317481,1,0,0
2834,2317491,1,1,0
2835,2317501,1,1,0
2836,2317511,1,0,0
2837,2317521,1,0,0
2838,2317531,1,0,0
2839,2317541,1,0,0
2840,2317551,1,0,0
2841,2317561,1,0,0
2842,2317571,1,0,0
2843,2317581,1,0,0
2844,2317591,1,1,0
2845,2317601,1,0,0
2846,2317611,1,0,0
2847,2317621,1,0,0
2848,2317631,1,0,0
2849,2317641,1,0,0
2850,2317651,0,0,0
2851,2317661,0,0,0
2852,2317671,1,0,0
2853,2317681,1,0,0
2854,2317691,1,0,0
2855,2317701,1,0,0
2856,2317711,1,0,0
2857,2317721,1,0,0
2858,2317731,1,0,0
2859,2317741,1,0,0
2860,2317751,1,0,0
2861,2317761,1,0,0
2862,2317771,1,0,0
2863,2317781,1,0,0
2864,2317791,1,0,0
2865,2317801,1,0,0
2866,2317811,1,0,0
2867,2317821,1,-1,0
2868,2317831,1,0,0
2869,2317841,1,0,0
2870,2317851,1,0,0
2871,2317861,1,0,0
2872,2317871,1,0,0
2873,2317881,1,-1,0
2874,2317891,1,-1,0
2875,2317901,1,-1,0
2876,2317911,1,-1,0
2877,2317921,1,-1,0
2878,2317931,0,-1,0
2879,2317941,1,-1,0
2880,2317951,1,-1,0
2881,2317961,1,-1,0
2882,2317971,1,0,0
2883,2317981,1,-1,0
2884,2317991,1,-1,0
2885,2318001,1,-1,0
2886,2318011,1,-1,0
2887,2318021,1,-1,0
2888,2318031,1,-1,0
2889,2318041,1,-1,0
2890,2318051,1,-1,0
2891,2318061,1,-1,0
2892,2318071,1,-1,0
2893,2318081,1,-1,0
2894,2318091,1,0,0
2895,2318101,1,-1,0
2896,2318111,1,-1,0
2897,2318121,1,0,0
2898,2318131,1,-1,0
2899,2318141,1,-1,0
2900,2318151,1,-1,0
2901,2318161,1,-1,0
2902,2318171,1,-1,0
2903,2318181,1,-1,0
2904,2318191,1,0,0
2905,2318201,1,-1,0
2906,2318211,1,-1,0
2907,2318221,1,-1,0
2908,2318231,1,0,0
2909,2318241,0,0,0
2910,2318251,0,0,0
2911,2318261,1,0,0
2912,2318271,1,0,0
2913,2318281,0,0,0
2914,2318291,0,0,0
2915,2318301,1,0,0
2916,2318311,1,0,0
2917,2318321,1,0,0
2918,2318331,1,0,0
2919,2318341,1,0,0
2920,2318351,1,0,0
2921,2318361,1,0,0
2922,2318371,1,0,0
2923,2318381,1,0,0
2924,2318391,1,0,0
2925,2318401,1,0,0
2926,2318411,1,0,0
2927,2318421,1,0,0
2928,2318431,1,0,0
2929,2318441,1,0,0
2930,2318451,1,0,0
2931,2318461,1,0,0
2932,2318471,1,0,0
2933,2318481,1,0,0
2934,2318491,1,0,0
2935,2318501,1,0,0
2936,2318511,1,0,0
2937,2318521,1,0,0
2938,2318531,1,0,0
2939,2318541,1,0,0
2940,2318551,1,1,0
2941,2318561,1,0,0
2942,2318571,1,0,0
2943,2318581,1,0,0
2944,2318591,1,0,0
2945,2318601,1,1,0
2946,2318611,1,1,0
2947,2318621,1,0,0
2948,2318631,1,0,0
2949,2318641,1,1,0
2950,2318651,0,0,0
2951,2318661,0,0,0
2952,2318671,1,0,0
2953,2318681,0,0,0
2954,2318691,1,0,0
2955,2318701,1,1,0
2956,2318711,1,0,0
2957,2318721,1,0,0
2958,2318731,1,0,0
2959,2318741,1,0,0
2960,2318751,1,1,0
2961,2318761,1,0,0
2962,2318771,1,0,0
2963,2318781,1,0,0
2964,2318791,1,0,0
2965,2318801,1,0,0
2966,2318811,1,0,0
2967,2318821,1,0,0
2968,2318831,1,0,0
2969,2318841,1,0,0
2970,2318851,1,0,0
2971,2318861,1,0,0
2972,2318871,1,0,0
2973,2318881,1,0,0
2974,2318891,1,0,0
2975,2318901,1,0,0
2976,2318911,0,0,0
2977,2318921,1,0,0
2978,2318931,1,0,0
2979,2318941,1,0,0
2980,2318951,1,0,0
2981,2318961,1,0,0
2982,2318971,1,0,0
2983,2318981,0,0,0
2984,2318991,1,0,0
2985,2319001,1,0,0
2986,2319011,1,0,0
2987,2319021,1,0,0
2988,2319031,1,0,0
2989,2319041,0,0,0
2990,2319051,1,0,0
2991,2319061,1,0,0
2992,2319071,1,0,0
2993,2319081,1,0,0
2994,2319091,1,0,0
2995,2319101,1,0,0
2996,2319111,1,0,0
2997,2319121,1,0,0
2998,2319131,1,-1,0
2999,2319141,1,0,0
3000,2319151,1,0,0
3001,2319161,1,-1,0
3002,2319171,1,-1,0
3003,2319181,1,-1,0
3004,2319191,1,-1,0
3005,2319201,1,0,0
3006,2319211,1,-1,0
3007,2319221,1,-1,0
3008,2319231,1,-1,0
3009,2319241,1,-1,0
3010,2319251,1,-1,0
3011,2319261,1,-1,0
3012,2319271,1,-1,0
3013,2319281,1,0,0
3014,2319291,1,-1,0
3015,2319301,1,-1,0
3016,2319311,1,-1,0
3017,2319321,1,-1,0
3018,2319331,1,-1,0
3019,2319341,1,-1,0
3020,2319351,1,-1,0
3021,2319361,1,-1,0
3022,2319371,1,-1,0
3023,2319381,1,-1,0
3024,2319391,1,0,0
3025,2319401,1,-1,0
3026,2319411,1,0,0
3027,2319421,1,-1,0
3028,2319431,1,-1,0
3029,2319441,1,-1,0
3030,2319451,1,-1,0
3031,2319461,1,-1,0
3032,2319471,1,-1,0
3033,2319481,1,-1,0
3034,2319491,1,-1,0
3035,2319501,1,0,0
3036,2319511,1,0,0
3037,2319521,1,0,0
3038,2319531,1,0,0
3039,2319541,1,-1,0
3040,2319551,1,-1,0
3041,2319561,1,-1,0
3042,2319571,1,0,0
3043,2319581,0,0,0
3044,2319591,1,0,0
3045,2319601,1,-1,0
3046,2319611,1,-1,0
3047,2319621,1,-1,0
3048,2319631,0,0,0
3049,2319641,0,0,0
3050,2319651,0,-1,0
3051,2319661,1,0,0
3052,2319671,0,0,0
3053,2319681,1,0,0
3054,2319691,0,-1,0
3055,2319701,1,0,0
3056,2319711,0,0,0
3057,2319721,1,0,0
3058,2319731,1,0,0
3059,2319741,1,-1,0
3060,2319751,1,-1,0
3061,2319761,1,-1,0
3062,2319771,1,0,0
3063,2319781,1,-1,0
3064,2319791,1,-1,0
3065,2319801,1,0,0
3066,2319811,1,0,0
3067,2319821,1,0,0
3068,2319831,1,0,0
3069,2319841,1,0,0
3070,2319851,1,0,0
3071,2319861,1,0,0
3072,2319871,1,0,0
3073,2319881,1,0,0
3074,2319891,1,0,0
3075,2319901,1,0,0
3076,2319911,1,0,0
3077,2319921,0,0,0
3078,2319931,1,0,0
3079,2319941,1,0,0
3080,2319951,1,0,0
3081,2319961,1,0,0
3082,2319971,1,0,0
3083,2319981,1,0,0
3084,2319991,1,0,0
3085,2320001,1,0,0
3086,2320011,1,0,0
3087,2320021,1,0,0
3088,2320031,1,0,0
3089,2320041,1,0,0
3090,2320051,1,0,0
3091,2320061,0,0,0
3092,2320071,1,0,0
3093,2320081,1,0,0
3094,2320091,1,0,0
3095,2320101,1,0,0
3096,2320111,1,1,0
3097,2320121,1,0,0
3098,2320131,1,0,0
3099,2320141,1,0,0
3100,2320151,1,0,0
3101,2320161,1,0,0
3102,2320171,1,0,0
3103,2320181,1,0,0
3104,2320191,1,0,0
3105,2320201,1,0,0
3106,2320211,0,0,0
3107,2320221,1,0,0
3108,2320231,1,0,0
3109,2320241,1,0,0
3110,2320251,1,0,0
3111,2320261,1,0,0
3112,2320271,1,0,0
3113,2320281,1,0,0
3114,2320291,1,0,0
3115,2320301,1,0,0
3116,2320311,1,0,0
3117,2320321,1,0,0
3118,2320331,1,0,0
3119,2320341,1,0,0
3120,2320351,1,0,0
3121,2320361,1,0,0
3122,2320371,1,0,0
3123,2320381,1,0,0
3124,2320391,1,0,0
3125,2320401,1,-1,0
3126,2320411,1,0,0
3127,2320421,1,0,0
3128,2320431,1,0,0
3129,2320441,1,0,0
3130,2320451,1,0,0
3131,2320461,1,0,0
3132,2320471,1,0,0
3133,2320481,1,-1,0
3134,2320491,1,0,0
3135,2320501,0,-1,0
3136,2320511,0,0,0
3137,2320521,0,0,0
3138,2320531,1,0,0
3139,2320541,0,0,0
3140,2320551,0,0,0
3141,2320561,1,0,0
3142,2320571,1,0,0
3143,2320581,1,0,0
3144,2320591,1,0,0
3145,2320601,1,0,0
3146,2320611,1,0,0
3147,2320621,1,0,0
3148,2320631,1,0,0
3149,2320641,1,0,0
3150,2320651,1,0,0
3151,2320661,1,0,0
3152,2320671,1,0,0
3153,2320681,1,0,0
3154,2320691,1,0,0
3155,2320701,1,0,0
3156,2320711,1,0,0
3157,2320721,1,0,0
3158,2320731,1,0,0
3159,2320741,1,0,0
3160,2320751,0,0,0
3161,2320761,1,0,0
3162,2320771,1,0,0
3163,2320781,1,0,0
3164,2320791,1,1,0
3165,2320801,1,0,0
3166,2320811,1,0,0
3167,2320821,1,0,0
3168,2320831,1,0,0
3169,2320841,1,0,0
3170,2320851,1,1,0
3171,2320861,1,0,0
3172,2320871,1,1,0
3173,2320881,1,0,0
3174,2320891,1,0,0
3175,2320901,1,0,0
3176,2320911,1,0,0
3177,2320921,1,0,0
3178,2320931,1,1,0
3179,2320941,1,0,0
3180,2320951,1,1,0
3181,2320961,1,0,0
3182,2320971,1,0,0
3183,2320981,1,0,0
3184,2320991,1,0,0
3185,2321001,1,0,0
3186,2321011,1,1,0
3187,2321021,1,0,0
3188,2321031,1,0,0
3189,2321041,1,0,0
3190,2321051,1,0,0
3191,2321061,1,0,0
3192,2321071,1,0,0
3193,2321081,1,0,0
3194,2321091,1,0,0
3195,2321101,1,0,0
3196,2321111,1,0,0
3197,2321121,1,0,0
3198,2321131,1,0,0
3199,2321141,1,0,0
3200,2321151,1,0,0
3201,2321161,1,0,0
3202,2321171,1,0,0
3203,2321181,0,0,0
3204,2321191,1,0,0
3205,2321201,1,0,0
3206,2321211,1,0,0
3207,2321221,1,0,0
3208,2321231,1,0,0
3209,2321241,1,0,0
3210,2321251,1,0,0
3211,2321261,1,0,0
3212,2321271,1,0,0
3213,2321281,1,0,0
3214,2321291,1,0,0
3215,2321301,1,0,0
3216,2321311,1,0,0
3217,2321321,1,0,0
3218,2321331,1,0,0
3219,2321341,1,0,0
3220,2321351,1,0,0
3221,2321361,1,0,0
3222,2321371,1,0,0
3223,2321381,1,1,0
3224,2321391,1,0,0
3225,2321401,1,0,0
3226,2321411,0,0,0
3227,2321421,0,0,0
3228,2321431,1,1,0
3229,2321441,1,0,0
3230,2321451,1,0,0
3231,2321461,1,1,0
3232,2321471,1,1,0
3233,2321481,1,0,0
3234,2321491,0,1,0
3235,2321501,1,0,0
3236,2321511,1,0,0
3237,2321521,1,0,0
3238,2321531,1,0,0
3239,2321541,1,0,0
3240,2321551,1,0,0
3241,2321561,1,0,0
3242,2321571,1,0,0
3243,2321581,1,0,0
3244,2321591,1,1,0
3245,2321601,1,0,0
3246,2321611,1,0,0
3247,2321621,1,0,0
3248,2321631,1,0,0
3249,2321641,1,0,0
3250,2321651,1,0,0
3251,2321661,0,0,0
3252,2321671,1,0,0
3253,2321681,1,0,0
3254,2321691,1,0,0
3255,2321701,1,0,0
3256,2321711,1,0,0
3257,2321721,1,0,0
3258,2321731,1,0,0
3259,2321741,1,0,0
3260,2321751,1,0,0
3261,2321761,1,0,0
3262,2321771,1,0,0
3263,2321781,1,0,0
3264,2321791,1,0,0
3265,2321801,1,0,0
3266,2321811,0,0,0
3267,2321821,1,0,0
3268,2321831,1,0,0
3269,2321841,1,0,0
3270,2321851,1,0,0
3271,2321861,1,0,0
3272,2321871,1,0,0
3273,2321881,1,0,0
3274,2321891,1,0,0
3275,2321901,1,0,0
3276,2321911,1,0,0
3277,2321921,1,0,0
3278,2321931,1,0,0
3279,2321941,1,0,0
3280,2321951,1,0,0
3281,2321961,1,0,0
3282,2321971,1,0,0
3283,2321981,1,0,0
3284,2321991,1,0,0
3285,2322001,1,0,0
3286,2322011,1,0,0
3287,2322021,1,0,0
3288,2322031,1,0,0
3289,2322041,1,0,0
3290,2322051,1,0,0
3291,2322061,1,0,0
3292,2322071,1,0,0
3293,2322081,1,0,0
3294,2322091,1,0,0
3295,2322101,1,0,0
3296,2322111,1,0,0
3297,2322121,1,0,0
3298,2322131,1,0,0
3299,2322141,1,0,0
3300,2322151,1,0,0
3301,2322161,1,0,0
3302,2322171,1,0,0
3303,2322181,1,0,0
3304,2322191,1,0,0
3305,2322201,1,0,0
3306,2322211,1,0,0
3307,2322221,1,0,0
3308,2322231,1,0,0
3309,2322241,1,0,0
3310,2322251,1,0,0
3311,2322261,1,0,0
3312,2322271,1,0,0
3313,2322281,1,0,0
3314,2322291,1,0,0
3315,2322301,1,0,0
3316,2322311,1,0,0
3317,2322321,0,0,0
3318,2322331,1,0,0
3319,2322341,1,0,0
3320,2322351,1,0,0
3321,2322361,1,0,0
3322,2322371,1,0,0
3323,2322381,1,0,0
3324,2322391,1,0,0
3325,2322401,0,0,0
3326,2322411,1,0,0
3327,2322421,1,0,0
3328,2322431,1,0,0
3329,2322441,1,0,0
3330,2322451,1,0,0
3331,2322461,1,0,0
3332,2322471,1,0,0
3333,2322481,1,0,0
3334,2322491,1,0,0
3335,2322501,1,0,0
3336,2322511,1,0,0
3337,2322521,1,0,0
3338,2322531,1,0,0
3339,2322541,1,0,0
3340,2322551,1,0,0
3341,2322561,1,0,0
3342,2322571,1,0,0
3343,2322581,1,0,0
3344,2322591,1,0,0
3345,2322601,1,0,0
3346,2322611,0,0,0
3347,2322621,1,0,0
3348,2322631,1,0,0
3349,2322641,1,0,0
3350,2322651,1,0,0
3351,2322661,1,0,0
3352,2322671,1,0,0
3353,2322681,1,0,0
3354,2322691,1,0,0
3355,2322701,1,0,0
3356,2322711,0,0,0
3357,2322721,1,0,0
3358,2322731,1,0,0
3359,2322741,1,0,0
3360,2322751,1,0,0
3361,2322761,1,-1,0
3362,2322771,1,0,0
3363,2322781,1,0,0
3364,2322791,1,0,0
3365,2322801,1,-1,0
3366,2322811,1,0,0
3367,2322821,1,0,0
3368,2322831,1,0,0
3369,2322841,1,-1,0
3370,2322851,1,0,0
3371,2322861,1,0,0
3372,2322871,1,0,0
3373,2322881,1,0,0
3374,2322891,1,0,0
3375,2322901,1,0,0
3376,2322911,1,0,0
3377,2322921,1,0,0
3378,2322931,1,-1,0
3379,2322941,1,-1,0
3380,2322951,1,0,0
3381,2322961,1,-1,0
3382,2322971,1,0,0
3383,2322981,1,-1,0
3384,2322991,1,0,0
3385,2323001,1,0,0
3386,2323011,1,0,0
3387,2323021,1,0,0
3388,2323031,1,0,0
3389,2323041,1,0,0
3390,2323051,1,0,0
3391,2323061,1,0,0
3392,2323071,1,0,0
3393,2323081,1,0,0
3394,2323091,1,0,0
3395,2323101,1,0,0
3396,2323111,1,0,0
3397,2323121,1,0,0
3398,2323131,1,0,0
3399,2323141,1,0,0
3400,2323151,1,0,0
3401,2323161,1,0,0
3402,2323171,1,0,0
3403,2323181,1,0,0
3404,2323191,1,0,0
3405,2323201,1,0,0
3406,2323211,1,0,0
3407,2323221,1,0,0
3408,2323231,1,0,0
3409,2323241,1,0,0
3410,2323251,1,0,0
3411,2323261,1,0,0
3412,2323271,1,0,0
3413,2323281,1,-1,0
3414,2323291,1,0,0
3415,2323301,1,0,0
3416,2323311,1,0,0
3417,2323321,1,0,0
3418,2323331,1,0,0
3419,2323341,1,0,0
3420,2323351,1,0,0
3421,2323361,1,0,0
3422,2323371,1,-1,0
3423,2323381,1,0,0
3424,2323391,1,0,0
3425,2323401,1,0,0
3426,2323411,1,-1,0
3427,2323421,1,-1,0
3428,2323431,1,0,0
3429,2323441,1,0,0
3430,2323451,1,0,0
3431,2323461,1,-1,0
3432,2323471,1,-1,0
3433,2323481,1,0,0
3434,2323491,1,0,0
3435,2323501,1,0,0
3436,2323511,1,0,0
3437,2323521,1,0,0
3438,2323531,1,0,0
3439,2323541,1,0,0
3440,2323551,1,0,0
3441,2323561,1,0,0
3442,2323571,1,0,0
3443,2323581,1,0,0
3444,2323591,1,0,0
3445,2323601,1,0,0
3446,2323611,1,0,0
3447,2323621,1,0,0
3448,2323631,1,0,0
3449,2323641,1,0,0
3450,2323651,1,0,0
3451,2323661,0,0,0
3452,2323671,1,0,0
3453,2323681,1,0,0
3454,2323691,1,0,0
3455,2323701,1,0,0
3456,2323711,1,0,0
3457,2323721,1,0,0
3458,2323731,1,0,0
3459,2323741,1,0,0
3460,2323751,1,0,0
3461,2323761,1,0,0
3462,2323771,1,0,0
3463,2323781,1,0,0
3464,2323791,1,0,0
3465,2323801,1,0,0
3466,2323811,0,0,0
3467,2323821,1,0,0
3468,2323831,1,0,0
3469,2323841,1,0,0
3470,2323851,1,0,0
3471,2323861,1,0,0
3472,2323871,1,0,0
3473,2323881,1,0,0
3474,2323891,1,0,0
3475,2323901,1,0,0
3476,2323911,1,0,0
3477,2323921,1,0,0
3478,2323931,1,0,0
3479,2323941,1,0,0
3480,2323951,1,0,0
3481,2323961,1,0,0
3482,2323971,1,0,0
3483,2323981,1,0,0
3484,2323991,1,0,0
3485,2324001,1,1,0
3486,2324011,1,0,0
3487,2324021,1,0,0
3488,2324031,1,0,0
3489,2324041,1,1,0
3490,2324051,1,0,0
3491,2324061,1,0,0
3492,2324071,1,0,0
3493,2324081,1,0,0
3494,2324091,1,1,0
3495,2324101,1,0,0
3496,2324111,1,0,0
3497,2324121,1,0,0
3498,2324131,1,0,0
3499,2324141,1,0,0
3500,2324151,1,0,0
3501,2324161,1,0,0
3502,2324171,1,0,0
3503,2324181,1,0,0
3504,2324191,1,0,0
3505,2324201,1,0,0
3506,2324211,1,0,0
3507,2324221,1,0,0
3508,2324231,1,1,0
3509,2324241,1,0,0
3510,2324251,1,0,0
3511,2324261,1,0,0
3512,2324271,1,0,0
3513,2324281,1,0,0
3514,2324291,1,0,0
3515,2324301,1,-1,0
3516,2324311,1,0,0
3517,2324321,1,0,0
3518,2324331,1,-1,0
3519,2324341,1,-1,0
3520,2324351,1,-1,0
3521,2324361,1,-1,0
3522,2324371,1,-1,0
3523,2324381,0,-1,0
3524,2324391,0,-1,0
3525,2324401,0,-1,0
3526,2324411,0,-1,0
3527,2324421,1,-1,0
3528,2324431,0,-1,0
3529,2324441,0,-1,0
3530,2324451,0,-1,0
3531,2324461,0,-1,0
3532,2324471,0,0,0
3533,2324481,0,-1,0
3534,2324491,0,-1,0
3535,2324501,0,0,0
3536,2324511,1,-1,0
3537,2324521,1,-1,0
3538,2324531,1,-1,0
3539,2324541,1,-1,0
3540,2324551,1,-1,0
3541,2324561,1,-1,0
3542,2324571,1,0,0
3543,2324581,1,-1,0
3544,2324591,1,-1,0
3545,2324601,1,-1,0
3546,2324611,1,-1,0
3547,2324621,1,-1,0
3548,2324631,1,0,0
3549,2324641,1,0,0
3550,2324651,0,-1,0
3551,2324661,0,0,0
3552,2324671,1,-1,0
3553,2324681,0,-1,0
3554,2324691,0,0,0
3555,2324701,1,0,0
3556,2324711,0,0,0
3557,2324721,0,-1,0
3558,2324731,0,-1,0
3559,2324741,0,-1,0
3560,2324751,0,-1,0
3561,2324761,0,-1,0
3562,2324771,0,-1,0
3563,2324781,0,-1,0
3564,2324791,1,-1,0
3565,2324801,1,-1,0
3566,2324811,0,-1,0
3567,2324821,1,-1,0
3568,2324831,1,-1,0
3569,2324841,1,-1,0
3570,2324851,1,-1,0
3571,2324861,1,-1,0
3572,2324871,1,-1,0
3573,2324881,1,-1,0
3574,2324891,1,0,0
3575,2324901,1,0,0
3576,2324911,1,0,0
3577,2324921,1,0,0
3578,2324931,1,0,0
3579,2324941,1,0,0
3580,2324951,1,0,0
3581,2324961,1,0,0
3582,2324971,1,1,0
3583,2324981,1,1,0
3584,2324991,1,1,0
3585,2325001,1,1,0
3586,2325011,1,1,0
3587,2325021,1,1,0
3588,2325031,1,1,0
3589,2325041,1,1,0
3590,2325051,1,1,0
3591,2325061,1,1,0
3592,2325071,0,1,0
3593,2325081,0,1,0
3594,2325091,0,1,0
3595,2325101,0,1,0
3596,2325111,0,1,0
3597,2325121,1,1,0
3598,2325131,1,1,0
3599,2325141,1,1,0
3600,2325151,1,1,0
3601,2325161,1,0,0
3602,2325171,1,0,0
3603,2325181,1,0,0
3604,2325191,1,0,0
3605,2325201,1,0,0
3606,2325211,1,0,0
3607,2325221,1,0,0
3608,2325231,1,0,0
3609,2325241,1,0,0
3610,2325251,1,0,0
3611,2325261,1,0,0
3612,2325271,1,0,0
3613,2325281,1,0,0
3614,2325291,1,0,0
3615,2325301,1,0,0
3616,2325311,1,0,0
3617,2325321,1,0,0
3618,2325331,0,0,0
3619,2325341,1,0,0
3620,2325351,0,0,0
3621,2325361,0,0,0
3622,2325371,0,0,0
3623,2325381,0,0,0
3624,2325391,0,1,0
3625,2325401,0,0,0
3626,2325411,0,1,0
3627,2325421,1,1,0
3628,2325431,0,0,0
3629,2325441,1,1,0
3630,2325451,1,1,0
3631,2325461,1,1,0
3632,2325471,0,0,0
3633,2325481,1,0,0
3634,2325491,1,0,0
3635,2325501,1,1,0
3636,2325511,1,1,0
3637,2325521,1,1,0
3638,2325531,1,0,0
3639,2325541,1,1,0
3640,2325551,1,1,0
3641,2325561,1,0,0
3642,2325571,1,1,0
3643,2325581,1,1,0
3644,2325591,1,1,0
3645,2325601,1,1,0
3646,2325611,1,1,0
3647,2325621,1,1,0
3648,2325631,1,0,0
3649,2325641,1,1,0
3650,2325651,0,0,0
3651,2325661,0,0,0
3652,2325671,0,0,0
3653,2325681,1,0,0
3654,2325691,0,0,0
3655,2325701,0,0,0
3656,2325711,1,1,0
3657,2325721,0,0,0
3658,2325731,0,0,0
3659,2325741,0,0,0
3660,2325751,0,0,0
3661,2325761,0,0,0
3662,2325771,1,0,0
3663,2325781,0,0,0
3664,2325791,0,0,0
3665,2325801,0,0,0
3666,2325811,0,0,0
3667,2325821,1,0,0
3668,2325831,0,0,0
3669,2325841,0,0,0
3670,2325851,0,0,0
3671,2325861,1,0,0
3672,2325871,1,0,0
3673,2325881,1,0,0
3674,2325891,1,0,0
3675,2325901,1,0,0
3676,2325911,0,0,0
3677,2325921,1,0,0
3678,2325931,1,0,0
3679,2325941,1,0,0
3680,2325951,1,0,0
3681,2325961,1,0,0
3682,2325971,1,0,0
3683,2325981,1,0,0
3684,2325991,1,0,0
3685,2326001,1,0,0
3686,2326011,1,0,0
3687,2326021,1,0,0
3688,2326031,1,-1,0
3689,2326041,1,0,0
3690,2326051,1,0,0
3691,2326061,1,-1,0
3692,2326071,1,0,0
3693,2326081,1,-1,0
3694,2326091,1,-1,0
3695,2326101,0,-1,0
3696,2326111,1,-1,0
3697,2326121,1,0,0
3698,2326131,1,-1,0
3699,2326141,1,-1,0
3700,2326151,0,-1,0
3701,2326161,0,0,0
3702,2326171,0,-1,0
3703,2326181,0,-1,0
3704,2326191,0,-1,0
3705,2326201,0,-1,0
3706,2326211,0,-1,0
3707,2326221,0,0,0
3708,2326231,0,-1,0
3709,2326241,0,-1,0
3710,2326251,0,-1,0
3711,2326261,0,-1,0
3712,2326271,1,-1,0
3713,2326281,1,-1,0
3714,2326291,1,-1,0
3715,2326301,1,-1,0
3716,2326311,1,-1,0
3717,2326321,1,-1,0
3718,2326331,1,-1,0
3719,2326341,1,-1,0
3720,2326351,1,-1,0
3721,2326361,2,-1,0
3722,2326371,1,-1,0
3723,2326381,2,-1,0
3724,2326391,2,-1,0
3725,2326401,1,0,0
3726,2326411,1,0,0
3727,2326421,1,0,0
3728,2326431,1,0,0
3729,2326441,1,0,0
3730,2326451,1,0,0
3731,2326461,1,0,0
3732,2326471,1,0,0
3733,2326481,1,0,0
3734,2326491,1,0,0
3735,2326501,1,0,0
3736,2326511,1,0,0
3737,2326521,1,0,0
3738,2326531,1,0,0
3739,2326541,1,0,0
3740,2326551,1,0,0
3741,2326561,1,0,0
3742,2326571,1,0,0
3743,2326581,1,0,0
3744,2326591,1,0,0
3745,2326601,1,0,0
3746,2326611,1,0,0
3747,2326621,1,0,0
3748,2326631,1,0,0
3749,2326641,1,0,0
3750,2326651,1,0,0
3751,2326661,1,0,0
3752,2326671,1,0,0
3753,2326681,1,0,0
3754,2326691,1,0,0
3755,2326701,1,0,0
3756,2326711,1,0,0
3757,2326721,1,0,0
3758,2326731,1,0,0
3759,2326741,1,0,0
3760,2326751,1,0,0
3761,2326761,1,-1,0
3762,2326771,1,0,0
3763,2326781,1,0,0
3764,2326791,1,-1,0
3765,2326801,1,-1,0
3766,2326811,1,-1,0
3767,2326821,1,-1,0
3768,2326831,1,-1,0
3769,2326841,1,-1,0
3770,2326851,1,-1,0
3771,2326861,1,-1,0
3772,2326871,1,-1,0
3773,2326881,1,-1,0
3774,2326891,0,-1,0
3775,2326901,1,-1,0
3776,2326911,0,-1,0
3777,2326921,0,-1,0
3778,2326931,1,-1,0
3779,2326941,1,-1,0
3780,2326951,0,-1,0
3781,2326961,0,-1,0
3782,2326971,0,-1,0
3783,2326981,0,-1,0
3784,2326991,0,-1,0
3785,2327001,0,-1,0
3786,2327011,0,-1,0
3787,2327021,1,-1,0
3788,2327031,0,-1,0
3789,2327041,1,-1,0
3790,2327051,1,-1,0
3791,2327061,1,-1,0
3792,2327071,1,0,0
3793,2327081,1,-1,0
3794,2327091,1,-1,0
3795,2327101,1,0,0
3796,2327111,1,-1,0
3797,2327121,1,0,0
3798,2327131,1,0,0
3799,2327141,1,0,0
3800,2327151,1,0,0
3801,2327161,1,0,0
3802,2327171,1,0,0
3803,2327181,1,0,0
3804,2327191,1,0,0
3805,2327201,1,0,0
3806,2327211,1,0,0
3807,2327221,1,0,0
3808,2327231,1,0,0
3809,2327241,1,0,0
3810,2327251,1,0,0
3811,2327261,1,0,0
3812,2327271,1,0,0
3813,2327281,0,0,0
3814,2327291,1,0,0
3815,2327301,0,0,0
3816,2327311,0,0,0
3817,2327321,0,0,0
3818,2327331,0,0,0
3819,2327341,0,0,0
3820,2327351,1,0,0
3821,2327361,0,0,0
3822,2327371,1,0,0
3823,2327381,0,0,0
3824,2327391,1,0,0
3825,2327401,1,0,0
3826,2327411,1,0,0
3827,2327421,1,0,0
3828,2327431,1,0,0
3829,2327441,1,0,0
3830,2327451,1,-1,0
3831,2327461,1,-1,0
3832,2327471,1,0,0
3833,2327481,1,-1,0
3834,2327491,1,-1,0
3835,2327501,1,-1,0
3836,2327511,1,0,0
3837,2327521,1,-1,0
3838,2327531,1,-1,0
3839,2327541,1,-1,0
3840,2327551,1,-1,0
3841,2327561,1,-1,0
3842,2327571,1,-1,0
3843,2327581,1,-1,0
3844,2327591,1,-1,0
3845,2327601,0,-1,0
3846,2327611,1,-1,0
3847,2327621,1,-1,0
3848,2327631,1,-1,0
3849,2327641,1,-1,0
3850,2327651,0,-1,0
3851,2327661,1,-1,0
3852,2327671,1,-1,0
3853,2327681,0,-1,0
3854,2327691,0,-1,0
3855,2327701,0,-1,0
3856,2327711,1,-1,0
3857,2327721,1,-1,0
3858,2327731,1,-1,0
3859,2327741,1,-1,0
3860,2327751,1,-1,0
3861,2327761,1,-1,0
3862,2327771,1,-1,0
3863,2327781,1,-1,0
3864,2327791,1,-1,0
3865,2327801,1,-1,0
3866,2327811,1,-1,0
3867,2327821,1,-1,0
3868,2327831,1,-1,0
3869,2327841,1,-1,0
3870,2327851,1,-1,0
3871,2327861,1,-1,0
3872,2327871,1,0,0
3873,2327881,1,0,0
3874,2327891,1,0,0
3875,2327901,1,0,0
3876,2327911,1,0,0
3877,2327921,1,0,0
3878,2327931,1,0,0
3879,2327941,0,0,0
3880,2327951,1,0,0
3881,2327961,1,0,0
3882,2327971,1,0,0
3883,2327981,1,0,0
3884,2327991,1,0,0
3885,2328001,1,0,0
3886,2328011,1,0,0
3887,2328021,1,0,0
3888,2328031,1,0,0
3889,2328041,1,0,0
3890,2328051,1,0,0
3891,2328061,1,0,0
3892,2328071,1,0,0
3893,2328081,1,0,0
3894,2328091,1,0,0
3895,2328101,1,0,0
3896,2328111,1,0,0
3897,2328121,1,0,0
3898,2328131,1,0,0
3899,2328141,1,0,0
3900,2328151,1,0,0
3901,2328161,1,0,0
3902,2328171,1,0,0
3903,2328181,1,0,0
3904,2328191,1,0,0
3905,2328201,0,0,0
3906,2328211,1,0,0
3907,2328221,1,0,0
3908,2328231,1,0,0
3909,2328241,1,-1,0
3910,2328251,1,0,0
3911,2328261,1,0,0
3912,2328271,1,0,0
3913,2328281,1,0,0
3914,2328291,0,0,0
3915,2328301,1,-1,0
3916,2328311,1,-1,0
3917,2328321,1,0,0
3918,2328331,1,-1,0
3919,2328341,1,-1,0
3920,2328351,1,-1,0
3921,2328361,1,-1,0
3922,2328371,1,-1,0
3923,2328381,1,-1,0
3924,2328391,1,-1,0
3925,2328401,1,-1,0
3926,2328411,0,0,0
3927,2328421,1,-1,0
3928,2328431,1,0,0
3929,2328441,1,-1,0
3930,2328451,1,-1,0
3931,2328461,1,-1,0
3932,2328471,1,-1,0
3933,2328481,1,-1,0
3934,2328491,1,0,0
3935,2328501,1,-1,0
3936,2328511,1,0,0
3937,2328521,1,0,0
3938,2328531,1,-1,0
3939,2328541,1,0,0
3940,2328551,1,0,0
3941,2328561,1,-1,0
3942,2328571,1,0,0
3943,2328581,1,-1,0
3944,2328591,1,0,0
3945,2328601,1,-1,0
3946,2328611,1,0,0
3947,2328621,1,0,0
3948,2328631,1,0,0
3949,2328641,1,0,0
3950,2328651,1,0,0
3951,2328661,1,0,0
3952,2328671,1,0,0
3953,2328681,1,-1,0
3954,2328691,1,0,0
3955,2328701,1,0,0
3956,2328711,1,-1,0
3957,2328721,1,-1,0
3958,2328731,1,-1,0
3959,2328741,1,-1,0
3960,2328751,1,0,0
3961,2328761,1,0,0
3962,2328771,1,-1,0
3963,2328781,1,-1,0
3964,2328791,1,0,0
3965,2328801,1,0,0
3966,2328811,1,0,0
3967,2328821,1,-1,0
3968,2328831,1,0,0
3969,2328841,1,0,0
3970,2328851,1,-1,0
3971,2328861,1,0,0
3972,2328871,1,0,0
3973,2328881,1,0,0
3974,2328891,1,0,0
3975,2328901,1,0,0
3976,2328911,0,0,0
3977,2328921,1,0,0
3978,2328931,1,0,0
3979,2328941,1,0,0
3980,2328951,1,0,0
3981,2328961,1,-1,0
3982,2328971,1,0,0
3983,2328981,1,0,0
3984,2328991,1,0,0
3985,2329001,1,-1,0
3986,2329011,1,0,0
3987,2329021,1,0,0
3988,2329031,1,0,0
3989,2329041,0,0,0
3990,2329051,1,0,0
3991,2329061,1,0,0
3992,2329071,1,-1,0
3993,2329081,1,0,0
3994,2329091,1,0,0
3995,2329101,1,0,0
3996,2329111,1,0,0
3997,2329121,1,0,0
3998,2329131,1,0,0
3999,2329141,1,0,0
4000,2329151,1,0,0
4001,2329161,1,0,0
4002,2329171,1,0,0
4003,2329181,1,0,0
4004,2329191,1,0,0
4005,2329201,1,0,0
4006,2329211,1,0,0
4007,2329221,1,0,0
4008,2329231,1,0,0
4009,2329241,1,0,0
4010,2329251,1,0,0
4011,2329261,1,0,0
4012,2329271,1,0,0
4013,2329281,1,0,0
4014,2329291,1,0,0
4015,2329301,1,0,0
4016,2329311,1,-1,0
4017,2329321,1,-1,0
4018,2329331,1,0,0
4019,2329341,1,0,0
4020,2329351,1,0,0
4021,2329361,1,-1,0
4022,2329371,1,0,0
4023,2329381,1,0,0
4024,2329391,1,-1,0
4025,2329401,1,0,0
4026,2329411,1,0,0
4027,2329421,1,0,0
4028,2329431,1,-1,0
4029,2329441,1,-1,0
4030,2329451,1,0,0
4031,2329461,1,0,0
4032,2329471,1,-1,0
4033,2329481,1,-1,0
4034,2329491,1,-1,0
4035,2329501,1,0,0
4036,2329511,1,-1,0
4037,2329521,1,-1,0
4038,2329531,1,0,0
4039,2329541,1,0,0
4040,2329551,1,0,0
4041,2329561,1,-1,0
4042,2329571,1,-1,0
4043,2329581,1,0,0
4044,2329591,1,-1,0
4045,2329601,1,-1,0
4046,2329611,1,-1,0
4047,2329621,1,0,0
4048,2329631,1,-1,0
4049,2329641,1,0,0
4050,2329651,1,-1,0
4051,2329661,1,0,0
4052,2329671,1,-1,0
4053,2329681,1,-1,0
4054,2329691,1,-1,0
4055,2329701,1,-1,0
4056,2329711,1,0,0
4057,2329721,1,-1,0
4058,2329731,1,-1,0
4059,2329741,1,0,0
4060,2329751,1,-1,0
4061,2329761,1,-1,0
4062,2329771,1,-1,0
4063,2329781,1,-1,0
4064,2329791,1,0,0
4065,2329801,1,-1,0
4066,2329811,1,-1,0
4067,2329821,1,-1,0
4068,2329831,1,0,0
4069,2329841,1,0,0
4070,2329851,1,0,0
4071,2329861,1,-1,0
4072,2329871,1,0,0
4073,2329881,1,0,0
4074,2329891,1,-1,0
4075,2329901,1,0,0
4076,2329911,1,-1,0
4077,2329921,1,0,0
4078,2329931,0,0,0
4079,2329941,1,0,0
4080,2329951,1,0,0
4081,2329961,1,0,0
4082,2329971,1,0,0
4083,2329981,1,0,0
4084,2329991,1,0,0
4085,2330001,1,0,0
4086,2330011,1,0,0
4087,2330021,1,0,0
4088,2330031,1,0,0
4089,2330041,1,0,0
4090,2330051,1,0,0
4091,2330061,1,0,0
4092,2330071,1,0,0
4093,2330081,1,0,0
4094,2330091,1,0,0
4095,2330101,1,0,0
4096,2330111,0,0,0
4097,2330121,1,0,0
4098,2330131,1,0,0
4099,2330141,1,0,0
4100,2330151,1,0,0
4101,2330161,0,0,0
4102,2330171,1,0,0
4103,2330181,1,0,0
4104,2330191,1,0,0
4105,2330201,1,0,0
4106,2330211,1,0,0
4107,2330221,1,0,0
4108,2330231,1,0,0
4109,2330241,1,0,0
4110,2330251,1,0,0
4111,2330261,1,0,0
4112,2330271,1,0,0
4113,2330281,1,0,0
4114,2330291,1,0,0
4115,2330301,1,0,0
4116,2330311,1,-1,0
4117,2330321,1,-1,0
4118,2330331,1,-1,0
4119,2330341,1,0,0
4120,2330351,1,0,0
4121,2330361,1,0,0
4122,2330371,1,0,0
4123,2330381,1,-1,0
4124,2330391,1,0,0
4125,2330401,1,-1,0
4126,2330411,1,-1,0
4127,2330421,1,0,0
4128,2330431,1,0,0
4129,2330441,1,0,0
4130,2330451,1,-1,0
4131,2330461,1,-1,0
4132,2330471,1,-1,0
4133,2330481,1,-1,0
4134,2330491,1,0,0
4135,2330501,1,0,0
4136,2330511,1,-1,0
4137,2330521,1,-1,0
4138,2330531,1,-1,0
4139,2330541,1,0,0
4140,2330551,1,-1,0
4141,2330561,0,0,0
4142,2330571,1,0,0
4143,2330581,1,0,0
4144,2330591,1,0,0
4145,2330601,1,0,0
4146,2330611,1,0,0
4147,2330621,1,0,0
4148,2330631,1,0,0
4149,2330641,1,0,0
4150,2330651,1,0,0
4151,2330661,1,0,0
4152,2330671,1,0,0
4153,2330681,1,0,0
4154,2330691,1,0,0
4155,2330701,1,0,0
4156,2330711,1,0,0
4157,2330721,1,0,0
4158,2330731,1,0,0
4159,2330741,1,0,0
4160,2330751,1,0,0
4161,2330761,1,0,0
4162,2330771,1,0,0
4163,2330781,1,0,0
4164,2330791,1,0,0
4165,2330801,1,0,0
4166,2330811,1,0,0
4167,2330821,1,0,0
4168,2330831,1,0,0
4169,2330841,1,0,0
4170,2330851,1,0,0
4171,2330861,1,0,0
4172,2330871,1,0,0
4173,2330881,1,0,0
4174,2330891,1,0,0
4175,2330901,1,0,0
4176,2330911,1,0,0
4177,2330921,1,0,0
4178,2330931,1,0,0
4179,2330941,1,0,0
4180,2330951,1,0,0
4181,2330961,1,0,0
4182,2330971,1,0,0
4183,2330981,1,0,0
4184,2330991,1,0,0
4185,2331001,1,0,0
4186,2331011,1,0,0
4187,2331021,1,0,0
4188,2331031,1,0,0
4189,2331041,1,0,0
4190,2331051,1,0,0
4191,2331061,1,0,0
4192,2331071,1,0,0
4193,2331081,1,0,0
4194,2331091,1,0,0
4195,2331101,1,0,0
4196,2331111,1,0,0
4197,2331121,1,0,0
4198,2331131,1,0,0
4199,2331141,1,0,0
4200,2331151,1,0,0
4201,2331161,1,0,0
4202,2331171,1,0,0
4203,2331181,1,0,0
4204,2331191,1,0,0
4205,2331201,1,0,0
4206,2331211,1,0,0
4207,2331221,1,0,0
4208,2331231,1,0,0
4209,2331241,1,0,0
4210,2331251,1,0,0
4211,2331261,1,0,0
4212,2331271,1,0,0
4213,2331281,1,0,0
4214,2331291,1,0,0
4215,2331301,1,0,0
4216,2331311,1,0,0
4217,2331321,1,0,0
4218,2331331,1,0,0
4219,2331341,1,0,0
4220,2331351,1,0,0
4221,2331361,1,0,0
4222,2331371,1,0,0
4223,2331381,1,-1,0
4224,2331391,1,0,0
4225,2331401,1,0,0
4226,2331411,1,0,0
4227,2331421,1,0,0
4228,2331431,1,0,0
4229,2331441,1,0,0
4230,2331451,1,0,0
4231,2331461,1,0,0
4232,2331471,1,0,0
4233,2331481,1,0,0
4234,2331491,1,0,0
4235,2331501,1,0,0
4236,2331511,1,0,0
4237,2331521,1,0,0
4238,2331531,1,0,0
4239,2331541,1,0,0
4240,2331551,1,0,0
4241,2331561,1,0,0
4242,2331571,1,0,0
4243,2331581,1,0,0
4244,2331591,1,-1,0
4245,2331601,1,0,0
4246,2331611,1,0,0
4247,2331621,1,0,0
4248,2331631,1,0,0
4249,2331641,1,0,0
4250,2331651,1,-1,0
4251,2331661,1,0,0
4252,2331671,1,-1,0
4253,2331681,1,-1,0
4254,2331691,1,0,0
4255,2331701,1,0,0
4256,2331711,1,-1,0
4257,2331721,1,-1,0
4258,2331731,1,-1,0
4259,2331741,1,0,0
4260,2331751,1,0,0
4261,2331761,1,0,0
4262,2331771,1,0,0
4263,2331781,1,0,0
4264,2331791,1,0,0
4265,2331801,1,-1,0
4266,2331811,1,0,0
4267,2331821,1,0,0
4268,2331831,1,0,0
4269,2331841,1,0,0
4270,2331851,1,0,0
4271,2331861,1,0,0
4272,2331871,1,0,0
4273,2331881,1,0,0
4274,2331891,1,0,0
4275,2331901,1,0,0
4276,2331911,1,0,0
4277,2331921,0,0,0
4278,2331931,1,0,0
4279,2331941,1,0,0
4280,2331951,1,0,0
4281,2331961,1,0,0
4282,2331971,1,0,0
4283,2331981,1,0,0
4284,2331991,1,0,0
4285,2332001,1,0,0
4286,2332011,1,0,0
4287,2332021,1,0,0
4288,2332031,0,0,0
4289,2332041,0,0,0
4290,2332051,1,0,0
4291,2332061,1,0,0
4292,2332071,1,0,0
4293,2332081,1,0,0
4294,2332091,1,0,0
4295,2332101,1,-1,0
4296,2332111,1,0,0
4297,2332121,1,0,0
4298,2332131,1,0,0
4299,2332141,1,0,0
4300,2332151,1,0,0
4301,2332161,1,0,0
4302,2332171,1,0,0
4303,2332181,1,0,0
4304,2332191,1,0,0
4305,2332201,1,0,0
4306,2332211,1,0,0
4307,2332221,1,0,0
4308,2332231,1,0,0
4309,2332241,1,0,0
4310,2332251,1,0,0
4311,2332261,0,0,0
4312,2332271,1,0,0
4313,2332281,1,0,0
4314,2332291,1,0,0
4315,2332301,1,0,0
4316,2332311,1,0,0
4317,2332321,1,0,0
4318,2332331,1,0,0
4319,2332341,1,0,0
4320,2332351,1,0,0
4321,2332361,1,0,0
4322,2332371,1,0,0
4323,2332381,1,0,0
4324,2332391,1,-1,0
4325,2332401,1,-1,0
4326,2332411,1,0,0
4327,2332421,1,-1,0
4328,2332431,1,0,0
4329,2332441,1,0,0
4330,2332451,1,-1,0
4331,2332461,1,0,0
4332,2332471,1,0,0
4333,2332481,1,0,0
4334,2332491,1,0,0
4335,2332501,1,0,0
4336,2332511,1,0,0
4337,2332521,1,-1,0
4338,2332531,1,0,0
4339,2332541,1,-1,0
4340,2332551,1,0,0
4341,2332561,1,-1,0
4342,2332571,1,-1,0
4343,2332581,1,-1,0
4344,2332591,1,-1,0
4345,2332601,1,-1,0
4346,2332611,1,0,0
4347,2332621,1,0,0
4348,2332631,1,0,0
4349,2332641,1,0,0
4350,2332651,1,-1,0
4351,2332661,1,0,0
4352,2332671,1,-1,0
4353,2332681,1,-1,0
4354,2332691,0,0,0
4355,2332701,1,0,0
4356,2332711,1,-1,0
4357,2332721,1,0,0
4358,2332731,1,0,0
4359,2332741,1,-1,0
4360,2332751,1,0,0
4361,2332761,0,0,0
4362,2332771,1,0,0
4363,2332781,1,0,0
4364,2332791,1,0,0
4365,2332801,1,0,0
4366,2332811,0,0,0
4367,2332821,1,0,0
4368,2332831,1,0,0
4369,2332841,1,0,0
4370,2332851,1,0,0
4371,2332861,1,0,0
4372,2332871,1,0,0
4373,2332881,1,0,0
4374,2332891,1,0,0
4375,2332901,1,0,0
4376,2332911,1,0,0
4377,2332921,1,0,0
4378,2332931,1,0,0
4379,2332941,1,0,0
4380,2332951,1,0,0
4381,2332961,1,0,0
4382,2332971,1,0,0
4383,2332981,1,0,0
4384,2332991,1,0,0
4385,2333001,1,0,0
4386,2333011,1,0,0
4387,2333021,1,0,0
4388,2333031,1,0,0
4389,2333041,1,0,0
4390,2333051,1,0,0
4391,2333061,1,0,0
4392,2333071,1,0,0
4393,2333081,1,0,0
4394,2333091,1,0,0
4395,2333101,1,0,0
4396,2333111,1,0,0
4397,2333121,1,0,0
4398,2333131,1,0,0
4399,2333141,1,0,0
4400,2333151,1,0,0
4401,2333161,1,0,0
4402,2333171,1,0,0
4403,2333181,1,0,0
4404,2333191,1,0,0
4405,2333201,1,0,0
4406,2333211,1,0,0
4407,2333221,1,0,0
4408,2333231,1,0,0
4409,2333241,1,0,0
4410,2333251,1,0,0
4411,2333261,1,0,0
4412,2333271,1,0,0
4413,2333281,1,0,0
4414,2333291,1,0,0
4415,2333301,1,0,0
4416,2333311,1,0,0
4417,2333321,1,0,0
4418,2333331,1,0,0
4419,2333341,0,0,0
4420,2333351,1,0,0
4421,2333361,1,0,0
4422,2333371,1,0,0
4423,2333381,1,0,0
4424,2333391,1,0,0
4425,2333401,1,0,0
4426,2333411,1,0,0
4427,2333421,1,0,0
4428,2333431,1,0,0
4429,2333441,1,0,0
4430,2333451,1,0,0
4431,2333461,1,0,0
4432,2333471,1,0,0
4433,2333481,1,0,0
4434,2333491,1,0,0
4435,2333501,1,0,0
4436,2333511,1,0,0
4437,2333521,1,0,0
4438,2333531,1,0,0
4439,2333541,1,0,0
4440,2333551,1,1,0
4441,2333561,1,0,0
4442,2333571,1,0,0
4443,2333581,1,0,0
4444,2333591,1,0,0
4445,2333601,1,0,0
4446,2333611,1,0,0
4447,2333621,1,0,0
4448,2333631,1,0,0
4449,2333641,1,0,0
4450,2333651,1,0,0
4451,2333661,1,0,0
4452,2333671,1,1,0
4453,2333681,0,0,0
4454,2333691,1,0,0
4455,2333701,1,0,0
4456,2333711,1,0,0
4457,2333721,1,0,0
4458,2333731,1,0,0
4459,2333741,1,0,0
4460,2333751,1,0,0
4461,2333761,1,0,0
4462,2333771,1,0,0
4463,2333781,1,0,0
4464,2333791,1,0,0
4465,2333801,1,0,0
4466,2333811,1,0,0
4467,2333821,1,0,0
4468,2333831,1,0,0
4469,2333841,1,0,0
4470,2333851,1,0,0
4471,2333861,1,0,0
4472,2333871,1,0,0
4473,2333881,1,0,0
4474,2333891,1,0,0
4475,2333901,1,0,0
4476,2333911,1,0,0
4477,2333921,1,0,0
4478,2333931,1,0,0
4479,2333941,1,0,0
4480,2333951,1,0,0
4481,2333961,1,0,0
4482,2333971,1,0,0
4483,2333981,1,0,0
4484,2333991,1,0,0
4485,2334001,1,0,0
4486,2334011,1,0,0
4487,2334021,1,0,0
4488,2334031,1,0,0
4489,2334041,1,0,0
4490,2334051,0,0,0
4491,2334061,1,0,0
4492,2334071,1,0,0
4493,2334081,0,0,0
4494,2334091,1,0,0
4495,2334101,1,0,0
4496,2334111,1,0,0
4497,2334121,1,0,0
4498,2334131,1,0,0
4499,2334141,1,0,0
4500,2334151,1,0,0
4501,2334161,1,0,0
4502,2334171,0,0,0
4503,2334181,1,0,0
4504,2334191,1,0,0
4505,2334201,1,0,0
4506,2334211,1,0,0
4507,2334221,1,0,0
4508,2334231,1,0,0
4509,2334241,1,0,0
4510,2334251,1,0,0
4511,2334261,1,0,0
4512,2334271,1,0,0
4513,2334281,1,0,0
4514,2334291,1,0,0
4515,2334301,1,0,0
4516,2334311,1,0,0
4517,2334321,1,0,0
4518,2334331,1,0,0
4519,2334341,1,0,0
4520,2334351,1,0,0
4521,2334361,1,0,0
4522,2334371,1,0,0
4523,2334381,1,0,0
4524,2334391,1,0,0
4525,2334401,1,0,0
4526,2334411,1,0,0
4527,2334421,1,0,0
4528,2334431,1,1,0
4529,2334441,1,0,0
4530,2334451,1,0,0
4531,2334461,1,0,0
4532,2334471,1,0,0
4533,2334481,1,0,0
4534,2334491,1,0,0
4535,2334501,1,0,0
4536,2334511,0,0,0
4537,2334521,1,0,0
4538,2334531,1,0,0
4539,2334541,1,0,0
4540,2334551,1,0,0
4541,2334561,1,0,0
4542,2334571,1,0,0
4543,2334581,0,0,0
4544,2334591,1,0,0
4545,2334601,0,0,0
4546,2334611,1,0,0
4547,2334621,1,1,0
4548,2334631,1,0,0
4549,2334641,1,0,0
4550,2334651,1,1,0
4551,2334661,1,0,0
4552,2334671,1,0,0
4553,2334681,1,0,0
4554,2334691,0,0,0
4555,2334701,0,1,0
4556,2334711,0,1,0
4557,2334721,1,0,0
4558,2334731,1,1,0
4559,2334741,1,0,0
4560,2334751,1,1,0
4561,2334761,1,0,0
4562,2334771,1,0,0
4563,2334781,1,1,0
4564,2334791,1,0,0
4565,2334801,1,0,0
4566,2334811,1,0,0
4567,2334821,1,0,0
4568,2334831,1,0,0
4569,2334841,1,0,0
4570,2334851,1,1,0
4571,2334861,1,0,0
4572,2334871,1,0,0
4573,2334881,0,0,0
4574,2334891,1,0,0
4575,2334901,0,0,0
4576,2334911,1,0,0
4577,2334921,0,0,0
4578,2334931,0,0,0
4579,2334941,1,0,0
4580,2334951,1,0,0
4581,2334961,1,0,0
4582,2334971,1,0,0
4583,2334981,0,0,0
4584,2334991,1,0,0
4585,2335001,1,0,0
4586,2335011,1,0,0
4587,2335021,1,0,0
4588,2335031,1,0,0
4589,2335041,1,0,0
4590,2335051,1,0,0
4591,2335061,1,0,0
4592,2335071,1,0,0
4593,2335081,1,0,0
4594,2335091,1,0,0
4595,2335101,1,0,0
4596,2335111,1,0,0
4597,2335121,1,0,0
4598,2335131,1,0,0
4599,2335141,1,0,0
4600,2335151,1,0,0
4601,2335161,1,0,0
4602,2335171,1,0,0
4603,2335181,1,0,0
4604,2335191,1,0,0
4605,2335201,0,0,0
4606,2335211,1,0,0
4607,2335221,1,0,0
4608,2335231,1,0,0
4609,2335241,0,0,0
4610,2335251,1,0,0
4611,2335261,1,0,0
4612,2335271,0,0,0
4613,2335281,1,0,0
4614,2335291,1,0,0
4615,2335301,1,0,0
4616,2335311,1,0,0
4617,2335321,1,0,0
4618,2335331,1,0,0
4619,2335341,1,0,0
4620,2335351,1,0,0
4621,2335361,1,0,0
4622,2335371,1,0,0
4623,2335381,1,0,0
4624,2335391,1,0,0
4625,2335401,1,0,0
4626,2335411,1,0,0
4627,2335421,1,0,0
4628,2335431,1,0,0
4629,2335441,1,0,0
4630,2335451,1,0,0
4631,2335461,1,0,0
4632,2335471,1,0,0
4633,2335481,1,0,0
4634,2335491,1,0,0
4635,2335501,1,0,0
4636,2335511,1,0,0
4637,2335521,1,0,0
4638,2335531,1,0,0
4639,2335541,1,0,0
4640,2335551,1,0,0
4641,2335561,1,0,0
4642,2335571,1,0,0
4643,2335581,1,0,0
4644,2335591,0,0,0
4645,2335601,1,0,0
4646,2335611,1,0,0
4647,2335621,1,0,0
4648,2335631,1,0,0
4649,2335641,1,0,0
4650,2335651,1,0,0
4651,2335661,1,0,0
4652,2335671,1,0,0
4653,2335681,1,0,0
4654,2335691,1,0,0
4655,2335701,1,0,0
4656,2335711,1,0,0
4657,2335721,1,0,0
4658,2335731,1,0,0
4659,2335741,1,0,0
4660,2335751,1,0,0
4661,2335761,1,0,0
4662,2335771,1,0,0
4663,2335781,1,0,0
4664,2335791,1,0,0
4665,2335801,1,0,0
4666,2335811,1,0,0
4667,2335821,1,0,0
4668,2335831,0,0,0
4669,2335841,1,0,0
4670,2335851,1,0,0
4671,2335861,1,0,0
4672,2335871,1,0,0
4673,2335881,1,0,0
4674,2335891,1,0,0
4675,2335901,1,0,0
4676,2335911,1,0,0
4677,2335921,1,-1,0
4678,2335931,1,0,0
4679,2335941,1,0,0
4680,2335951,1,0,0
4681,2335961,1,0,0
4682,2335971,1,0,0
4683,2335981,1,0,0
4684,2335991,1,0,0
4685,2336001,1,0,0
4686,2336011,1,0,0
4687,2336021,1,0,0
4688,2336031,1,0,0
4689,2336041,1,0,0
4690,2336051,1,0,0
4691,2336061,1,0,0
4692,2336071,1,0,0
4693,2336081,1,0,0
4694,2336091,1,0,0
4695,2336101,1,0,0
4696,2336111,1,0,0
4697,2336121,1,0,0
4698,2336131,1,0,0
4699,2336141,1,0,0
4700,2336151,1,0,0
4701,2336161,1,0,0
4702,2336171,1,0,0
4703,2336181,1,0,0
4704,2336191,1,0,0
4705,2336201,1,0,0
4706,2336211,1,0,0
4707,2336221,1,0,0
4708,2336231,1,0,0
4709,2336241,1,0,0
4710,2336251,1,0,0
4711,2336261,1,0,0
4712,2336271,1,0,0
4713,2336281,1,0,0
4714,2336291,1,0,0
4715,2336301,1,0,0
4716,2336311,1,0,0
4717,2336321,1,0,0
4718,2336331,1,0,0
4719,2336341,1,0,0
4720,2336351,1,0,0
4721,2336361,1,0,0
4722,2336371,1,0,0
4723,2336381,1,0,0
4724,2336391,1,0,0
4725,2336401,1,0,0
4726,2336411,1,-1,0
4727,2336421,1,0,0
4728,2336431,1,0,0
4729,2336441,1,0,0
4730,2336451,1,0,0
4731,2336461,1,0,0
4732,2336471,1,0,0
4733,2336481,1,-1,0
4734,2336491,1,0,0
4735,2336501,1,0,0
4736,2336511,1,0,0
4737,2336521,0,-1,0
4738,2336531,1,0,0
4739,2336541,1,0,0
4740,2336551,1,0,0
4741,2336561,1,0,0
4742,2336571,1,0,0
4743,2336581,1,0,0
4744,2336591,1,0,0
4745,2336601,1,-1,0
4746,2336611,1,0,0
4747,2336621,1,0,0
4748,2336631,1,0,0
4749,2336641,1,0,0
4750,2336651,1,0,0
4751,2336661,1,0,0
4752,2336671,1,0,0
4753,2336681,1,0,0
4754,2336691,1,0,0
4755,2336701,1,0,0
4756,2336711,1,0,0
4757,2336721,1,0,0
4758,2336731,1,0,0
4759,2336741,1,0,0
4760,2336751,1,0,0
4761,2336761,1,0,0
4762,2336771,1,0,0
4763,2336781,1,0,0
4764,2336791,1,0,0
4765,2336801,1,0,0
4766,2336811,1,0,0
4767,2336821,1,0,0
4768,2336831,1,0,0
4769,2336841,1,0,0
4770,2336851,1,0,0
4771,2336861,1,0,0
4772,2336871,1,0,0
4773,2336881,1,0,0
4774,2336891,1,0,0
4775,2336901,1,0,0
4776,2336911,1,0,0
4777,2336921,0,0,0
4778,2336931,1,0,0
4779,2336941,1,0,0
4780,2336951,1,0,0
4781,2336961,1,0,0
4782,2336971,1,0,0
4783,2336981,1,0,0
4784,2336991,1,0,0
4785,2337001,1,0,0
4786,2337011,1,0,0
4787,2337021,1,0,0
4788,2337031,1,0,0
4789,2337041,1,0,0
4790,2337051,1,0,0
4791,2337061,1,0,0
4792,2337071,1,0,0
4793,2337081,1,-1,0
4794,2337091,1,0,0
4795,2337101,1,0,0
4796,2337111,1,0,0
4797,2337121,1,0,0
4798,2337131,1,0,0
4799,2337141,1,0,0
4800,2337151,1,0,0
4801,2337161,1,0,0
4802,2337171,1,0,0
4803,2337181,1,0,0
4804,2337191,1,0,0
4805,2337201,1,0,0
4806,2337211,1,-1,0
4807,2337221,1,-1,0
4808,2337231,1,-1,0
4809,2337241,1,-1,0
4810,2337251,0,-1,0
4811,2337261,1,-1,0
4812,2337271,1,0,0
4813,2337281,0,0,0
4814,2337291,1,0,0
4815,2337301,1,0,0
4816,2337311,1,0,0
4817,2337321,1,-1,0
4818,2337331,1,-1,0
4819,2337341,1,0,0
4820,2337351,1,0,0
4821,2337361,1,0,0
4822,2337371,1,0,0
4823,2337381,1,-1,0
4824,2337391,1,0,0
4825,2337401,1,0,0
4826,2337411,1,0,0
4827,2337421,1,0,0
4828,2337431,1,0,0
4829,2337441,1,0,0
4830,2337451,1,0,0
4831,2337461,0,0,0
4832,2337471,1,0,0
4833,2337481,1,0,0
4834,2337491,1,0,0
4835,2337501,1,0,0
4836,2337511,1,0,0
4837,2337521,1,0,0
4838,2337531,1,0,0
4839,2337541,1,0,0
4840,2337551,1,0,0
4841,2337561,1,0,0
4842,2337571,1,0,0
4843,2337581,1,0,0
4844,2337591,1,0,0
4845,2337601,1,0,0
4846,2337611,1,0,0
4847,2337621,1,0,0
4848,2337631,1,0,0
4849,2337641,1,0,0
4850,2337651,1,0,0
4851,2337661,1,0,0
4852,2337671,0,0,0
4853,2337681,1,0,0
4854,2337691,1,0,0
4855,2337701,1,0,0
4856,2337711,1,0,0
4857,2337721,1,0,0
4858,2337731,1,0,0
4859,2337741,1,0,0
4860,2337751,1,0,0
4861,2337761,1,0,0
4862,2337771,1,0,0
4863,2337781,1,0,0
4864,2337791,1,0,0
4865,2337801,1,0,0
4866,2337811,1,0,0
4867,2337821,1,0,0
4868,2337831,1,0,0
4869,2337841,1,-1,0
4870,2337851,1,0,0
4871,2337861,1,0,0
4872,2337871,0,0,0
4873,2337881,0,0,0
4874,2337891,1,0,0
4875,2337901,1,0,0
4876,2337911,1,-1,0
4877,2337921,1,0,0
4878,2337931,1,0,0
4879,2337941,1,0,0
4880,2337951,1,0,0
4881,2337961,1,0,0
4882,2337971,1,0,0
4883,2337981,1,0,0
4884,2337991,1,0,0
4885,2338001,1,0,0
4886,2338011,1,0,0
4887,2338021,1,0,0
4888,2338031,1,0,0
4889,2338041,1,0,0
4890,2338051,1,-1,0
4891,2338061,1,0,0
4892,2338071,1,0,0
4893,2338081,1,0,0
4894,2338091,1,0,0
4895,2338101,1,0,0
4896,2338111,1,0,0
4897,2338121,1,0,0
4898,2338131,1,0,0
4899,2338141,1,0,0
4900,2338151,1,0,0
4901,2338161,1,0,0
4902,2338171,1,0,0
4903,2338181,0,0,0
4904,2338191,1,0,0
4905,2338201,1,0,0
4906,2338211,1,0,0
4907,2338221,1,0,0
4908,2338231,1,0,0
4909,2338241,1,0,0
4910,2338251,1,0,0
4911,2338261,1,0,0
4912,2338271,1,0,0
4913,2338281,1,0,0
4914,2338291,1,0,0
4915,2338301,1,0,0
4916,2338311,1,0,0
4917,2338321,1,0,0
4918,2338331,1,0,0
4919,2338341,1,0,0
4920,2338351,1,0,0
4921,2338361,1,0,0
4922,2338371,1,0,0
4923,2338381,1,0,0
4924,2338391,1,0,0
4925,2338401,0,0,0
4926,2338411,0,0,0
4927,2338421,1,0,0
4928,2338431,1,0,0
4929,2338441,1,0,0
4930,2338451,0,0,0
4931,2338461,1,0,0
4932,2338471,1,0,0
4933,2338481,0,0,0
4934,2338491,1,0,0
4935,2338501,0,0,0
4936,2338511,0,0,0
4937,2338521,0,0,0
4938,2338531,1,0,0
4939,2338541,1,0,0
4940,2338551,1,0,0
4941,2338561,1,0,0
4942,2338571,1,0,0
4943,2338581,1,0,0
4944,2338591,1,0,0
4945,2338601,1,0,0
4946,2338611,1,0,0
4947,2338621,1,0,0
4948,2338631,1,0,0
4949,2338641,1,0,0
4950,2338651,1,0,0
4951,2338661,1,0,0
4952,2338671,1,0,0
4953,2338681,1,0,0
4954,2338691,1,0,0
4955,2338701,1,0,0
4956,2338711,1,0,0
4957,2338721,1,0,0
4958,2338731,1,0,0
4959,2338741,1,0,0
4960,2338751,1,0,0
4961,2338761,1,0,0
4962,2338771,1,0,0
4963,2338781,1,0,0
4964,2338791,1,0,0
4965,2338801,1,0,0
4966,2338811,1,0,0
4967,2338821,1,0,0
4968,2338831,1,0,0
4969,2338841,1,0,0
4970,2338851,1,0,0
4971,2338861,1,0,0
4972,2338871,1,0,0
4973,2338881,1,0,0
4974,2338891,1,0,0
4975,2338901,1,0,0
4976,2338911,1,0,0
4977,2338921,1,0,0
4978,2338931,1,0,0
4979,2338941,1,0,0
4980,2338951,1,0,0
4981,2338961,1,0,0
4982,2338971,1,0,0
4983,2338981,1,0,0
4984,2338991,1,0,0
4985,2339001,1,0,0
4986,2339011,1,0,0
4987,2339021,1,0,0
4988,2339031,1,0,0
4989,2339041,1,0,0
4990,2339051,1,0,0
4991,2339061,1,0,0
4992,2339071,1,0,0
4993,2339081,1,0,0
4994,2339091,1,0,0
4995,2339101,1,0,0
4996,2339111,1,0,0
4997,2339121,1,0,0
4998,2339131,1,0,0
4999,2339141,1,0,0
5000,2339151,1,0,0
5001,2339161,1,0,0
5002,2339171,1,0,0
5003,2339181,1,0,0
5004,2339191,1,0,0
5005,2339201,1,0,0
5006,2339211,1,0,0
5007,2339221,1,0,0
5008,2339231,1,0,0
5009,2339241,1,0,0
5010,2339251,1,0,0
5011,2339261,1,0,0
5012,2339271,1,0,0
5013,2339281,1,0,0
5014,2339291,1,0,0
5015,2339301,1,0,0
5016,2339311,1,0,0
5017,2339321,1,0,0
5018,2339331,0,0,0
5019,2339341,0,0,0
5020,2339351,1,0,0
5021,2339361,1,0,0
5022,2339371,1,0,0
5023,2339381,1,0,0
5024,2339391,1,0,0
5025,2339401,1,0,0
5026,2339411,1,0,0
5027,2339421,1,0,0
5028,2339431,1,0,0
5029,2339441,1,0,0
5030,2339451,1,0,0
5031,2339461,1,0,0
5032,2339471,1,0,0
5033,2339481,1,0,0
5034,2339491,1,0,0
5035,2339501,1,0,0
5036,2339511,1,0,0
5037,2339521,1,0,0
5038,2339531,1,0,0
5039,2339541,1,0,0
5040,2339551,1,0,0
5041,2339561,1,0,0
5042,2339571,1,0,0
5043,2339581,1,0,0
5044,2339591,1,0,0
5045,2339601,1,0,0
5046,2339611,1,-1,0
5047,2339621,1,0,0
5048,2339631,1,0,0
5049,2339641,1,0,0
5050,2339651,1,0,0
5051,2339661,1,0,0
5052,2339671,1,-1,0
5053,2339681,1,0,0
5054,2339691,1,0,0
5055,2339701,1,0,0
5056,2339711,1,0,0
5057,2339721,1,0,0
5058,2339731,1,0,0
5059,2339741,1,0,0
5060,2339751,1,0,0
5061,2339761,1,0,0
5062,2339771,1,0,0
5063,2339781,1,0,0
5064,2339791,1,0,0
5065,2339801,1,-1,0
5066,2339811,1,0,0
5067,2339821,1,0,0
5068,2339831,1,0,0
5069,2339841,1,0,0
5070,2339851,1,0,0
5071,2339861,1,0,0
5072,2339871,1,0,0
5073,2339881,1,0,0
5074,2339891,1,0,0
5075,2339901,1,0,0
5076,2339911,1,0,0
5077,2339921,1,0,0
5078,2339931,1,0,0
5079,2339941,1,0,0
5080,2339951,1,0,0
5081,2339961,1,0,0
5082,2339971,1,0,0
5083,2339981,1,0,0
5084,2339991,1,0,0
5085,2340001,1,0,0
5086,2340011,1,0,0
5087,2340021,1,0,0
5088,2340031,1,0,0
5089,2340041,1,0,0
5090,2340051,1,0,0
5091,2340061,1,-1,0
5092,2340071,1,0,0
5093,2340081,1,0,0
5094,2340091,1,0,0
5095,2340101,1,-1,0
5096,2340111,1,0,0
5097,2340121,1,0,0
5098,2340131,1,0,0
5099,2340141,1,-1,0
5100,2340151,1,-1,0
5101,2340161,1,0,0
5102,2340171,1,0,0
5103,2340181,1,-1,0
5104,2340191,1,0,0
5105,2340201,1,0,0
5106,2340211,1,0,0
5107,2340221,1,-1,0
5108,2340231,1,-1,0
5109,2340241,1,0,0
5110,2340251,1,0,0
5111,2340261,1,0,0
5112,2340271,1,0,0
5113,2340281,1,0,0
5114,2340291,1,0,0
5115,2340301,1,0,0
5116,2340311,1,0,0
5117,2340321,1,-1,0
5118,2340331,1,0,0
5119,2340341,1,0,0
5120,2340351,1,0,0
5121,2340361,1,0,0
5122,2340371,1,0,0
5123,2340381,1,0,0
5124,2340391,1,0,0
5125,2340401,1,0,0
5126,2340411,1,0,0
5127,2340421,1,0,0
5128,2340431,1,0,0
5129,2340441,1,0,0
5130,2340451,1,0,0
5131,2340461,1,0,0
5132,2340471,1,0,0
5133,2340481,0,0,0
5134,2340491,1,0,0
5135,2340501,1,0,0
5136,2340511,1,0,0
5137,2340521,1,0,0
5138,2340531,1,0,0
5139,2340541,1,0,0
5140,2340551,1,0,0
5141,2340561,1,0,0
5142,2340571,1,0,0
5143,2340581,1,0,0
5144,2340591,1,0,0
5145,2340601,1,0,0
5146,2340611,1,-1,0
5147,2340621,1,0,0
5148,2340631,1,0,0
5149,2340641,1,0,0
5150,2340651,1,0,0
5151,2340661,1,0,0
5152,2340671,1,0,0
5153,2340681,1,0,0
5154,2340691,1,0,0
5155,2340701,1,0,0
5156,2340711,1,0,0
5157,2340721,1,0,0
5158,2340731,1,0,0
5159,2340741,0,0,0
5160,2340751,1,0,0
5161,2340761,1,0,0
5162,2340771,1,0,0
5163,2340781,1,0,0
5164,2340791,1,0,0
5165,2340801,1,0,0
5166,2340811,1,0,0
5167,2340821,1,0,0
5168,2340831,0,0,0
5169,2340841,1,0,0
5170,2340851,1,0,0
5171,2340861,1,0,0
5172,2340871,1,0,0
5173,2340881,1,0,0
5174,2340891,1,0,0
5175,2340901,1,0,0
5176,2340911,1,0,0
5177,2340921,1,0,0
5178,2340931,1,0,0
5179,2340941,1,0,0
5180,2340951,1,0,0
5181,2340961,1,0,0
5182,2340971,1,0,0
5183,2340981,1,0,0
5184,2340991,1,0,0
5185,2341001,1,0,0
5186,2341011,1,0,0
5187,2341021,1,0,0
5188,2341031,1,0,0
5189,2341041,1,0,0
5190,2341051,1,0,0
5191,2341061,1,0,0
5192,2341071,1,0,0
5193,2341081,1,0,0
5194,2341091,1,0,0
5195,2341101,1,0,0
5196,2341111,1,0,0
5197,2341121,1,0,0
5198,2341131,1,0,0
5199,2341141,1,0,0
5200,2341151,1,0,0
5201,2341161,1,0,0
5202,2341171,1,0,0
5203,2341181,1,0,0
5204,2341191,1,0,0
5205,2341201,1,0,0
5206,2341211,1,0,0
5207,2341221,1,0,0
5208,2341231,1,0,0
5209,2341241,1,0,0
5210,2341251,1,0,0
5211,2341261,1,0,0
5212,2341271,1,0,0
5213,2341281,1,0,0
5214,2341291,1,0,0
5215,2341301,1,0,0
5216,2341311,1,0,0
5217,2341321,1,0,0
5218,2341331,1,0,0
5219,2341341,1,0,0
5220,2341351,1,0,0
5221,2341361,1,0,0
5222,2341371,1,0,0
5223,2341381,1,0,0
5224,2341391,1,0,0
5225,2341401,1,0,0
5226,2341411,1,0,0
5227,2341421,1,0,0
5228,2341431,1,0,0
5229,2341441,1,0,0
5230,2341451,1,0,0
5231,2341461,1,0,0
5232,2341471,1,0,0
5233,2341481,1,0,0
5234,2341491,1,0,0
5235,2341501,1,0,0
5236,2341511,1,0,0
5237,2341521,1,0,0
5238,2341531,1,0,0
5239,2341541,1,0,0
5240,2341551,1,0,0
5241,2341561,1,0,0
5242,2341571,1,0,0
5243,2341581,1,0,0
5244,2341591,1,0,0
5245,2341601,1,0,0
5246,2341611,1,0,0
5247,2341621,1,0,0
5248,2341631,1,0,0
5249,2341641,1,0,0
5250,2341651,1,0,0
5251,2341661,1,0,0
5252,2341671,1,0,0
5253,2341681,1,0,0
5254,2341691,1,0,0
5255,2341701,1,0,0
5256,2341711,1,0,0
5257,2341721,1,0,0
5258,2341731,1,0,0
5259,2341741,1,0,0
5260,2341751,1,0,0
5261,2341761,1,0,0
5262,2341771,1,0,0
5263,2341781,1,0,0
5264,2341791,1,0,0
5265,2341801,1,0,0
5266,2341811,1,0,0
5267,2341821,1,0,0
5268,2341831,1,0,0
5269,2341841,1,0,0
5270,2341851,1,0,0
5271,2341861,1,0,0
5272,2341871,1,0,0
5273,2341881,1,0,0
5274,2341891,1,0,0
5275,2341901,1,0,0
5276,2341911,1,0,0
5277,2341921,1,0,0
5278,2341931,1,0,0
5279,2341941,1,0,0
5280,2341951,1,0,0
5281,2341961,1,0,0
5282,2341971,1,0,0
5283,2341981,1,0,0
5284,2341991,1,0,0
5285,2342001,1,0,0
5286,2342011,1,0,0
5287,2342021,1,0,0
5288,2342031,1,0,0
5289,2342041,1,0,0
5290,2342051,1,0,0
5291,2342061,1,0,0
5292,2342071,1,0,0
5293,2342081,1,0,0
5294,2342091,1,0,0
5295,2342101,1,0,0
5296,2342111,1,0,0
5297,2342121,1,0,0
5298,2342131,1,0,0
5299,2342141,1,0,0
5300,2342151,1,0,0
5301,2342161,1,0,0
5302,2342171,1,0,0
5303,2342181,1,0,0
5304,2342191,1,0,0
5305,2342201,1,0,0
5306,2342211,1,0,0
5307,2342221,1,0,0
5308,2342231,1,0,0
5309,2342241,1,0,0
5310,2342251,1,0,0
5311,2342261,1,0,0
5312,2342271,1,0,0
5313,2342281,1,0,0
5314,2342291,1,0,0
5315,2342301,1,0,0
5316,2342311,1,0,0
5317,2342321,1,0,0
5318,2342331,1,0,0
5319,2342341,1,0,0
5320,2342351,1,0,0
5321,2342361,1,0,0
5322,2342371,1,0,0
5323,2342381,1,0,0
5324,2342391,1,0,0
5325,2342401,1,0,0
5326,2342411,1,0,0
5327,2342421,1,0,0
5328,2342431,1,0,0
5329,2342441,1,0,0
5330,2342451,1,0,0
5331,2342461,1,0,0
5332,2342471,1,0,0
5333,2342481,1,0,0
5334,2342491,1,0,0
5335,2342501,1,0,0
5336,2342511,1,0,0
5337,2342521,1,0,0
5338,2342531,1,0,0
5339,2342541,1,0,0
5340,2342551,1,0,0
5341,2342561,1,0,0
5342,2342571,1,0,0
5343,2342581,1,0,0
5344,2342591,1,0,0
5345,2342601,1,0,0
5346,2342611,1,0,0
5347,2342621,1,0,0
5348,2342631,1,0,0
5349,2342641,1,0,0
5350,2342651,1,0,0
5351,2342661,1,0,0
5352,2342671,1,0,0
5353,2342681,1,0,0
5354,2342691,1,0,0
5355,2342701,1,0,0
5356,2342711,1,0,0
5357,2342721,1,0,0
5358,2342731,1,0,0
5359,2342741,1,0,0
5360,2342751,1,0,0
5361,2342761,1,0,0
5362,2342771,1,0,0
5363,2342781,1,0,0
5364,2342791,1,0,0
5365,2342801,1,0,0
5366,2342811,1,0,0
5367,2342821,1,0,0
5368,2342831,1,0,0
5369,2342841,1,0,0
5370,2342851,1,0,0
5371,2342861,1,1,0
5372,2342871,1,0,0
5373,2342881,1,0,0
5374,2342891,1,0,0
5375,2342901,1,0,0
5376,2342911,1,0,0
5377,2342921,1,0,0
5378,2342931,1,0,0
5379,2342941,1,0,0
5380,2342951,1,0,0
5381,2342961,1,0,0
5382,2342971,0,0,0
5383,2342981,1,0,0
5384,2342991,1,0,0
5385,2343001,0,0,0
5386,2343011,1,0,0
5387,2343021,1,0,0
5388,2343031,1,0,0
5389,2343041,1,0,0
5390,2343051,0,0,0
5391,2343061,1,0,0
5392,2343071,1,0,0
5393,2343081,1,0,0
5394,2343091,1,0,0
5395,2343101,1,0,0
5396,2343111,1,0,0
5397,2343121,1,0,0
5398,2343131,1,0,0
5399,2343141,1,0,0
5400,2343151,0,0,0
5401,2343161,1,0,0
5402,2343171,1,0,0
5403,2343181,1,0,0
5404,2343191,1,0,0
5405,2343201,1,0,0
5406,2343211,1,0,0
5407,2343221,1,0,0
5408,2343231,1,0,0
5409,2343241,1,0,0
5410,2343251,1,0,0
5411,2343261,1,0,0
5412,2343271,1,0,0
5413,2343281,1,0,0
5414,2343291,1,0,0
5415,2343301,1,0,0
5416,2343311,1,0,0
5417,2343321,1,0,0
5418,2343331,1,0,0
5419,2343341,1,0,0
5420,2343351,1,0,0
5421,2343361,1,0,0
5422,2343371,1,0,0
5423,2343381,1,0,0
5424,2343391,1,0,0
5425,2343401,1,0,0
5426,2343411,1,0,0
5427,2343421,1,0,0
5428,2343431,1,0,0
5429,2343441,1,-1,0
5430,2343451,1,0,0
5431,2343461,1,0,0
5432,2343471,1,0,0
5433,2343481,1,0,0
5434,2343491,1,0,0
5435,2343501,1,0,0
5436,2343511,1,0,0
5437,2343521,1,0,0
5438,2343531,1,0,0
5439,2343541,1,0,0
5440,2343551,1,0,0
5441,2343561,1,0,0
5442,2343571,1,0,0
5443,2343581,1,0,0
5444,2343591,1,0,0
5445,2343601,1,0,0
5446,2343611,1,-1,0
5447,2343621,1,-1,0
5448,2343631,1,-1,0
5449,2343641,1,0,0
5450,2343651,1,-1,0
5451,2343661,1,-1,0
5452,2343671,1,0,0
5453,2343681,1,-1,0
5454,2343691,1,0,0
5455,2343701,1,-1,0
5456,2343711,1,-1,0
5457,2343721,1,-1,0
5458,2343731,1,-1,0
5459,2343741,1,0,0
5460,2343751,1,-1,0
5461,2343761,1,-1,0
5462,2343771,1,-1,0
5463,2343781,1,-1,0
5464,2343791,1,-1,0
5465,2343801,1,-1,0
5466,2343811,1,-1,0
5467,2343821,1,0,0
5468,2343831,1,-1,0
5469,2343841,1,0,0
5470,2343851,1,-1,0
5471,2343861,1,-1,0
5472,2343871,1,0,0
5473,2343881,1,-1,0
5474,2343891,1,-1,0
5475,2343901,1,-1,0
5476,2343911,1,0,0
5477,2343921,1,-1,0
5478,2343931,1,0,0
5479,2343941,1,0,0
5480,2343951,1,0,0
5481,2343961,1,0,0
5482,2343971,0,0,0
5483,2343981,1,0,0
5484,2343991,1,0,0
5485,2344001,0,0,0
5486,2344011,1,0,0
5487,2344021,1,0,0
5488,2344031,1,0,0
5489,2344041,1,0,0
5490,2344051,1,0,0
5491,2344061,1,0,0
5492,2344071,1,-1,0
5493,2344081,1,0,0
5494,2344091,1,0,0
5495,2344101,1,0,0
5496,2344111,1,0,0
5497,2344121,1,0,0
5498,2344131,1,-1,0
5499,2344141,1,-1,0
5500,2344151,1,0,0
5501,2344161,1,0,0
5502,2344171,1,0,0
5503,2344181,1,-1,0
5504,2344191,1,-1,0
5505,2344201,1,-1,0
5506,2344211,1,0,0
5507,2344221,1,-1,0
5508,2344231,1,-1,0
5509,2344241,1,-1,0
5510,2344251,1,-1,0
5511,2344261,1,-1,0
5512,2344271,0,-1,0
5513,2344281,1,-1,0
5514,2344291,1,-1,0
5515,2344301,1,-1,0
5516,2344311,1,-1,0
5517,2344321,1,-1,0
5518,2344331,1,0,0
5519,2344341,1,-1,0
5520,2344351,1,-1,0
5521,2344361,1,-1,0
5522,2344371,0,-1,0
5523,2344381,1,-1,0
5524,2344391,1,-1,0
5525,2344401,1,-1,0
5526,2344411,1,-1,0
5527,2344421,1,-1,0
5528,2344431,1,-1,0
5529,2344441,1,-1,0
5530,2344451,1,-1,0
5531,2344461,1,-1,0
5532,2344471,1,-1,0
5533,2344481,1,-1,0
5534,2344491,1,-1,0
5535,2344501,1,-1,0
5536,2344511,0,0,0
5537,2344521,1,-1,0
5538,2344531,1,-1,0
5539,2344541,1,-1,0
5540,2344551,1,-1,0
5541,2344561,1,-1,0
5542,2344571,1,-1,0
5543,2344581,1,0,0
5544,2344591,1,-1,0
5545,2344601,1,-1,0
5546,2344611,1,0,0
5547,2344621,1,0,0
5548,2344631,1,0,0
5549,2344641,1,0,0
5550,2344651,1,0,0
5551,2344661,1,0,0
5552,2344671,0,-1,0
5553,2344681,1,0,0
5554,2344691,1,0,0
5555,2344701,1,0,0
5556,2344711,1,-1,0
5557,2344721,1,0,0
5558,2344731,1,-1,0
5559,2344741,1,0,0
5560,2344751,1,-1,0
5561,2344761,1,0,0
5562,2344771,1,0,0
5563,2344781,1,0,0
5564,2344791,1,0,0
5565,2344801,1,0,0
5566,2344811,1,0,0
5567,2344821,1,0,0
5568,2344831,1,0,0
5569,2344841,1,0,0
5570,2344851,1,0,0
5571,2344861,1,-1,0
5572,2344871,1,-1,0
5573,2344881,1,-1,0
5574,2344891,1,0,0
5575,2344901,1,0,0
5576,2344911,1,0,0
5577,2344921,1,0,0
5578,2344931,1,0,0
5579,2344941,1,0,0
5580,2344951,1,0,0
5581,2344961,1,0,0
5582,2344971,1,0,0
5583,2344981,1,0,0
5584,2344991,1,0,0
5585,2345001,1,0,0
5586,2345011,1,-1,0
5587,2345021,1,-1,0
5588,2345031,1,0,0
5589,2345041,1,0,0
5590,2345051,0,0,0
5591,2345061,1,0,0
5592,2345071,1,0,0
5593,2345081,1,0,0
5594,2345091,1,0,0
5595,2345101,1,0,0
5596,2345111,1,0,0
5597,2345121,1,-1,0
5598,2345131,1,0,0
5599,2345141,1,0,0
5600,2345151,1,-1,0
5601,2345161,1,0,0
5602,2345171,1,0,0
5603,2345181,1,0,0
5604,2345191,0,0,0
5605,2345201,1,0,0
5606,2345211,1,0,0
5607,2345221,1,0,0
5608,2345231,1,0,0
5609,2345241,1,0,0
5610,2345251,1,0,0
5611,2345261,1,0,0
5612,2345271,0,0,0
5613,2345281,1,0,0
5614,2345291,1,0,0
5615,2345301,1,0,0
5616,2345311,1,0,0
5617,2345321,1,0,0
5618,2345331,1,0,0
5619,2345341,1,0,0
5620,2345351,1,0,0
5621,2345361,1,0,0
5622,2345371,1,0,0
5623,2345381,1,0,0
5624,2345391,1,0,0
5625,2345401,1,0,0
5626,2345411,1,-1,0
5627,2345421,1,0,0
5628,2345431,1,0,0
5629,2345441,1,0,0
5630,2345451,1,0,0
5631,2345461,1,0,0
5632,2345471,1,0,0
5633,2345481,1,0,0
5634,2345491,1,0,0
5635,2345501,1,0,0
5636,2345511,1,0,0
5637,2345521,1,0,0
5638,2345531,1,0,0
5639,2345541,1,0,0
5640,2345551,1,0,0
5641,2345561,1,0,0
5642,2345571,1,0,0
5643,2345581,1,0,0
5644,2345591,0,0,0
5645,2345601,1,0,0
5646,2345611,1,0,0
5647,2345621,1,0,0
5648,2345631,1,0,0
5649,2345641,1,0,0
5650,2345651,1,0,0
5651,2345661,1,0,0
5652,2345671,0,0,0
5653,2345681,1,0,0
5654,2345691,1,0,0
5655,2345701,1,0,0
5656,2345711,1,0,0
5657,2345721,1,0,0
5658,2345731,1,0,0
5659,2345741,1,0,0
5660,2345751,1,0,0
5661,2345761,0,0,0
5662,2345771,0,0,0
5663,2345781,1,0,0
5664,2345791,1,0,0
5665,2345801,1,0,0
5666,2345811,1,0,0
5667,2345821,1,0,0
5668,2345831,1,0,0
5669,2345841,1,0,0
5670,2345851,1,0,0
5671,2345861,1,0,0
5672,2345871,1,0,0
5673,2345881,1,0,0
5674,2345891,0,0,0
5675,2345901,1,0,0
5676,2345911,1,0,0
5677,2345921,1,0,0
5678,2345931,1,0,0
5679,2345941,1,0,0
5680,2345951,1,0,0
5681,2345961,1,0,0
5682,2345971,1,0,0
5683,2345981,1,0,0
5684,2345991,1,0,0
5685,2346001,1,0,0
5686,2346011,0,0,0
5687,2346021,1,0,0
5688,2346031,1,0,0
5689,2346041,1,0,0
5690,2346051,1,0,0
5691,2346061,1,0,0
5692,2346071,1,0,0
5693,2346081,1,0,0
5694,2346091,1,0,0
5695,2346101,1,0,0
5696,2346111,1,0,0
5697,2346121,1,0,0
5698,2346131,1,0,0
5699,2346141,1,0,0
5700,2346151,1,0,0
5701,2346161,1,0,0
5702,2346171,1,0,0
5703,2346181,1,0,0
5704,2346191,1,0,0
5705,2346201,1,0,0
5706,2346211,1,0,0
5707,2346221,1,0,0
5708,2346231,1,0,0
5709,2346241,1,0,0
5710,2346251,1,0,0
5711,2346261,1,0,0
5712,2346271,1,0,0
5713,2346281,0,0,0
5714,2346291,1,0,0
5715,2346301,1,0,0
5716,2346311,1,0,0
5717,2346321,0,0,0
5718,2346331,1,0,0
5719,2346341,0,0,0
5720,2346351,1,0,0
5721,2346361,1,0,0
5722,2346371,1,0,0
5723,2346381,1,0,0
5724,2346391,1,0,0
5725,2346401,1,0,0
5726,2346411,1,0,0
5727,2346421,1,0,0
5728,2346431,1,0,0
5729,2346441,1,0,0
5730,2346451,1,0,0
5731,2346461,1,0,0
5732,2346471,1,0,0
5733,2346481,1,0,0
5734,2346491,1,0,0
5735,2346501,1,0,0
5736,2346511,1,0,0
5737,2346521,1,0,0
5738,2346531,1,0,0
5739,2346541,1,0,0
5740,2346551,1,0,0
5741,2346561,1,0,0
5742,2346571,1,0,0
5743,2346581,1,0,0
5744,2346591,1,0,0
5745,2346601,1,0,0
5746,2346611,1,0,0
5747,2346621,1,0,0
5748,2346631,1,0,0
5749,2346641,1,0,0
5750,2346651,1,0,0
5751,2346661,1,0,0
5752,2346671,0,0,0
5753,2346681,1,0,0
5754,2346691,1,0,0
5755,2346701,1,0,0
5756,2346711,1,0,0
5757,2346721,1,0,0
5758,2346731,1,0,0
5759,2346741,1,0,0
5760,2346751,1,0,0
5761,2346761,1,0,0
5762,2346771,0,0,0
5763,2346781,1,0,0
5764,2346791,1,0,0
5765,2346801,1,0,0
5766,2346811,1,0,0
5767,2346821,1,0,0
5768,2346831,1,0,0
5769,2346841,1,0,0
5770,2346851,1,0,0
5771,2346861,1,-1,0
5772,2346871,1,0,0
5773,2346881,1,0,0
5774,2346891,1,-1,0
5775,2346901,1,0,0
5776,2346911,1,0,0
5777,2346921,1,0,0
5778,2346931,1,0,0
5779,2346941,1,0,0
5780,2346951,1,0,0
5781,2346961,1,0,0
5782,2346971,1,0,0
5783,2346981,1,-1,0
5784,2346991,0,0,0
5785,2347001,1,0,0
5786,2347011,1,0,0
5787,2347021,1,0,0
5788,2347031,1,0,0
5789,2347041,0,0,0
5790,2347051,1,-1,0
5791,2347061,1,0,0
5792,2347071,1,0,0
5793,2347081,1,0,0
5794,2347091,1,0,0
5795,2347101,1,0,0
5796,2347111,1,0,0
5797,2347121,0,-1,0
5798,2347131,1,0,0
5799,2347141,1,0,0
5800,2347151,1,0,0
5801,2347161,1,0,0
5802,2347171,0,-1,0
5803,2347181,1,0,0
5804,2347191,1,0,0
5805,2347201,1,-1,0
5806,2347211,1,0,0
5807,2347221,1,0,0
5808,2347231,1,0,0
5809,2347241,0,0,0
5810,2347251,1,-1,0
5811,2347261,1,0,0
5812,2347271,1,-1,0
5813,2347281,1,0,0
5814,2347291,1,0,0
5815,2347301,1,0,0
5816,2347311,1,0,0
5817,2347321,1,0,0
5818,2347331,1,0,0
5819,2347341,1,0,0
5820,2347351,1,0,0
5821,2347361,1,0,0
5822,2347371,1,0,0
5823,2347381,1,0,0
5824,2347391,1,0,0
5825,2347401,1,0,0
5826,2347411,1,0,0
5827,2347421,1,0,0
5828,2347431,1,0,0
5829,2347441,1,0,0
5830,2347451,1,0,0
5831,2347461,1,0,0
5832,2347471,1,-1,0
5833,2347481,1,-1,0
5834,2347491,1,0,0
5835,2347501,1,0,0
5836,2347511,1,0,0
5837,2347521,1,0,0
5838,2347531,1,0,0
5839,2347541,1,0,0
5840,2347551,1,0,0
5841,2347561,1,0,0
5842,2347571,1,0,0
5843,2347581,1,0,0
5844,2347591,1,0,0
5845,2347601,1,0,0
5846,2347611,1,0,0
5847,2347621,1,0,0
5848,2347631,1,0,0
5849,2347641,1,0,0
5850,2347651,0,0,0
5851,2347661,0,0,0
5852,2347671,1,0,0
5853,2347681,1,-1,0
5854,2347691,1,0,0
5855,2347701,1,0,0
5856,2347711,0,0,0
5857,2347721,0,0,0
5858,2347731,1,0,0
5859,2347741,1,0,0
5860,2347751,1,0,0
5861,2347761,1,0,0
5862,2347771,1,0,0
5863,2347781,1,0,0
5864,2347791,1,0,0
5865,2347801,1,0,0
5866,2347811,1,0,0
5867,2347821,1,0,0
5868,2347831,1,0,0
5869,2347841,1,0,0
5870,2347851,1,0,0
5871,2347861,1,-1,0
5872,2347871,1,0,0
5873,2347881,1,0,0
5874,2347891,1,0,0
5875,2347901,1,0,0
5876,2347911,1,0,0
5877,2347921,1,0,0
5878,2347931,1,0,0
5879,2347941,1,0,0
5880,2347951,1,0,0
5881,2347961,1,0,0
5882,2347971,1,0,0
5883,2347981,1,0,0
5884,2347991,1,-1,0
5885,2348001,1,0,0
5886,2348011,1,0,0
5887,2348021,1,0,0
5888,2348031,1,0,0
5889,2348041,1,0,0
5890,2348051,1,0,0
5891,2348061,1,0,0
5892,2348071,1,0,0
5893,2348081,1,0,0
5894,2348091,1,0,0
5895,2348101,1,0,0
5896,2348111,1,0,0
5897,2348121,1,0,0
5898,2348131,1,0,0
5899,2348141,0,0,0
5900,2348151,1,0,0
5901,2348161,1,0,0
5902,2348171,1,0,0
5903,2348181,1,0,0
5904,2348191,1,0,0
5905,2348201,1,0,0
5906,2348211,1,0,0
5907,2348221,1,0,0
5908,2348231,1,0,0
5909,2348241,1,0,0
5910,2348251,1,0,0
5911,2348261,1,0,0
5912,2348271,1,0,0
5913,2348281,1,0,0
5914,2348291,1,0,0
5915,2348301,1,0,0
5916,2348311,1,0,0
5917,2348321,1,0,0
5918,2348331,1,0,0
5919,2348341,1,0,0
5920,2348351,1,0,0
5921,2348361,1,0,0
5922,2348371,1,0,0
5923,2348381,1,0,0
5924,2348391,1,0,0
5925,2348401,1,0,0
5926,2348411,1,0,0
5927,2348421,1,0,0
5928,2348431,1,0,0
5929,2348441,1,0,0
5930,2348451,1,0,0
5931,2348461,1,0,0
5932,2348471,1,0,0
5933,2348481,1,0,0
5934,2348491,1,0,0
5935,2348501,1,0,0
5936,2348511,1,0,0
5937,2348521,1,0,0
5938,2348531,1,0,0
5939,2348541,1,0,0
5940,2348551,1,0,0
5941,2348561,1,0,0
5942,2348571,1,0,0
5943,2348581,1,0,0
5944,2348591,1,0,0
5945,2348601,1,0,0
5946,2348611,1,0,0
5947,2348621,1,0,0
5948,2348631,1,0,0
5949,2348641,1,0,0
5950,2348651,1,0,0
5951,2348661,1,0,0
5952,2348671,1,0,0
5953,2348681,1,0,0
5954,2348691,1,0,0
5955,2348701,1,0,0
5956,2348711,1,0,0
5957,2348721,1,0,0
5958,2348731,1,0,0
5959,2348741,1,0,0
5960,2348751,1,0,0
5961,2348761,1,0,0
5962,2348771,1,0,0
5963,2348781,1,0,0
5964,2348791,1,0,0
5965,2348801,1,0,0
5966,2348811,0,0,0
5967,2348821,1,0,0
5968,2348831,1,0,0
5969,2348841,1,0,0
5970,2348851,1,0,0
5971,2348861,1,0,0
5972,2348871,1,0,0
5973,2348881,1,0,0
5974,2348891,1,0,0
5975,2348901,1,0,0
5976,2348911,1,0,0
5977,2348921,1,0,0
5978,2348931,1,0,0
5979,2348941,1,0,0
5980,2348951,1,0,0
5981,2348961,1,0,0
5982,2348971,1,0,0
5983,2348981,1,0,0
5984,2348991,1,0,0
5985,2349001,1,0,0
5986,2349011,1,0,0
5987,2349021,1,0,0
5988,2349031,1,0,0
5989,2349041,1,0,0
5990,2349051,1,0,0
5991,2349061,1,0,0
5992,2349071,1,0,0
5993,2349081,1,0,0
5994,2349091,1,0,0
5995,2349101,1,0,0
5996,2349111,1,0,0
5997,2349121,1,0,0
5998,2349131,1,0,0
5999,2349141,0,0,0
6000,2349151,1,0,0
6001,2349161,1,0,0
6002,2349171,1,0,0
6003,2349181,1,0,0
6004,2349191,1,0,0
6005,2349201,1,0,0
6006,2349211,1,0,0
6007,2349221,1,0,0
6008,2349231,1,0,0
6009,2349241,1,0,0
6010,2349251,1,0,0
6011,2349261,1,0,0
6012,2349271,1,0,0
6013,2349281,1,0,0
6014,2349291,1,0,0
6015,2349301,1,0,0
6016,2349311,1,0,0
6017,2349321,1,0,0
6018,2349331,0,0,0
6019,2349341,1,0,0
6020,2349351,1,0,0
6021,2349361,1,0,0
6022,2349371,1,0,0
6023,2349381,1,0,0
6024,2349391,1,0,0
6025,2349401,1,0,0
6026,2349411,1,0,0
6027,2349421,1,0,0
6028,2349431,1,0,0
6029,2349441,1,0,0
6030,2349451,1,0,0
6031,2349461,1,0,0
6032,2349471,1,0,0
6033,2349481,1,0,0
6034,2349491,1,0,0
6035,2349501,1,0,0
6036,2349511,1,0,0
6037,2349521,1,0,0
6038,2349531,1,0,0
6039,2349541,0,0,0
6040,2349551,1,0,0
6041,2349561,1,0,0
6042,2349571,1,0,0
6043,2349581,1,0,0
6044,2349591,1,0,0
6045,2349601,1,0,0
6046,2349611,1,0,0
6047,2349621,1,0,0
6048,2349631,1,0,0
6049,2349641,1,0,0
6050,2349651,1,0,0
6051,2349661,1,0,0
6052,2349671,1,0,0
6053,2349681,1,0,0
6054,2349691,1,0,0
6055,2349701,1,0,0
6056,2349711,1,0,0
6057,2349721,1,0,0
6058,2349731,1,0,0
6059,2349741,1,0,0
6060,2349751,0,0,0
6061,2349761,1,0,0
6062,2349771,1,0,0
6063,2349781,1,0,0
6064,2349791,1,0,0
6065,2349801,1,0,0
6066,2349811,1,0,0
6067,2349821,1,0,0
6068,2349831,1,0,0
6069,2349841,1,0,0
6070,2349851,1,0,0
6071,2349861,1,0,0
6072,2349871,1,0,0
6073,2349881,1,0,0
6074,2349891,1,0,0
6075,2349901,1,0,0
6076,2349911,1,0,0
6077,2349921,1,0,0
6078,2349931,1,0,0
6079,2349941,1,0,0
6080,2349951,1,0,0
6081,2349961,1,0,0
6082,2349971,1,0,0
6083,2349981,1,0,0
6084,2349991,1,0,0
6085,2350001,1,0,0
6086,2350011,1,0,0
6087,2350021,1,0,0
6088,2350031,1,0,0
6089,2350041,1,0,0
6090,2350051,1,0,0
6091,2350061,1,0,0
6092,2350071,1,0,0
6093,2350081,1,0,0
6094,2350091,1,0,0
6095,2350101,1,0,0
6096,2350111,1,0,0
6097,2350121,1,0,0
6098,2350131,1,0,0
6099,2350141,1,0,0
6100,2350151,1,0,0
6101,2350161,1,0,0
6102,2350171,1,0,0
6103,2350181,1,0,0
6104,2350191,1,0,0
6105,2350201,1,0,0
6106,2350211,1,0,0
6107,2350221,1,0,0
6108,2350231,0,0,0
6109,2350241,1,0,0
6110,2350251,1,0,0
6111,2350261,1,0,0
6112,2350271,1,0,0
6113,2350281,1,0,0
6114,2350291,1,0,0
6115,2350301,1,0,0
6116,2350311,1,0,0
6117,2350321,1,0,0
6118,2350331,1,0,0
6119,2350341,1,0,0
6120,2350351,1,0,0
6121,2350361,1,0,0
6122,2350371,1,0,0
6123,2350381,1,0,0
6124,2350391,1,0,0
6125,2350401,1,0,0
6126,2350411,1,0,0
6127,2350421,1,0,0
6128,2350431,1,0,0
6129,2350441,1,0,0
6130,2350451,1,0,0
6131,2350461,1,0,0
6132,2350471,1,0,0
6133,2350481,1,0,0
6134,2350491,1,0,0
6135,2350501,1,0,0
6136,2350511,1,0,0
6137,2350521,1,0,0
6138,2350531,1,0,0
6139,2350541,1,0,0
6140,2350551,1,0,0
6141,2350561,1,0,0
6142,2350571,1,0,0
6143,2350581,1,0,0
6144,2350591,1,0,0
6145,2350601,1,0,0
6146,2350611,1,0,0
6147,2350621,1,0,0
6148,2350631,1,0,0
6149,2350641,1,0,0
6150,2350651,1,0,0
6151,2350661,1,0,0
6152,2350671,1,0,0
6153,2350681,1,0,0
6154,2350691,1,0,0
6155,2350701,1,0,0
6156,2350711,1,0,0
6157,2350721,1,0,0
6158,2350731,1,0,0
6159,2350741,1,0,0
6160,2350751,1,0,0
6161,2350761,1,0,0
6162,2350771,0,0,0
6163,2350781,1,0,0
6164,2350791,1,0,0
6165,2350801,1,0,0
6166,2350811,1,0,0
6167,2350821,1,0,0
6168,2350831,1,0,0
6169,2350841,1,0,0
6170,2350851,1,0,0
6171,2350861,1,0,0
6172,2350871,1,0,0
6173,2350881,1,0,0
6174,2350891,1,0,0
6175,2350901,1,0,0
6176,2350911,1,0,0
6177,2350921,1,0,0
6178,2350931,1,0,0
6179,2350941,1,0,0
6180,2350951,1,0,0
6181,2350961,1,0,0
6182,2350971,1,0,0
6183,2350981,0,0,0
6184,2350991,0,0,0
6185,2351001,1,0,0
6186,2351011,1,0,0
6187,2351021,1,0,0
6188,2351031,1,0,0
6189,2351041,1,0,0
6190,2351051,1,0,0
6191,2351061,1,0,0
6192,2351071,1,0,0
6193,2351081,1,0,0
6194,2351091,0,0,0
6195,2351101,1,0,0
6196,2351111,1,0,0
6197,2351121,1,0,0
6198,2351131,1,0,0
6199,2351141,1,0,0
6200,2351151,1,0,0
6201,2351161,1,0,0
6202,2351171,1,0,0
6203,2351181,1,0,0
6204,2351191,0,0,0
6205,2351201,0,0,0
6206,2351211,0,0,0
6207,2351221,1,0,0
6208,2351231,1,0,0
6209,2351241,1,0,0
6210,2351251,1,0,0
6211,2351261,1,0,0
6212,2351271,1,0,0
6213,2351281,1,0,0
6214,2351291,1,0,0
6215,2351301,1,0,0
6216,2351311,1,0,0
6217,2351321,1,0,0
6218,2351331,1,0,0
6219,2351341,1,0,0
6220,2351351,1,0,0
6221,2351361,1,0,0
6222,2351371,1,0,0
6223,2351381,1,0,0
6224,2351391,1,0,0
6225,2351401,0,0,0
6226,2351411,1,0,0
6227,2351421,1,0,0
6228,2351431,1,0,0
6229,2351441,1,0,0
6230,2351451,1,0,0
6231,2351461,0,-1,0
6232,2351471,1,0,0
6233,2351481,0,0,0
6234,2351491,1,0,0
6235,2351501,1,0,0
6236,2351511,1,0,0
6237,2351521,1,0,0
6238,2351531,1,0,0
6239,2351541,1,0,0
6240,2351551,1,-1,0
6241,2351561,0,0,0
6242,2351571,1,0,0
6243,2351581,1,-1,0
6244,2351591,1,0,0
6245,2351601,0,0,0
6246,2351611,1,0,0
6247,2351621,1,-1,0
6248,2351631,1,0,0
6249,2351641,1,0,0
6250,2351651,1,0,0
6251,2351661,1,0,0
6252,2351671,1,0,0
6253,2351681,1,0,0
6254,2351691,1,0,0
6255,2351701,1,0,0
6256,2351711,1,0,0
6257,2351721,1,0,0
6258,2351731,1,0,0
6259,2351741,1,0,0
6260,2351751,1,0,0
6261,2351761,1,0,0
6262,2351771,1,0,0
6263,2351781,1,0,0
6264,2351791,1,0,0
6265,2351801,1,0,0
6266,2351811,1,0,0
6267,2351821,1,0,0
6268,2351831,1,0,0
6269,2351841,1,0,0
6270,2351851,1,0,0
6271,2351861,1,0,0
6272,2351871,1,0,0
6273,2351881,1,0,0
6274,2351891,1,0,0
6275,2351901,1,0,0
6276,2351911,1,0,0
6277,2351921,1,0,0
6278,2351931,1,0,0
6279,2351941,1,0,0
6280,2351951,1,0,0
6281,2351961,1,0,0
6282,2351971,1,0,0
6283,2351981,1,0,0
6284,2351991,0,0,0
6285,2352001,1,0,0
6286,2352011,1,0,0
6287,2352021,1,0,0
6288,2352031,1,0,0
6289,2352041,1,0,0
6290,2352051,1,0,0
6291,2352061,1,0,0
6292,2352071,0,0,0
6293,2352081,1,0,0
6294,2352091,0,0,0
6295,2352101,1,0,0
6296,2352111,1,0,0
6297,2352121,1,0,0
6298,2352131,1,0,0
6299,2352141,1,0,0
6300,2352151,1,0,0
6301,2352161,0,0,0
6302,2352171,1,0,0
6303,2352181,1,-1,0
