,ts,Ax,Ay,Az
0,0.009,0.78125,0.0,0.0
1,0.019,1.5625,0.0,0.0
2,0.029,1.5625,-0.78125,0.0
3,0.039,1.5625,-0.78125,0.0
4,0.049,1.5625,-0.78125,0.0
5,0.059,1.5625,0.78125,0.0
6,0.069,1.5625,0.0,0.0
7,0.079,1.5625,0.0,0.0
8,0.089,1.5625,-0.78125,0.0
9,0.099,1.5625,0.0,0.0
10,0.109,1.5625,0.0,0.0
11,0.119,1.5625,0.0,0.0
12,0.129,1.5625,0.78125,0.0
13,0.139,1.5625,0.0,0.0
14,0.149,1.5625,0.0,0.0
15,0.159,1.5625,0.0,0.0
16,0.169,1.5625,0.0,0.0
17,0.179,1.5625,0.0,0.0
18,0.189,1.5625,-0.78125,0.0
19,0.199,1.5625,0.0,0.0
20,0.209,1.5625,0.0,0.0
21,0.219,1.5625,0.0,0.0
22,0.229,1.5625,0.0,0.0
23,0.239,1.5625,0.0,0.0
24,0.249,1.5625,0.0,0.0
25,0.259,1.5625,0.0,0.0
26,0.269,1.5625,0.0,0.0
27,0.279,1.5625,0.0,0.0
28,0.289,1.5625,0.0,0.0
29,0.299,1.5625,-0.78125,0.0
30,0.309,1.5625,0.0,0.0
31,0.319,1.5625,-0.78125,0.0
32,0.329,1.5625,0.0,0.0
33,0.339,1.5625,0.0,0.0
34,0.349,1.5625,0.0,0.0
35,0.359,1.5625,0.0,0.0
36,0.369,1.5625,0.0,0.0
37,0.379,1.5625,0.0,0.0
38,0.389,1.5625,0.0,0.0
39,0.399,1.5625,0.0,0.0
40,0.409,1.5625,0.0,0.0
41,0.419,1.5625,0.0,0.0
42,0.429,1.5625,0.0,0.0
43,0.439,1.5625,-0.78125,0.0
44,0.449,1.5625,-0.78125,0.0
45,0.459,1.5625,-0.78125,0.0
46,0.469,1.5625,0.0,0.0
47,0.479,1.5625,0.0,0.0
48,0.489,1.5625,0.0,0.0
49,0.499,1.5625,0.0,0.0
50,0.509,1.5625,0.0,0.0
51,0.519,1.5625,-0.78125,0.0
52,0.529,1.5625,0.0,0.0
53,0.539,1.5625,0.0,0.0
54,0.549,1.5625,0.0,0.0
55,0.559,1.5625,0.0,0.0
56,0.569,1.5625,0.0,0.0
57,0.579,1.5625,-0.78125,0.0
58,0.589,1.5625,0.0,0.0
59,0.599,1.5625,-0.78125,0.0
60,0.609,0.78125,0.0,0.0
61,0.619,1.5625,0.0,0.0
62,0.629,1.5625,0.0,0.0
63,0.639,1.5625,0.0,0.0
64,0.649,1.5625,-0.78125,0.0
65,0.659,1.5625,0.0,0.0
66,0.669,1.5625,0.0,0.0
67,0.679,1.5625,0.0,0.0
68,0.689,0.78125,0.0,0.0
69,0.699,1.5625,0.0,0.0
70,0.709,1.5625,0.0,0.0
71,0.719,1.5625,0.0,0.0
72,0.729,1.5625,0.0,0.0
73,0.739,1.5625,-0.78125,0.0
74,0.749,1.5625,-0.78125,0.0
75,0.759,1.5625,0.0,0.0
76,0.769,1.5625,0.0,0.0
77,0.779,1.5625,0.0,0.0
78,0.789,1.5625,0.0,0.0
79,0.799,1.5625,0.0,0.0
80,0.809,1.5625,0.0,0.0
81,0.819,1.5625,0.0,0.0
82,0.829,1.5625,-0.78125,0.0
83,0.839,1.5625,0.0,0.0
84,0.849,0.78125,0.0,0.0
85,0.859,1.5625,0.0,0.0
86,0.869,1.5625,0.0,0.0
87,0.879,1.5625,-0.78125,0.0
88,0.889,1.5625,-0.78125,0.0
89,0.899,1.5625,0.0,0.0
90,0.909,0.78125,0.0,0.0
91,0.919,1.5625,0.0,0.0
92,0.929,1.5625,0.0,0.0
93,0.939,1.5625,0.0,0.0
94,0.949,1.5625,0.78125,0.0
95,0.959,1.5625,0.0,0.0
96,0.969,0.78125,0.0,0.0
97,0.979,0.78125,0.0,0.0
98,0.989,1.5625,0.0,0.0
99,0.999,1.5625,-0.78125,0.0
100,1.009,1.5625,-0.78125,0.0
101,1.019,1.5625,-0.78125,0.0
102,1.029,1.5625,0.0,0.0
103,1.039,1.5625,0.0,0.0
104,1.049,1.5625,0.0,0.0
105,1.059,1.5625,0.0,0.0
106,1.069,1.5625,0.0,0.0
107,1.079,1.5625,0.0,0.0
108,1.089,1.5625,0.0,0.0
109,1.099,1.5625,0.0,0.0
110,1.109,1.5625,0.0,0.0
111,1.119,1.5625,-0.78125,0.0
112,1.129,1.5625,0.0,0.0
113,1.139,1.5625,-0.78125,0.0
114,1.149,1.5625,-0.78125,0.0
115,1.159,1.5625,-0.78125,0.0
116,1.169,0.78125,0.0,0.0
117,1.179,1.5625,0.0,0.0
118,1.189,1.5625,0.0,0.0
119,1.199,1.5625,0.78125,0.0
120,1.209,1.5625,-0.78125,0.0
121,1.219,1.5625,0.0,0.0
122,1.229,1.5625,0.0,0.0
123,1.239,1.5625,0.0,0.0
124,1.249,1.5625,0.0,0.0
125,1.259,0.78125,-0.78125,0.0
126,1.269,1.5625,-0.78125,0.0
127,1.279,1.5625,0.0,0.0
128,1.289,1.5625,0.0,0.0
129,1.299,1.5625,0.0,0.0
130,1.309,0.78125,-0.78125,0.0
131,1.319,0.78125,0.0,0.0
132,1.329,0.78125,0.0,0.0
133,1.339,1.5625,0.0,0.0
134,1.349,1.5625,0.0,0.0
135,1.359,1.5625,0.0,0.0
136,1.369,1.5625,0.0,0.0
137,1.379,1.5625,-0.78125,0.0
138,1.389,1.5625,0.0,0.0
139,1.399,1.5625,-0.78125,0.0
140,1.409,1.5625,-0.78125,0.0
141,1.419,1.5625,-0.78125,0.0
142,1.429,1.5625,0.0,0.0
143,1.439,1.5625,-0.78125,0.0
144,1.449,1.5625,0.0,0.0
145,1.459,1.5625,0.0,0.0
146,1.469,1.5625,0.0,0.0
147,1.479,1.5625,0.0,0.0
148,1.489,1.5625,0.0,0.0
149,1.499,1.5625,0.0,0.0
150,1.509,1.5625,0.0,0.0
151,1.519,0.78125,0.0,0.0
152,1.529,1.5625,-0.78125,0.0
153,1.539,1.5625,0.0,0.0
154,1.549,1.5625,-0.78125,0.0
155,1.559,1.5625,0.0,0.0
156,1.569,1.5625,-0.78125,0.0
157,1.579,0.78125,0.0,0.0
158,1.589,1.5625,-0.78125,0.0
159,1.599,1.5625,0.0,0.0
160,1.609,1.5625,0.78125,0.0
161,1.619,1.5625,0.0,0.0
162,1.629,1.5625,0.0,0.0
163,1.639,1.5625,-0.78125,0.0
164,1.649,1.5625,0.0,0.0
165,1.659,1.5625,-0.78125,0.0
166,1.669,1.5625,0.0,0.0
167,1.679,1.5625,0.0,0.0
168,1.689,1.5625,0.0,0.0
169,1.699,1.5625,-0.78125,0.0
170,1.709,1.5625,0.0,0.0
171,1.719,1.5625,0.0,0.0
172,1.729,1.5625,0.0,0.0
173,1.739,1.5625,0.0,0.0
174,1.749,1.5625,0.78125,0.0
175,1.759,1.5625,0.0,0.0
176,1.769,1.5625,0.0,0.0
177,1.779,1.5625,-0.78125,0.0
178,1.789,1.5625,0.0,0.0
179,1.799,1.5625,-0.78125,0.0
180,1.809,1.5625,0.0,0.0
181,1.819,1.5625,0.0,0.0
182,1.829,0.78125,0.0,0.0
183,1.839,1.5625,0.0,0.0
184,1.849,1.5625,0.0,0.0
185,1.859,1.5625,0.0,0.0
186,1.869,1.5625,0.0,0.0
187,1.879,1.5625,0.0,0.0
188,1.889,1.5625,0.0,0.0
189,1.899,1.5625,0.0,0.0
190,1.909,1.5625,0.0,0.0
191,1.919,1.5625,-0.78125,0.0
192,1.929,1.5625,-0.78125,0.0
193,1.939,1.5625,-0.78125,0.0
194,1.949,1.5625,-0.78125,0.0
195,1.959,0.78125,0.0,0.0
196,1.969,1.5625,0.0,0.0
197,1.979,1.5625,0.0,0.0
198,1.989,1.5625,0.0,0.0
199,1.999,1.5625,0.0,0.0
200,2.009,1.5625,0.0,0.0
201,2.019,0.78125,0.0,0.0
202,2.029,1.5625,0.0,0.0
203,2.039,1.5625,0.0,0.0
204,2.049,1.5625,-0.78125,0.0
205,2.059,1.5625,-0.78125,0.0
206,2.069,0.78125,-0.78125,0.0
207,2.079,1.5625,-0.78125,0.0
208,2.089,1.5625,0.0,0.0
209,2.099,0.78125,0.0,0.0
210,2.109,1.5625,0.78125,0.0
211,2.119,1.5625,0.0,0.0
212,2.129,1.5625,0.0,0.0
213,2.139,0.78125,-0.78125,0.0
214,2.149,1.5625,-0.78125,0.0
215,2.159,1.5625,-0.78125,0.0
216,2.169,1.5625,0.0,0.0
217,2.179,1.5625,-0.78125,0.0
218,2.189,1.5625,0.0,0.0
219,2.199,0.78125,-0.78125,0.0
220,2.209,1.5625,-0.78125,0.0
221,2.219,1.5625,0.0,0.0
222,2.229,1.5625,0.0,0.0
223,2.239,1.5625,0.78125,0.0
224,2.249,1.5625,0.78125,0.0
225,2.259,1.5625,0.0,0.0
226,2.269,1.5625,0.0,0.0
227,2.279,1.5625,-0.78125,0.0
228,2.289,1.5625,-0.78125,0.0
229,2.299,1.5625,-0.78125,0.0
230,2.309,1.5625,0.0,0.0
231,2.319,1.5625,-0.78125,0.0
232,2.329,1.5625,0.0,0.0
233,2.339,1.5625,0.0,0.0
234,2.349,1.5625,0.0,0.0
235,2.359,1.5625,0.0,0.0
236,2.369,1.5625,0.0,0.0
237,2.379,1.5625,0.0,0.0
238,2.389,1.5625,0.0,0.0
239,2.399,1.5625,-0.78125,0.0
240,2.409,1.5625,0.0,0.0
241,2.419,1.5625,-0.78125,0.0
242,2.429,1.5625,-0.78125,0.0
243,2.439,0.78125,-0.78125,0.0
244,2.449,1.5625,0.0,0.0
245,2.459,1.5625,0.0,0.0
246,2.469,1.5625,0.78125,0.0
247,2.479,1.5625,0.0,0.0
248,2.489,1.5625,0.0,0.0
249,2.499,1.5625,0.0,0.0
250,2.509,1.5625,0.0,0.0
251,2.519,1.5625,-0.78125,0.0
252,2.529,1.5625,0.0,0.0
253,2.539,1.5625,0.0,0.0
254,2.549,1.5625,-0.78125,0.0
255,2.559,1.5625,-0.78125,0.0
256,2.569,1.5625,0.0,0.0
257,2.579,1.5625,-0.78125,0.0
258,2.589,1.5625,0.0,0.0
259,2.599,1.5625,0.0,0.0
260,2.609,1.5625,0.78125,0.0
261,2.619,1.5625,0.0,0.0
262,2.629,1.5625,0.0,0.0
263,2.639,1.5625,0.0,0.0
264,2.649,1.5625,-0.78125,0.0
265,2.659,1.5625,0.0,0.0
266,2.669,1.5625,-0.78125,0.0
267,2.679,1.5625,0.0,0.0
268,2.689,1.5625,0.0,0.0
269,2.699,0.78125,-0.78125,0.0
270,2.709,0.78125,0.0,0.0
271,2.719,1.5625,0.0,0.0
272,2.729,1.5625,0.0,0.0
273,2.739,1.5625,0.0,0.0
274,2.749,1.5625,0.0,0.0
275,2.759,0.78125,0.0,0.0
276,2.769,1.5625,0.0,0.0
277,2.779,1.5625,-0.78125,0.0
278,2.789,1.5625,0.0,0.0
279,2.799,1.5625,-0.78125,0.0
280,2.809,1.5625,0.0,0.0
281,2.819,1.5625,0.0,0.0
282,2.829,1.5625,0.0,0.0
283,2.839,1.5625,0.0,0.0
284,2.849,1.5625,0.0,0.0
285,2.859,1.5625,0.0,0.0
286,2.869,1.5625,0.0,0.0
287,2.879,1.5625,0.0,0.0
288,2.889,0.78125,0.0,0.0
289,2.899,0.78125,0.0,0.0
290,2.909,1.5625,-0.78125,0.0
291,2.919,1.5625,-0.78125,0.0
292,2.929,1.5625,-0.78125,0.0
293,2.939,1.5625,0.0,0.0
294,2.949,1.5625,-0.78125,0.0
295,2.959,0.78125,0.0,0.0
296,2.969,1.5625,0.0,0.0
297,2.979,1.5625,0.0,0.0
298,2.989,1.5625,0.0,0.0
299,2.999,1.5625,0.0,0.0
300,3.009,1.5625,0.0,0.0
301,3.019,1.5625,0.0,0.0
302,3.029,1.5625,-0.78125,0.0
303,3.039,1.5625,-0.78125,0.0
304,3.049,1.5625,-0.78125,0.0
305,3.059,1.5625,-0.78125,0.0
306,3.069,1.5625,-0.78125,0.0
307,3.079,0.78125,-0.78125,0.0
308,3.089,0.78125,0.0,0.0
309,3.099,1.5625,0.0,0.0
310,3.109,1.5625,0.0,0.0
311,3.119,1.5625,0.0,0.0
312,3.129,1.5625,0.78125,0.0
313,3.139,1.5625,0.0,0.0
314,3.149,0.78125,0.0,0.0
315,3.159,0.78125,0.0,0.0
316,3.169,1.5625,-0.78125,0.0
317,3.179,1.5625,0.0,0.0
318,3.189,1.5625,-0.78125,0.0
319,3.199,1.5625,0.0,0.0
320,3.209,1.5625,-0.78125,0.0
321,3.219,1.5625,0.0,0.0
322,3.229,1.5625,0.0,0.0
323,3.239,0.78125,0.0,0.0
324,3.249,1.5625,0.0,0.0
325,3.259,1.5625,0.78125,0.0
326,3.269,1.5625,0.0,0.0
327,3.279,1.5625,0.0,0.0
328,3.289,1.5625,0.0,0.0
329,3.299,0.78125,0.0,0.0
330,3.309,1.5625,0.0,0.0
331,3.319,1.5625,0.0,0.0
332,3.329,1.5625,0.0,0.0
333,3.339,1.5625,0.0,0.0
334,3.349,1.5625,-0.78125,0.0
335,3.359,1.5625,0.0,0.0
336,3.369,1.5625,0.0,0.0
337,3.379,1.5625,0.78125,0.0
338,3.389,1.5625,-0.78125,0.0
339,3.399,1.5625,0.78125,0.0
340,3.409,1.5625,0.0,0.0
341,3.419,1.5625,0.0,0.0
342,3.429,1.5625,-0.78125,0.0
343,3.439,1.5625,0.0,0.0
344,3.449,1.5625,0.0,0.0
345,3.459,1.5625,0.0,0.0
346,3.469,1.5625,0.0,0.0
347,3.479,1.5625,0.0,0.0
348,3.489,1.5625,-0.78125,0.0
349,3.499,1.5625,0.0,0.0
350,3.509,0.78125,0.0,0.0
351,3.519,1.5625,0.0,0.0
352,3.529,1.5625,0.0,0.0
353,3.539,1.5625,0.0,0.0
354,3.549,1.5625,0.0,0.0
355,3.559,1.5625,-0.78125,0.0
356,3.569,1.5625,0.0,0.0
357,3.579,0.78125,-0.78125,0.0
358,3.589,1.5625,0.0,0.0
359,3.599,1.5625,0.0,0.0
360,3.609,0.78125,0.0,0.0
361,3.619,0.78125,0.0,0.0
362,3.629,0.78125,0.0,0.0
363,3.639,1.5625,0.0,0.0
364,3.649,1.5625,0.0,0.0
365,3.659,1.5625,0.0,0.0
366,3.669,1.5625,0.0,0.0
367,3.679,1.5625,-0.78125,0.0
368,3.689,1.5625,-0.78125,0.0
369,3.699,0.78125,0.0,0.0
370,3.709,1.5625,0.0,0.0
371,3.719,1.5625,0.0,0.0
372,3.729,1.5625,0.0,0.0
373,3.739,1.5625,0.0,0.0
374,3.749,1.5625,0.0,0.0
375,3.759,1.5625,0.0,0.0
376,3.769,1.5625,-0.78125,0.0
377,3.779,1.5625,0.0,0.0
378,3.789,1.5625,0.0,0.0
379,3.799,1.5625,0.0,0.0
380,3.809,1.5625,-0.78125,0.0
381,3.819,1.5625,0.0,0.0
382,3.829,0.78125,-0.78125,0.0
383,3.839,1.5625,0.0,0.0
384,3.849,1.5625,0.0,0.0
385,3.859,1.5625,0.0,0.0
386,3.869,1.5625,0.0,0.0
387,3.879,1.5625,0.0,0.0
388,3.889,1.5625,0.0,0.0
389,3.899,1.5625,0.0,0.0
390,3.909,1.5625,0.0,0.0
391,3.919,1.5625,0.0,0.0
392,3.929,1.5625,0.0,0.0
393,3.939,1.5625,-0.78125,0.0
394,3.949,1.5625,0.0,0.0
395,3.959,1.5625,-0.78125,0.0
396,3.969,1.5625,0.0,0.0
397,3.979,1.5625,0.0,0.0
398,3.989,1.5625,0.0,0.0
399,3.999,1.5625,0.78125,0.0
400,4.009,1.5625,-0.78125,0.0
401,4.019,1.5625,-0.78125,0.0
402,4.029,1.5625,0.0,0.0
403,4.039,1.5625,-0.78125,0.0
404,4.049,1.5625,0.0,0.0
405,4.059,1.5625,0.0,0.0
406,4.069,1.5625,0.0,0.0
407,4.079,1.5625,0.0,0.0
408,4.089,1.5625,0.0,0.0
409,4.099,1.5625,-0.78125,0.0
410,4.109,1.5625,0.0,0.0
411,4.119,1.5625,0.0,0.0
412,4.129,1.5625,0.0,0.0
413,4.139,0.78125,0.0,0.0
414,4.149,1.5625,0.0,0.0
415,4.159,1.5625,0.0,0.0
416,4.169,1.5625,-0.78125,0.0
417,4.179,1.5625,0.0,0.0
418,4.189,0.78125,0.0,0.0
419,4.199,1.5625,0.0,0.0
420,4.209,1.5625,0.0,0.0
421,4.219,1.5625,0.0,0.0
422,4.229,1.5625,0.0,0.0
423,4.239,1.5625,0.0,0.0
424,4.249,1.5625,0.0,0.0
425,4.259,1.5625,0.0,0.0
426,4.269,1.5625,0.0,0.0
427,4.279,1.5625,0.0,0.0
428,4.289,1.5625,0.0,0.0
429,4.299,1.5625,-0.78125,0.0
430,4.309,1.5625,0.0,0.0
431,4.319,1.5625,-0.78125,0.0
432,4.329,1.5625,0.0,0.0
433,4.339,1.5625,-0.78125,0.0
434,4.349,1.5625,0.0,0.0
435,4.359,1.5625,-0.78125,0.0
436,4.369,1.5625,0.78125,0.0
437,4.379,1.5625,-0.78125,0.0
438,4.389,1.5625,0.78125,0.0
439,4.399,1.5625,-0.78125,0.0
440,4.409,1.5625,0.0,0.0
441,4.419,1.5625,0.0,0.0
442,4.429,1.5625,0.0,0.0
443,4.439,1.5625,0.0,0.0
444,4.449,1.5625,-0.78125,0.0
445,4.459,1.5625,0.0,0.0
446,4.469,1.5625,-0.78125,0.0
447,4.479,1.5625,0.0,0.0
448,4.489,1.5625,-0.78125,0.0
449,4.499,1.5625,0.0,0.0
450,4.509,1.5625,0.0,0.0
451,4.519,1.5625,0.0,0.0
452,4.529,1.5625,-0.78125,0.0
453,4.539,1.5625,0.0,0.0
454,4.549,1.5625,0.0,0.0
455,4.559,1.5625,0.0,0.0
456,4.569,1.5625,-0.78125,0.0
457,4.579,1.5625,0.0,0.0
458,4.589,1.5625,-0.78125,0.0
459,4.599,1.5625,0.0,0.0
460,4.609,1.5625,0.0,0.0
461,4.619,1.5625,-0.78125,0.0
462,4.629,1.5625,0.0,0.0
463,4.639,1.5625,-0.78125,0.0
464,4.649,1.5625,0.0,0.0
465,4.659,1.5625,-0.78125,0.0
466,4.669,1.5625,0.78125,0.0
467,4.679,1.5625,-0.78125,0.0
468,4.689,1.5625,0.78125,0.0
469,4.699,1.5625,-0.78125,0.0
470,4.709,1.5625,0.0,0.0
471,4.719,1.5625,-0.78125,0.0
472,4.729,1.5625,0.0,0.0
473,4.739,1.5625,0.0,0.0
474,4.749,1.5625,0.0,0.0
475,4.759,1.5625,0.0,0.0
476,4.769,1.5625,-0.78125,0.0
477,4.779,1.5625,0.0,0.0
478,4.789,1.5625,0.0,0.0
479,4.799,1.5625,0.0,0.0
480,4.809,1.5625,-0.78125,0.0
481,4.819,1.5625,0.0,0.0
482,4.829,1.5625,0.0,0.0
483,4.839,1.5625,0.0,0.0
484,4.849,1.5625,0.0,0.0
485,4.859,1.5625,-0.78125,0.0
486,4.869,1.5625,0.0,0.0
487,4.879,1.5625,-0.78125,0.0
488,4.889,1.5625,0.0,0.0
489,4.899,1.5625,0.0,0.0
490,4.909,0.78125,0.0,0.0
491,4.919,0.78125,0.0,0.0
492,4.929,1.5625,0.0,0.0
493,4.939,1.5625,-0.78125,0.0
494,4.949,1.5625,0.0,0.0
495,4.959,1.5625,0.0,0.0
496,4.969,1.5625,0.0,0.0
497,4.979,1.5625,0.0,0.0
498,4.989,1.5625,0.0,0.0
499,4.999,1.5625,0.0,0.0
500,5.009,1.5625,0.0,0.0
501,5.019,1.5625,0.0,0.0
502,5.029,1.5625,0.0,0.0
503,5.039,1.5625,0.0,0.0
504,5.049,1.5625,-0.78125,0.0
505,5.059,1.5625,0.0,0.0
506,5.069,1.5625,0.0,0.0
507,5.079,1.5625,0.78125,0.0
508,5.089,1.5625,0.0,0.0
509,5.099,1.5625,0.0,0.0
510,5.109,0.78125,0.0,0.0
511,5.119,1.5625,0.0,0.0
512,5.129,1.5625,0.0,0.0
513,5.139,1.5625,0.0,0.0
514,5.149,1.5625,-0.78125,0.0
515,5.159,1.5625,0.0,0.0
516,5.169,1.5625,0.0,0.0
517,5.179,0.78125,-0.78125,0.0
518,5.189,1.5625,-0.78125,0.0
519,5.199,1.5625,0.0,0.0
520,5.209,0.78125,0.0,0.0
521,5.219,1.5625,0.0,0.0
522,5.229,1.5625,0.0,0.0
523,5.239,0.78125,0.0,0.0
524,5.249,0.78125,0.0,0.0
525,5.259,1.5625,0.0,0.0
526,5.269,1.5625,0.0,0.0
527,5.279,1.5625,0.0,0.0
528,5.289,1.5625,-0.78125,0.0
529,5.299,1.5625,0.0,0.0
530,5.309,1.5625,-0.78125,0.0
531,5.319,1.5625,0.0,0.0
532,5.329,0.78125,0.0,0.0
533,5.339,1.5625,0.0,0.0
534,5.349,1.5625,0.0,0.0
535,5.359,1.5625,0.0,0.0
536,5.369,1.5625,0.0,0.0
537,5.379,1.5625,0.0,0.0
538,5.389,0.78125,0.0,0.0
539,5.399,1.5625,0.0,0.0
540,5.409,1.5625,0.0,0.0
541,5.419,1.5625,0.0,0.0
542,5.429,1.5625,0.0,0.0
543,5.439,1.5625,0.0,0.0
544,5.449,1.5625,0.0,0.0
545,5.459,0.78125,0.0,0.0
546,5.469,0.78125,0.0,0.0
547,5.479,1.5625,0.0,0.0
548,5.489,1.5625,-0.78125,0.0
549,5.499,1.5625,0.0,0.0
550,5.509,1.5625,0.0,0.0
551,5.519,1.5625,0.0,0.0
552,5.529,1.5625,0.0,0.0
553,5.539,1.5625,0.0,0.0
554,5.549,1.5625,-0.78125,0.0
555,5.559,1.5625,0.0,0.0
556,5.569,1.5625,-0.78125,0.0
557,5.579,1.5625,0.0,0.0
558,5.589,1.5625,0.0,0.0
559,5.599,1.5625,0.0,0.0
560,5.609,1.5625,0.0,0.0
561,5.619,1.5625,0.0,0.0
562,5.629,1.5625,0.0,0.0
563,5.639,1.5625,-0.78125,0.0
564,5.649,1.5625,0.0,0.0
565,5.659,1.5625,-0.78125,0.0
566,5.669,1.5625,0.0,0.0
567,5.679,1.5625,-0.78125,0.0
568,5.689,1.5625,-0.78125,0.0
569,5.699,1.5625,-0.78125,0.0
570,5.709,1.5625,0.0,0.0
571,5.719,1.5625,0.0,0.0
572,5.729,1.5625,0.0,0.0
573,5.739,1.5625,0.0,0.0
574,5.749,1.5625,0.0,0.0
575,5.759,1.5625,0.0,0.0
576,5.769,1.5625,0.0,0.0
577,5.779,1.5625,0.0,0.0
578,5.789,1.5625,0.0,0.0
579,5.799,1.5625,0.0,0.0
580,5.809,1.5625,0.0,0.0
581,5.819,1.5625,0.0,0.0
582,5.829,1.5625,-0.78125,0.0
583,5.839,0.78125,0.0,0.0
584,5.849,0.78125,0.0,0.0
585,5.859,1.5625,0.0,0.0
586,5.869,1.5625,0.78125,0.0
587,5.879,1.5625,0.0,0.0
588,5.889,1.5625,0.78125,0.0
589,5.899,1.5625,0.0,0.0
590,5.909,0.78125,0.0,0.0
591,5.919,1.5625,-0.78125,0.0
592,5.929,1.5625,-0.78125,0.0
593,5.939,1.5625,-0.78125,0.0
594,5.949,1.5625,0.0,0.0
595,5.959,0.78125,-0.78125,0.0
596,5.969,0.78125,0.0,0.0
597,5.979,1.5625,-0.78125,0.0
598,5.989,1.5625,0.0,0.0
599,5.999,1.5625,0.0,0.0
600,6.009,1.5625,0.0,0.0
601,6.019,1.5625,0.0,0.0
602,6.029,1.5625,0.0,0.0
603,6.039,1.5625,-0.78125,0.0
604,6.049,1.5625,0.0,0.0
605,6.059,1.5625,-0.78125,0.0
606,6.069,1.5625,-0.78125,0.0
607,6.079,1.5625,-0.78125,0.0
608,6.089,1.5625,-0.78125,0.0
609,6.099,0.78125,0.0,0.0
610,6.109,1.5625,0.0,0.0
611,6.119,1.5625,0.0,0.0
612,6.129,1.5625,0.0,0.0
613,6.139,1.5625,0.0,0.0
614,6.149,1.5625,0.0,0.0
615,6.159,1.5625,-0.78125,0.0
616,6.169,1.5625,-0.78125,0.0
617,6.179,1.5625,-0.78125,0.0
618,6.189,1.5625,-0.78125,0.0
619,6.199,1.5625,0.0,0.0
620,6.209,1.5625,-0.78125,0.0
621,6.219,0.78125,0.0,0.0
622,6.229,1.5625,0.0,0.0
623,6.239,1.5625,0.0,0.0
624,6.249,1.5625,0.78125,0.0
625,6.259,0.78125,0.0,0.0
626,6.269,1.5625,0.0,0.0
627,6.279,1.5625,-0.78125,0.0
628,6.289,1.5625,-0.78125,0.0
629,6.299,1.5625,0.0,0.0
630,6.309,1.5625,0.0,0.0
631,6.319,1.5625,0.0,0.0
632,6.329,1.5625,-0.78125,0.0
633,6.339,1.5625,0.0,0.0
634,6.349,0.78125,0.0,0.0
635,6.359,1.5625,0.78125,0.0
636,6.369,1.5625,0.0,0.0
637,6.379,1.5625,0.0,0.0
638,6.389,1.5625,0.0,0.0
639,6.399,1.5625,0.0,0.0
640,6.409,1.5625,0.0,0.0
641,6.419,1.5625,0.0,0.0
642,6.429,1.5625,0.0,0.0
643,6.439,1.5625,-0.78125,0.0
644,6.449,1.5625,0.0,0.0
645,6.459,0.78125,0.0,0.0
646,6.469,1.5625,0.0,0.0
647,6.479,1.5625,0.0,0.0
648,6.489,1.5625,0.0,0.0
649,6.499,1.5625,0.78125,0.0
650,6.509,1.5625,0.0,0.0
651,6.519,1.5625,0.0,0.0
652,6.529,1.5625,0.0,0.0
653,6.539,1.5625,0.0,0.0
654,6.549,1.5625,-0.78125,0.0
655,6.559,1.5625,-0.78125,0.0
656,6.569,1.5625,0.0,0.0
657,6.579,1.5625,-0.78125,0.0
658,6.589,0.78125,0.0,0.0
659,6.599,1.5625,0.0,0.0
660,6.609,1.5625,0.0,0.0
661,6.619,1.5625,0.0,0.0
662,6.629,1.5625,0.0,0.0
663,6.639,1.5625,0.0,0.0
664,6.649,1.5625,-0.78125,0.0
665,6.659,1.5625,-0.78125,0.0
666,6.669,1.5625,0.0,0.0
667,6.679,1.5625,-0.78125,0.0
668,6.689,1.5625,-0.78125,0.0
669,6.699,1.5625,-0.78125,0.0
670,6.709,1.5625,-0.78125,0.0
671,6.719,0.78125,-0.78125,0.0
672,6.729,0.78125,0.0,0.0
673,6.739,1.5625,0.0,0.0
674,6.749,1.5625,0.0,0.0
675,6.759,1.5625,0.78125,0.0
676,6.769,1.5625,-0.78125,0.0
677,6.779,0.78125,0.0,0.0
678,6.789,1.5625,0.0,0.0
679,6.799,1.5625,0.0,0.0
680,6.809,1.5625,0.0,0.0
681,6.819,1.5625,-0.78125,0.0
682,6.829,1.5625,-0.78125,0.0
683,6.839,1.5625,0.0,0.0
684,6.849,0.78125,-0.78125,0.0
685,6.859,1.5625,0.0,0.0
686,6.869,1.5625,0.0,0.0
687,6.879,1.5625,0.0,0.0
688,6.889,1.5625,0.78125,0.0
689,6.899,1.5625,0.0,0.0
690,6.909,1.5625,0.0,0.0
691,6.919,1.5625,0.0,0.0
692,6.929,1.5625,0.0,0.0
693,6.939,1.5625,0.0,0.0
694,6.949,1.5625,0.0,0.0
695,6.959,0.78125,-0.78125,0.0
696,6.969,1.5625,0.0,0.0
697,6.979,0.78125,0.0,0.0
698,6.989,1.5625,0.78125,0.0
699,6.999,1.5625,0.0,0.0
700,7.009,1.5625,0.78125,0.0
701,7.019,1.5625,0.0,0.0
702,7.029,1.5625,0.0,0.0
703,7.039,0.78125,-0.78125,0.0
704,7.049,1.5625,0.0,0.0
705,7.059,1.5625,0.0,0.0
706,7.069,1.5625,-0.78125,0.0
707,7.079,1.5625,-0.78125,0.0
708,7.089,1.5625,0.0,0.0
709,7.099,1.5625,0.0,0.0
710,7.109,1.5625,0.0,0.0
711,7.119,1.5625,0.0,0.0
712,7.129,1.5625,0.0,0.0
713,7.139,1.5625,0.0,0.0
714,7.149,1.5625,0.0,0.0
715,7.159,1.5625,0.0,0.0
716,7.169,1.5625,0.0,0.0
717,7.179,1.5625,0.0,0.0
718,7.189,1.5625,0.0,0.0
719,7.199,1.5625,-0.78125,0.0
720,7.209,1.5625,-0.78125,0.0
721,7.219,1.5625,-0.78125,0.0
722,7.229,1.5625,0.0,0.0
723,7.239,1.5625,-0.78125,0.0
724,7.249,1.5625,0.0,0.0
725,7.259,1.5625,0.0,0.0
726,7.269,1.5625,0.0,0.0
727,7.279,1.5625,0.0,0.0
728,7.289,1.5625,0.0,0.0
729,7.299,0.78125,-0.78125,0.0
730,7.309,1.5625,-0.78125,0.0
731,7.319,1.5625,-0.78125,0.0
732,7.329,1.5625,-0.78125,0.0
733,7.339,1.5625,0.0,0.0
734,7.349,1.5625,0.0,0.0
735,7.359,0.78125,0.0,0.0
736,7.369,0.78125,-0.78125,0.0
737,7.379,1.5625,0.0,0.0
738,7.389,1.5625,0.0,0.0
739,7.399,1.5625,0.0,0.0
740,7.409,1.5625,0.0,0.0
741,7.419,1.5625,0.0,0.0
742,7.429,1.5625,0.0,0.0
743,7.439,1.5625,0.0,0.0
744,7.449,1.5625,0.0,0.0
745,7.459,1.5625,-0.78125,0.0
746,7.469,1.5625,0.0,0.0
747,7.479,0.78125,0.0,0.0
748,7.489,1.5625,0.0,0.0
749,7.499,1.5625,0.0,0.0
750,7.509,1.5625,-0.78125,0.0
751,7.519,1.5625,0.0,0.0
752,7.529,1.5625,-0.78125,0.0
753,7.539,1.5625,0.0,0.0
754,7.549,1.5625,0.0,0.0
755,7.559,1.5625,0.78125,0.0
756,7.569,1.5625,-0.78125,0.0
757,7.579,1.5625,0.0,0.0
758,7.589,1.5625,0.0,0.0
759,7.599,1.5625,0.0,0.0
760,7.609,1.5625,0.0,0.0
761,7.619,1.5625,0.0,0.0
762,7.629,1.5625,0.0,0.0
763,7.639,1.5625,-0.78125,0.0
764,7.649,1.5625,-0.78125,0.0
765,7.659,1.5625,-0.78125,0.0
766,7.669,1.5625,0.0,0.0
767,7.679,1.5625,0.0,0.0
768,7.689,1.5625,0.0,0.0
769,7.699,1.5625,0.0,0.0
770,7.709,1.5625,-0.78125,0.0
771,7.719,1.5625,0.0,0.0
772,7.729,1.5625,-0.78125,0.0
773,7.739,1.5625,0.0,0.0
774,7.749,1.5625,-0.78125,0.0
775,7.759,1.5625,0.0,0.0
776,7.769,1.5625,0.0,0.0
777,7.779,1.5625,0.0,0.0
778,7.789,0.78125,0.0,0.0
779,7.799,1.5625,-0.78125,0.0
780,7.809,1.5625,0.0,0.0
781,7.819,0.78125,0.0,0.0
782,7.829,1.5625,-0.78125,0.0
783,7.839,1.5625,0.0,0.0
784,7.849,1.5625,-0.78125,0.0
785,7.859,1.5625,0.0,0.0
786,7.869,1.5625,-0.78125,0.0
787,7.879,1.5625,0.0,0.0
788,7.889,1.5625,-0.78125,0.0
789,7.899,0.78125,0.0,0.0
790,7.909,0.78125,-0.78125,0.0
791,7.919,0.78125,0.0,0.0
792,7.929,1.5625,0.0,0.0
793,7.939,1.5625,0.0,0.0
794,7.949,1.5625,0.0,0.0
795,7.959,1.5625,-0.78125,0.0
796,7.969,1.5625,0.0,0.0
797,7.979,1.5625,-0.78125,0.0
798,7.989,0.78125,0.0,0.0
799,7.999,1.5625,0.0,0.0
800,8.009,1.5625,0.0,0.0
801,8.019,1.5625,-0.78125,0.0
802,8.029,1.5625,0.0,0.0
803,8.039,1.5625,0.0,0.0
804,8.049,1.5625,0.0,0.0
805,8.059,1.5625,0.0,0.0
806,8.069,1.5625,0.0,0.0
807,8.079,1.5625,0.0,0.0
808,8.089,1.5625,0.0,0.0
809,8.099,1.5625,0.78125,0.0
810,8.109,1.5625,-0.78125,0.0
811,8.119,1.5625,0.0,0.0
812,8.129,1.5625,0.0,0.0
813,8.139,1.5625,0.0,0.0
814,8.149,1.5625,0.0,0.0
815,8.159,1.5625,0.0,0.0
816,8.169,0.78125,-0.78125,0.0
817,8.179,1.5625,0.0,0.0
818,8.189,1.5625,-0.78125,0.0
819,8.199,1.5625,0.0,0.0
820,8.209,1.5625,0.0,0.0
821,8.219,1.5625,-0.78125,0.0
822,8.229,1.5625,0.0,0.0
823,8.239,1.5625,0.0,0.0
824,8.249,1.5625,0.0,0.0
825,8.259,1.5625,-0.78125,0.0
826,8.269,1.5625,0.0,0.0
827,8.279,1.5625,0.0,0.0
828,8.289,1.5625,0.0,0.0
829,8.299,1.5625,-0.78125,0.0
830,8.309,1.5625,0.0,0.0
831,8.319,1.5625,-0.78125,0.0
832,8.329,1.5625,-0.78125,0.0
833,8.339,1.5625,-0.78125,0.0
834,8.349,1.5625,0.0,0.0
835,8.359,1.5625,-0.78125,0.0
836,8.369,1.5625,-0.78125,0.0
837,8.379,1.5625,0.0,0.0
838,8.389,1.5625,0.0,0.0
839,8.399,1.5625,0.0,0.0
840,8.409,1.5625,0.0,0.0
841,8.419,1.5625,0.0,0.0
842,8.429,0.78125,0.0,0.0
843,8.439,1.5625,0.0,0.0
844,8.449,1.5625,0.0,0.0
845,8.459,1.5625,0.0,0.0
846,8.469,0.78125,-0.78125,0.0
847,8.479,1.5625,0.0,0.0
848,8.489,1.5625,0.0,0.0
849,8.499,1.5625,0.0,0.0
850,8.509,1.5625,0.0,0.0
851,8.519,1.5625,0.0,0.0
852,8.529,1.5625,0.78125,0.0
853,8.539,1.5625,0.0,0.0
854,8.549,0.78125,0.0,0.0
855,8.559,1.5625,0.0,0.0
856,8.569,1.5625,0.0,0.0
857,8.579,1.5625,0.0,0.0
858,8.589,1.5625,0.0,0.0
859,8.599,1.5625,-0.78125,0.0
860,8.609,1.5625,0.0,0.0
861,8.619,1.5625,0.0,0.0
862,8.629,1.5625,0.0,0.0
863,8.639,1.5625,0.0,0.0
864,8.649,1.5625,0.0,0.0
865,8.659,1.5625,-0.78125,0.0
866,8.669,1.5625,0.0,0.0
867,8.679,1.5625,0.0,0.0
868,8.689,1.5625,0.0,0.0
869,8.699,1.5625,0.0,0.0
870,8.709,1.5625,0.0,0.0
871,8.719,1.5625,-0.78125,0.0
872,8.729,1.5625,0.0,0.0
873,8.739,1.5625,-0.78125,0.0
874,8.749,1.5625,0.0,0.0
875,8.759,1.5625,0.0,0.0
876,8.769,1.5625,0.0,0.0
877,8.779,1.5625,0.0,0.0
878,8.789,1.5625,0.0,0.0
879,8.799,1.5625,-0.78125,0.0
880,8.809,1.5625,0.78125,0.0
881,8.819,1.5625,-0.78125,0.0
882,8.829,1.5625,0.0,0.0
883,8.839,1.5625,-0.78125,0.0
884,8.849,0.78125,-0.78125,0.0
885,8.859,1.5625,-0.78125,0.0
886,8.869,1.5625,0.0,0.0
887,8.879,1.5625,0.0,0.0
888,8.889,1.5625,-0.78125,0.0
889,8.899,1.5625,0.0,0.0
890,8.909,1.5625,0.0,0.0
891,8.919,1.5625,0.0,0.0
892,8.929,1.5625,0.0,0.0
893,8.939,1.5625,0.0,0.0
894,8.949,1.5625,0.0,0.0
895,8.959,0.78125,0.0,0.0
896,8.969,1.5625,0.0,0.0
897,8.979,0.78125,0.0,0.0
898,8.989,0.78125,0.0,0.0
899,8.999,1.5625,0.0,0.0
900,9.009,1.5625,0.0,0.0
901,9.019,1.5625,-0.78125,0.0
902,9.029,1.5625,0.0,0.0
903,9.039,1.5625,0.0,0.0
904,9.049,1.5625,0.0,0.0
905,9.059,1.5625,0.0,0.0
906,9.069,1.5625,0.0,0.0
907,9.079,1.5625,-0.78125,0.0
908,9.089,1.5625,0.0,0.0
909,9.099,1.5625,0.0,0.0
910,9.109,1.5625,0.0,0.0
911,9.119,1.5625,0.0,0.0
912,9.129,0.78125,0.0,0.0
913,9.139,1.5625,-0.78125,0.0
914,9.149,1.5625,0.0,0.0
915,9.159,1.5625,-0.78125,0.0
916,9.169,1.5625,0.0,0.0
917,9.179,1.5625,0.0,0.0
918,9.189,1.5625,0.0,0.0
919,9.199,1.5625,0.0,0.0
920,9.209,1.5625,0.0,0.0
921,9.219,1.5625,-0.78125,0.0
922,9.229,1.5625,0.0,0.0
923,9.239,1.5625,0.0,0.0
924,9.249,1.5625,0.0,0.0
925,9.259,1.5625,0.0,0.0
926,9.269,1.5625,0.0,0.0
927,9.279,1.5625,-0.78125,0.0
928,9.289,1.5625,0.0,0.0
929,9.299,1.5625,-0.78125,0.0
930,9.309,1.5625,0.0,0.0
931,9.319,1.5625,0.0,0.0
932,9.329,1.5625,0.0,0.0
933,9.339,1.5625,0.0,0.0
934,9.349,1.5625,0.0,0.0
935,9.359,1.5625,0.0,0.0
936,9.369,1.5625,0.0,0.0
937,9.379,0.78125,0.0,0.0
938,9.389,1.5625,0.0,0.0
939,9.399,1.5625,0.0,0.0
940,9.409,1.5625,0.78125,0.0
941,9.419,1.5625,-0.78125,0.0
942,9.429,1.5625,-0.78125,0.0
943,9.439,1.5625,0.0,0.0
944,9.449,0.78125,0.0,0.0
945,9.459,1.5625,0.0,0.0
946,9.469,1.5625,0.0,0.0
947,9.479,0.78125,0.0,0.0
948,9.489,1.5625,0.0,0.0
949,9.499,1.5625,-0.78125,0.0
950,9.509,1.5625,0.0,0.0
951,9.519,1.5625,-0.78125,0.0
952,9.529,1.5625,0.0,0.0
953,9.539,1.5625,-0.78125,0.0
954,9.549,1.5625,-0.78125,0.0
955,9.559,0.78125,0.0,0.0
956,9.569,1.5625,0.0,0.0
957,9.579,1.5625,0.0,0.0
958,9.589,1.5625,-0.78125,0.0
959,9.599,1.5625,0.0,0.0
960,9.609,0.78125,0.78125,0.0
961,9.619,1.5625,0.0,0.0
962,9.629,1.5625,0.0,0.0
963,9.639,1.5625,0.0,0.0
964,9.649,1.5625,0.0,0.0
965,9.659,1.5625,-0.78125,0.0
966,9.669,1.5625,-0.78125,0.0
967,9.679,1.5625,-0.78125,0.0
968,9.689,1.5625,0.0,0.0
969,9.699,0.78125,0.0,0.0
970,9.709,1.5625,0.0,0.0
971,9.719,1.5625,0.0,0.0
972,9.729,1.5625,0.0,0.0
973,9.739,1.5625,-0.78125,0.0
974,9.749,1.5625,0.78125,0.0
975,9.759,1.5625,0.0,0.0
976,9.769,0.78125,0.0,0.0
977,9.779,1.5625,-0.78125,0.0
978,9.789,1.5625,0.0,0.0
979,9.799,1.5625,-0.78125,0.0
980,9.809,1.5625,0.0,0.0
981,9.819,1.5625,0.0,0.0
982,9.829,1.5625,0.78125,0.0
983,9.839,1.5625,0.0,0.0
984,9.849,1.5625,0.0,0.0
985,9.859,1.5625,0.78125,0.0
986,9.869,1.5625,0.0,0.0
987,9.879,1.5625,0.0,0.0
988,9.889,0.78125,0.0,0.0
989,9.899,1.5625,0.0,0.0
990,9.909,1.5625,0.0,0.0
991,9.919,1.5625,0.0,0.0
992,9.929,1.5625,-0.78125,0.0
993,9.939,1.5625,-0.78125,0.0
994,9.949,0.78125,0.0,0.0
995,9.959,1.5625,0.0,0.0
996,9.969,1.5625,0.0,0.0
997,9.979,1.5625,0.78125,0.0
998,9.989,1.5625,0.0,0.0
999,9.999,0.78125,0.78125,0.0
1000,10.009,1.5625,0.0,0.0
1001,10.019,1.5625,0.0,0.0
1002,10.029,1.5625,-0.78125,0.0
1003,10.039,1.5625,0.0,0.0
1004,10.049,1.5625,0.0,0.0
1005,10.059,1.5625,0.0,0.0
1006,10.069,1.5625,-0.78125,0.0
1007,10.079,1.5625,0.0,0.0
1008,10.089,1.5625,-0.78125,0.0
1009,10.099,1.5625,0.78125,0.0
1010,10.109,1.5625,-0.78125,0.0
1011,10.119,1.5625,0.78125,0.0
1012,10.129,1.5625,0.0,0.0
1013,10.139,1.5625,0.0,0.0
1014,10.149,0.78125,0.0,0.0
1015,10.159,1.5625,-0.78125,0.0
1016,10.169,1.5625,0.0,0.0
1017,10.179,1.5625,-0.78125,0.0
1018,10.189,1.5625,0.0,0.0
1019,10.199,1.5625,-0.78125,0.0
1020,10.209,1.5625,0.0,0.0
1021,10.219,1.5625,-0.78125,0.0
1022,10.229,1.5625,0.0,0.0
1023,10.239,1.5625,-0.78125,0.0
1024,10.249,1.5625,0.0,0.0
1025,10.259,1.5625,0.0,0.0
1026,10.269,0.78125,0.0,0.0
1027,10.279,1.5625,-0.78125,0.0
1028,10.289,1.5625,0.0,0.0
1029,10.299,1.5625,-0.78125,0.0
1030,10.309,1.5625,-0.78125,0.0
1031,10.319,1.5625,-0.78125,0.0
1032,10.329,1.5625,0.0,0.0
1033,10.339,1.5625,0.0,0.0
1034,10.349,1.5625,0.0,0.0
1035,10.359,1.5625,0.0,0.0
1036,10.369,1.5625,-0.78125,0.0
1037,10.379,1.5625,0.0,0.0
1038,10.389,1.5625,0.0,0.0
1039,10.399,1.5625,0.0,0.0
1040,10.409,1.5625,0.0,0.0
1041,10.419,1.5625,0.0,0.0
1042,10.429,1.5625,0.0,0.0
1043,10.439,1.5625,-0.78125,0.0
1044,10.449,1.5625,-0.78125,0.0
1045,10.459,1.5625,-0.78125,0.0
1046,10.469,0.78125,0.78125,0.0
1047,10.479,1.5625,0.0,0.0
1048,10.489,1.5625,0.78125,0.0
1049,10.499,1.5625,0.0,0.0
1050,10.509,1.5625,0.78125,0.0
1051,10.519,1.5625,0.0,0.0
1052,10.529,1.5625,0.0,0.0
1053,10.539,1.5625,0.0,0.0
1054,10.549,1.5625,0.0,0.0
1055,10.559,1.5625,0.0,0.0
1056,10.569,1.5625,0.0,0.0
1057,10.579,1.5625,-0.78125,0.0
1058,10.589,1.5625,0.0,0.0
1059,10.599,1.5625,-0.78125,0.0
1060,10.609,1.5625,0.78125,0.0
1061,10.619,1.5625,0.0,0.0
1062,10.629,1.5625,0.78125,0.0
1063,10.639,1.5625,0.78125,0.0
1064,10.649,1.5625,0.0,0.0
1065,10.659,1.5625,-0.78125,0.0
1066,10.669,1.5625,-0.78125,0.0
1067,10.679,1.5625,0.0,0.0
1068,10.689,1.5625,0.0,0.0
1069,10.699,1.5625,-0.78125,0.0
1070,10.709,1.5625,0.0,0.0
1071,10.719,1.5625,0.0,0.0
1072,10.729,1.5625,0.0,0.0
1073,10.739,1.5625,0.0,0.0
1074,10.749,1.5625,0.0,0.0
1075,10.759,1.5625,0.78125,0.0
1076,10.769,1.5625,0.0,0.0
1077,10.779,1.5625,0.0,0.0
1078,10.789,1.5625,-0.78125,0.0
1079,10.799,1.5625,-0.78125,0.0
1080,10.809,1.5625,-1.5625,0.0
1081,10.819,1.5625,0.0,0.0
1082,10.829,1.5625,-0.78125,0.0
1083,10.839,1.5625,0.0,0.0
1084,10.849,1.5625,0.0,0.0
1085,10.859,1.5625,0.0,0.0
1086,10.869,1.5625,0.0,0.0
1087,10.879,1.5625,0.0,0.0
1088,10.889,1.5625,0.0,0.0
1089,10.899,1.5625,0.0,0.0
1090,10.909,1.5625,-0.78125,0.0
1091,10.919,0.78125,0.0,0.0
1092,10.929,1.5625,-0.78125,0.0
1093,10.939,1.5625,0.0,0.0
1094,10.949,1.5625,-1.5625,0.0
1095,10.959,1.5625,-0.78125,0.0
1096,10.969,1.5625,-0.78125,0.0
1097,10.979,0.78125,0.0,0.0
1098,10.989,1.5625,0.78125,0.0
1099,10.999,1.5625,0.0,0.0
1100,11.009,1.5625,0.0,0.0
1101,11.019,0.78125,0.0,0.0
1102,11.029,0.78125,0.0,0.0
1103,11.039,0.78125,0.0,0.0
1104,11.049,1.5625,-0.78125,0.0
1105,11.059,1.5625,-0.78125,0.0
1106,11.069,1.5625,-0.78125,0.0
1107,11.079,1.5625,-0.78125,0.0
1108,11.089,1.5625,0.0,0.0
1109,11.099,0.78125,0.0,0.0
1110,11.109,1.5625,0.0,0.0
1111,11.119,1.5625,0.0,0.0
1112,11.129,1.5625,0.78125,0.0
1113,11.139,1.5625,0.78125,0.0
1114,11.149,1.5625,0.0,0.0
1115,11.159,1.5625,-0.78125,0.0
1116,11.169,1.5625,-0.78125,0.0
1117,11.179,1.5625,0.0,0.0
1118,11.189,1.5625,-0.78125,0.0
1119,11.199,1.5625,0.0,0.0
1120,11.209,1.5625,0.0,0.0
1121,11.219,1.5625,0.0,0.0
1122,11.229,1.5625,0.0,0.0
1123,11.239,1.5625,0.0,0.0
1124,11.249,1.5625,-0.78125,0.0
1125,11.259,1.5625,0.0,0.0
1126,11.269,1.5625,0.0,0.0
1127,11.279,1.5625,0.0,0.0
1128,11.289,1.5625,-0.78125,0.0
1129,11.299,1.5625,-0.78125,0.0
1130,11.309,1.5625,-0.78125,0.0
1131,11.319,1.5625,-0.78125,0.0
1132,11.329,1.5625,-0.78125,0.0
1133,11.339,1.5625,0.0,0.0
1134,11.349,1.5625,-0.78125,0.0
1135,11.359,1.5625,0.0,0.0
1136,11.369,1.5625,0.0,0.0
1137,11.379,1.5625,0.0,0.0
1138,11.389,1.5625,-0.78125,0.0
1139,11.399,1.5625,0.0,0.0
1140,11.409,1.5625,0.0,0.0
1141,11.419,1.5625,0.0,0.0
1142,11.429,1.5625,0.0,0.0
1143,11.439,1.5625,0.0,0.0
1144,11.449,1.5625,-0.78125,0.0
1145,11.459,1.5625,0.0,0.0
1146,11.469,1.5625,-0.78125,0.0
1147,11.479,1.5625,0.0,0.0
1148,11.489,1.5625,0.0,0.0
1149,11.499,1.5625,0.0,0.0
1150,11.509,1.5625,0.0,0.0
1151,11.519,1.5625,0.0,0.0
1152,11.529,1.5625,0.0,0.0
1153,11.539,1.5625,0.0,0.0
1154,11.549,0.78125,0.78125,0.0
1155,11.559,1.5625,0.0,0.0
1156,11.569,0.78125,0.0,0.0
1157,11.579,1.5625,-0.78125,0.0
1158,11.589,1.5625,0.0,0.0
1159,11.599,1.5625,-0.78125,0.0
1160,11.609,1.5625,0.0,0.0
1161,11.619,1.5625,-0.78125,0.0
1162,11.629,0.78125,0.0,0.0
1163,11.639,1.5625,0.0,0.0
1164,11.649,1.5625,0.0,0.0
1165,11.659,1.5625,0.0,0.0
1166,11.669,1.5625,0.0,0.0
1167,11.679,1.5625,0.0,0.0
1168,11.689,1.5625,0.0,0.0
1169,11.699,1.5625,0.0,0.0
1170,11.709,1.5625,0.0,0.0
1171,11.719,1.5625,0.0,0.0
1172,11.729,1.5625,-0.78125,0.0
1173,11.739,1.5625,-0.78125,0.0
1174,11.749,1.5625,-0.78125,0.0
1175,11.759,1.5625,0.0,0.0
1176,11.769,1.5625,0.0,0.0
1177,11.779,1.5625,0.0,0.0
1178,11.789,1.5625,0.0,0.0
1179,11.799,1.5625,0.0,0.0
1180,11.809,1.5625,0.0,0.0
1181,11.819,1.5625,0.0,0.0
1182,11.829,1.5625,0.0,0.0
1183,11.839,1.5625,0.0,0.0
1184,11.849,0.78125,0.0,0.0
1185,11.859,1.5625,0.0,0.0
1186,11.869,1.5625,-0.78125,0.0
1187,11.879,1.5625,0.0,0.0
1188,11.889,1.5625,-0.78125,0.0
1189,11.899,1.5625,0.0,0.0
1190,11.909,1.5625,0.0,0.0
1191,11.919,1.5625,0.0,0.0
1192,11.929,1.5625,0.0,0.0
1193,11.939,1.5625,-0.78125,0.0
1194,11.949,1.5625,0.0,0.0
1195,11.959,1.5625,-0.78125,0.0
1196,11.969,0.78125,0.0,0.0
1197,11.979,1.5625,0.0,0.0
1198,11.989,1.5625,0.0,0.0
1199,11.999,1.5625,0.0,0.0
1200,12.009,1.5625,-0.78125,0.0
1201,12.019,1.5625,-0.78125,0.0
1202,12.029,1.5625,-0.78125,0.0
1203,12.039,1.5625,0.0,0.0
1204,12.049,1.5625,-0.78125,0.0
1205,12.059,1.5625,0.0,0.0
1206,12.069,1.5625,0.0,0.0
1207,12.079,1.5625,0.0,0.0
1208,12.089,1.5625,-0.78125,0.0
1209,12.099,1.5625,0.0,0.0
1210,12.109,0.78125,0.0,0.0
1211,12.119,1.5625,0.0,0.0
1212,12.129,1.5625,0.0,0.0
1213,12.139,1.5625,0.0,0.0
1214,12.149,1.5625,-0.78125,0.0
1215,12.159,1.5625,-0.78125,0.0
1216,12.169,1.5625,-0.78125,0.0
1217,12.179,0.78125,0.0,0.0
1218,12.189,1.5625,0.0,0.0
1219,12.199,1.5625,0.0,0.0
1220,12.209,1.5625,0.0,0.0
1221,12.219,1.5625,0.0,0.0
1222,12.229,1.5625,0.0,0.0
1223,12.239,1.5625,0.0,0.0
1224,12.249,1.5625,0.0,0.0
1225,12.259,1.5625,0.0,0.0
1226,12.269,1.5625,0.0,0.0
1227,12.279,1.5625,0.0,0.0
1228,12.289,1.5625,0.0,0.0
1229,12.299,1.5625,-0.78125,0.0
1230,12.309,1.5625,0.0,0.0
1231,12.319,1.5625,0.0,0.0
1232,12.329,1.5625,0.0,0.0
1233,12.339,1.5625,0.0,0.0
1234,12.349,1.5625,0.0,0.0
1235,12.359,1.5625,0.0,0.0
1236,12.369,1.5625,0.0,0.0
1237,12.379,1.5625,0.0,0.0
1238,12.389,1.5625,0.0,0.0
1239,12.399,1.5625,0.0,0.0
1240,12.409,1.5625,0.0,0.0
1241,12.419,1.5625,0.0,0.0
1242,12.429,1.5625,0.0,0.0
1243,12.439,1.5625,-0.78125,0.0
1244,12.449,1.5625,-0.78125,0.0
1245,12.459,1.5625,-0.78125,0.0
1246,12.469,1.5625,-0.78125,0.0
1247,12.479,1.5625,0.0,0.0
1248,12.489,1.5625,0.0,0.0
1249,12.499,1.5625,0.0,0.0
1250,12.509,1.5625,0.0,0.0
1251,12.519,1.5625,0.0,0.0
1252,12.529,1.5625,0.0,0.0
1253,12.539,1.5625,0.0,0.0
1254,12.549,1.5625,0.0,0.0
1255,12.559,1.5625,0.0,0.0
1256,12.569,1.5625,0.0,0.0
1257,12.579,1.5625,0.0,0.0
1258,12.589,1.5625,-0.78125,0.0
1259,12.599,0.78125,-0.78125,0.0
1260,12.609,1.5625,0.0,0.0
1261,12.619,0.78125,0.0,0.0
1262,12.629,1.5625,0.0,0.0
1263,12.639,1.5625,0.0,0.0
1264,12.649,1.5625,0.0,0.0
1265,12.659,1.5625,0.0,0.0
1266,12.669,1.5625,0.0,0.0
1267,12.679,0.78125,0.0,0.0
1268,12.689,1.5625,-0.78125,0.0
1269,12.699,1.5625,0.0,0.0
1270,12.709,1.5625,-0.78125,0.0
1271,12.719,1.5625,0.0,0.0
1272,12.729,1.5625,-0.78125,0.0
1273,12.739,1.5625,-0.78125,0.0
1274,12.749,1.5625,-0.78125,0.0
1275,12.759,1.5625,0.0,0.0
1276,12.769,1.5625,0.0,0.0
1277,12.779,1.5625,0.0,0.0
1278,12.789,1.5625,0.0,0.0
1279,12.799,1.5625,0.0,0.0
1280,12.809,1.5625,0.0,0.0
1281,12.819,1.5625,0.0,0.0
1282,12.829,1.5625,-0.78125,0.0
1283,12.839,0.78125,0.0,0.0
1284,12.849,1.5625,0.0,0.0
1285,12.859,1.5625,-0.78125,0.0
1286,12.869,1.5625,0.0,0.0
1287,12.879,1.5625,0.0,0.0
1288,12.889,0.78125,-0.78125,0.0
1289,12.899,1.5625,0.0,0.0
1290,12.909,1.5625,0.0,0.0
1291,12.919,1.5625,0.0,0.0
1292,12.929,1.5625,-0.78125,0.0
1293,12.939,1.5625,0.0,0.0
1294,12.949,1.5625,0.0,0.0
1295,12.959,1.5625,0.0,0.0
1296,12.969,1.5625,0.0,0.0
1297,12.979,1.5625,-0.78125,0.0
1298,12.989,1.5625,0.0,0.0
1299,12.999,1.5625,0.0,0.0
1300,13.009,1.5625,-0.78125,0.0
1301,13.019,1.5625,-0.78125,0.0
1302,13.029,1.5625,0.0,0.0
1303,13.039,1.5625,0.0,0.0
1304,13.049,1.5625,0.0,0.0
1305,13.059,1.5625,0.0,0.0
1306,13.069,1.5625,-0.78125,0.0
1307,13.079,1.5625,0.0,0.0
1308,13.089,1.5625,0.0,0.0
1309,13.099,1.5625,0.0,0.0
1310,13.109,1.5625,0.0,0.0
1311,13.119,1.5625,-0.78125,0.0
1312,13.129,1.5625,0.0,0.0
1313,13.139,1.5625,-0.78125,0.0
1314,13.149,1.5625,0.0,0.0
1315,13.159,1.5625,-0.78125,0.0
1316,13.169,1.5625,0.0,0.0
1317,13.179,1.5625,0.0,0.0
1318,13.189,1.5625,0.0,0.0
1319,13.199,1.5625,0.0,0.0
1320,13.209,1.5625,0.78125,0.0
1321,13.219,1.5625,0.0,0.0
1322,13.229,1.5625,0.0,0.0
1323,13.239,0.78125,-0.78125,0.0
1324,13.249,1.5625,0.0,0.0
1325,13.259,1.5625,-0.78125,0.0
1326,13.269,1.5625,-0.78125,0.0
1327,13.279,1.5625,-0.78125,0.0
1328,13.289,1.5625,0.0,0.0
1329,13.299,1.5625,-0.78125,0.0
1330,13.309,1.5625,0.0,0.0
1331,13.319,1.5625,0.0,0.0
1332,13.329,1.5625,0.0,0.0
1333,13.339,1.5625,0.0,0.0
1334,13.349,1.5625,0.0,0.0
1335,13.359,1.5625,-0.78125,0.0
1336,13.369,1.5625,0.0,0.0
1337,13.379,1.5625,-0.78125,0.0
1338,13.389,1.5625,0.0,0.0
1339,13.399,1.5625,-0.78125,0.0
1340,13.409,1.5625,0.0,0.0
1341,13.419,1.5625,-0.78125,0.0
1342,13.429,1.5625,0.0,0.0
1343,13.439,1.5625,0.0,0.0
1344,13.449,1.5625,0.78125,0.0
1345,13.459,1.5625,0.0,0.0
1346,13.469,1.5625,0.0,0.0
1347,13.479,1.5625,0.0,0.0
1348,13.489,1.5625,-0.78125,0.0
1349,13.499,1.5625,0.0,0.0
1350,13.509,1.5625,-0.78125,0.0
1351,13.519,1.5625,-0.78125,0.0
1352,13.529,1.5625,-0.78125,0.0
1353,13.539,1.5625,0.0,0.0
1354,13.549,1.5625,-0.78125,0.0
1355,13.559,1.5625,0.0,0.0
1356,13.569,1.5625,0.0,0.0
1357,13.579,1.5625,0.78125,0.0
1358,13.589,1.5625,0.0,0.0
1359,13.599,1.5625,0.0,0.0
1360,13.609,1.5625,0.0,0.0
1361,13.619,1.5625,0.0,0.0
1362,13.629,1.5625,-0.78125,0.0
1363,13.639,1.5625,-0.78125,0.0
1364,13.649,1.5625,0.0,0.0
1365,13.659,1.5625,0.0,0.0
1366,13.669,1.5625,0.0,0.0
1367,13.679,1.5625,0.0,0.0
1368,13.689,1.5625,0.0,0.0
1369,13.699,1.5625,0.0,0.0
1370,13.709,1.5625,0.0,0.0
1371,13.719,1.5625,0.0,0.0
1372,13.729,1.5625,0.0,0.0
1373,13.739,1.5625,0.0,0.0
1374,13.749,1.5625,0.0,0.0
1375,13.759,1.5625,0.0,0.0
1376,13.769,1.5625,0.0,0.0
1377,13.779,1.5625,0.0,0.0
1378,13.789,1.5625,-0.78125,0.0
1379,13.799,1.5625,0.0,0.0
1380,13.809,1.5625,0.0,0.0
1381,13.819,1.5625,0.78125,0.0
1382,13.829,1.5625,0.0,0.0
1383,13.839,1.5625,0.78125,0.0
1384,13.849,1.5625,0.0,0.0
1385,13.859,1.5625,0.0,0.0
1386,13.869,1.5625,0.0,0.0
1387,13.879,1.5625,0.0,0.0
1388,13.889,1.5625,-0.78125,0.0
1389,13.899,1.5625,0.0,0.0
1390,13.909,1.5625,-0.78125,0.0
1391,13.919,1.5625,0.0,0.0
1392,13.929,1.5625,-0.78125,0.0
1393,13.939,1.5625,0.0,0.0
1394,13.949,1.5625,0.0,0.0
1395,13.959,1.5625,0.0,0.0
1396,13.969,1.5625,0.0,0.0
1397,13.979,1.5625,0.0,0.0
1398,13.989,1.5625,0.0,0.0
1399,13.999,1.5625,0.0,0.0
1400,14.009,1.5625,-0.78125,0.0
1401,14.019,1.5625,0.0,0.0
1402,14.029,1.5625,-0.78125,0.0
1403,14.039,1.5625,-0.78125,0.0
1404,14.049,1.5625,-0.78125,0.0
1405,14.059,1.5625,0.0,0.0
1406,14.069,1.5625,-0.78125,0.0
1407,14.079,1.5625,0.0,0.0
1408,14.089,1.5625,0.0,0.0
1409,14.099,1.5625,0.0,0.0
1410,14.109,1.5625,-0.78125,0.0
1411,14.119,0.78125,0.0,0.0
1412,14.129,1.5625,-0.78125,0.0
1413,14.139,1.5625,-0.78125,0.0
1414,14.149,1.5625,-0.78125,0.0
1415,14.159,1.5625,-0.78125,0.0
1416,14.169,1.5625,-0.78125,0.0
1417,14.179,1.5625,0.0,0.0
1418,14.189,0.78125,0.0,0.0
1419,14.199,1.5625,0.0,0.0
1420,14.209,1.5625,0.0,0.0
1421,14.219,1.5625,0.0,0.0
1422,14.229,1.5625,0.0,0.0
1423,14.239,0.78125,0.0,0.0
1424,14.249,1.5625,0.0,0.0
1425,14.259,0.78125,0.0,0.0
1426,14.269,1.5625,0.0,0.0
1427,14.279,1.5625,-0.78125,0.0
1428,14.289,1.5625,0.0,0.0
1429,14.299,0.78125,0.0,0.0
1430,14.309,0.78125,0.0,0.0
1431,14.319,1.5625,0.0,0.0
1432,14.329,1.5625,0.0,0.0
1433,14.339,1.5625,0.0,0.0
1434,14.349,1.5625,0.0,0.0
1435,14.359,1.5625,0.0,0.0
1436,14.369,1.5625,0.0,0.0
1437,14.379,1.5625,0.0,0.0
1438,14.389,1.5625,0.0,0.0
1439,14.399,1.5625,0.0,0.0
1440,14.409,1.5625,0.0,0.0
1441,14.419,1.5625,-0.78125,0.0
1442,14.429,1.5625,0.0,0.0
1443,14.439,1.5625,0.0,0.0
1444,14.449,1.5625,0.0,0.0
1445,14.459,0.78125,0.78125,0.0
1446,14.469,1.5625,0.0,0.0
1447,14.479,1.5625,0.0,0.0
1448,14.489,1.5625,0.0,0.0
1449,14.499,1.5625,0.0,0.0
1450,14.509,0.78125,0.0,0.0
1451,14.519,1.5625,0.0,0.0
1452,14.529,1.5625,-0.78125,0.0
1453,14.539,1.5625,0.0,0.0
1454,14.549,1.5625,-0.78125,0.0
1455,14.559,1.5625,-0.78125,0.0
1456,14.569,1.5625,-0.78125,0.0
1457,14.579,1.5625,0.0,0.0
1458,14.589,1.5625,0.0,0.0
1459,14.599,1.5625,0.0,0.0
1460,14.609,1.5625,0.0,0.0
1461,14.619,1.5625,0.0,0.0
1462,14.629,1.5625,0.0,0.0
1463,14.639,0.78125,0.0,0.0
1464,14.649,1.5625,0.0,0.0
1465,14.659,1.5625,0.0,0.0
1466,14.669,1.5625,0.0,0.0
1467,14.679,1.5625,-0.78125,0.0
1468,14.689,1.5625,0.0,0.0
1469,14.699,1.5625,0.0,0.0
1470,14.709,1.5625,0.0,0.0
1471,14.719,1.5625,0.0,0.0
1472,14.729,1.5625,0.0,0.0
1473,14.739,1.5625,0.0,0.0
1474,14.749,1.5625,0.0,0.0
1475,14.759,1.5625,0.0,0.0
1476,14.769,0.78125,0.0,0.0
1477,14.779,1.5625,-0.78125,0.0
1478,14.789,1.5625,0.0,0.0
1479,14.799,1.5625,-0.78125,0.0
1480,14.809,1.5625,-0.78125,0.0
1481,14.819,1.5625,-0.78125,0.0
1482,14.829,1.5625,-0.78125,0.0
1483,14.839,1.5625,0.0,0.0
1484,14.849,0.78125,0.0,0.0
1485,14.859,1.5625,0.0,0.0
1486,14.869,1.5625,0.0,0.0
1487,14.879,0.78125,0.0,0.0
1488,14.889,1.5625,0.0,0.0
1489,14.899,1.5625,0.0,0.0
1490,14.909,0.78125,0.0,0.0
1491,14.919,1.5625,-0.78125,0.0
1492,14.929,1.5625,0.0,0.0
1493,14.939,1.5625,0.0,0.0
1494,14.949,0.78125,-0.78125,0.0
1495,14.959,1.5625,-0.78125,0.0
1496,14.969,1.5625,0.0,0.0
1497,14.979,1.5625,-0.78125,0.0
1498,14.989,1.5625,0.0,0.0
1499,14.999,1.5625,0.0,0.0
1500,15.009,1.5625,0.78125,0.0
1501,15.019,1.5625,0.0,0.0
1502,15.029,1.5625,0.78125,0.0
1503,15.039,0.78125,0.0,0.0
1504,15.049,1.5625,0.0,0.0
1505,15.059,1.5625,-0.78125,0.0
1506,15.069,1.5625,0.0,0.0
1507,15.079,1.5625,0.0,0.0
1508,15.089,1.5625,0.0,0.0
1509,15.099,1.5625,0.0,0.0
1510,15.109,1.5625,0.0,0.0
1511,15.119,1.5625,0.0,0.0
1512,15.129,1.5625,0.0,0.0
1513,15.139,1.5625,0.0,0.0
1514,15.149,1.5625,0.0,0.0
1515,15.159,1.5625,0.0,0.0
1516,15.169,1.5625,0.0,0.0
1517,15.179,0.78125,0.0,0.0
1518,15.189,0.78125,0.0,0.0
1519,15.199,1.5625,0.0,0.0
1520,15.209,1.5625,-0.78125,0.0
1521,15.219,1.5625,0.0,0.0
1522,15.229,0.78125,-0.78125,0.0
1523,15.239,1.5625,0.0,0.0
1524,15.249,1.5625,0.0,0.0
1525,15.259,0.78125,0.0,0.0
1526,15.269,1.5625,0.0,0.0
1527,15.279,1.5625,0.0,0.0
1528,15.289,1.5625,0.0,0.0
1529,15.299,1.5625,0.0,0.0
1530,15.309,1.5625,0.0,0.0
1531,15.319,0.78125,0.0,0.0
1532,15.329,1.5625,0.0,0.0
1533,15.339,1.5625,0.0,0.0
1534,15.349,1.5625,-0.78125,0.0
1535,15.359,1.5625,0.0,0.0
1536,15.369,1.5625,-0.78125,0.0
1537,15.379,1.5625,0.0,0.0
1538,15.389,1.5625,-0.78125,0.0
1539,15.399,1.5625,0.0,0.0
1540,15.409,1.5625,0.0,0.0
1541,15.419,1.5625,0.0,0.0
1542,15.429,1.5625,0.0,0.0
1543,15.439,1.5625,0.0,0.0
1544,15.449,1.5625,0.0,0.0
1545,15.459,1.5625,0.0,0.0
1546,15.469,1.5625,0.0,0.0
1547,15.479,1.5625,-0.78125,0.0
1548,15.489,1.5625,-0.78125,0.0
1549,15.499,1.5625,-0.78125,0.0
1550,15.509,1.5625,-0.78125,0.0
1551,15.519,1.5625,0.0,0.0
1552,15.529,1.5625,0.0,0.0
1553,15.539,1.5625,0.0,0.0
1554,15.549,1.5625,0.0,0.0
1555,15.559,1.5625,0.0,0.0
1556,15.569,1.5625,0.0,0.0
1557,15.579,1.5625,0.0,0.0
1558,15.589,1.5625,0.0,0.0
1559,15.599,1.5625,0.0,0.0
1560,15.609,1.5625,0.0,0.0
1561,15.619,1.5625,-0.78125,0.0
1562,15.629,1.5625,0.0,0.0
1563,15.639,1.5625,-0.78125,0.0
1564,15.649,1.5625,-0.78125,0.0
1565,15.659,1.5625,-0.78125,0.0
1566,15.669,0.78125,0.0,0.0
1567,15.679,1.5625,0.0,0.0
1568,15.689,1.5625,0.0,0.0
1569,15.699,1.5625,0.0,0.0
1570,15.709,1.5625,0.0,0.0
1571,15.719,1.5625,0.0,0.0
1572,15.729,0.78125,0.0,0.0
1573,15.739,0.78125,0.0,0.0
1574,15.749,1.5625,0.0,0.0
1575,15.759,0.78125,0.0,0.0
1576,15.769,1.5625,0.0,0.0
1577,15.779,0.78125,0.0,0.0
1578,15.789,1.5625,0.0,0.0
1579,15.799,0.78125,0.0,0.0
1580,15.809,0.78125,0.0,0.0
1581,15.819,1.5625,0.0,0.0
1582,15.829,1.5625,0.78125,0.0
1583,15.839,1.5625,0.0,0.0
1584,15.849,1.5625,0.0,0.0
1585,15.859,0.78125,0.0,0.0
1586,15.869,0.78125,0.0,0.0
1587,15.879,0.78125,0.0,0.0
1588,15.889,1.5625,0.0,0.0
1589,15.899,1.5625,0.0,0.0
1590,15.909,1.5625,-0.78125,0.0
1591,15.919,1.5625,0.0,0.0
1592,15.929,1.5625,0.0,0.0
1593,15.939,1.5625,0.0,0.0
1594,15.949,1.5625,0.0,0.0
1595,15.959,1.5625,0.0,0.0
1596,15.969,1.5625,0.0,0.0
1597,15.979,1.5625,0.78125,0.0
1598,15.989,1.5625,0.0,0.0
1599,15.999,1.5625,0.0,0.0
1600,16.009,1.5625,0.0,0.0
1601,16.019,1.5625,0.0,0.0
1602,16.029,1.5625,-0.78125,0.0
1603,16.039,1.5625,0.0,0.0
1604,16.049,1.5625,-0.78125,0.0
1605,16.059,1.5625,0.0,0.0
1606,16.069,0.78125,0.0,0.0
1607,16.079,1.5625,0.0,0.0
1608,16.089,1.5625,-0.78125,0.0
1609,16.099,1.5625,-0.78125,0.0
1610,16.109,1.5625,0.0,0.0
1611,16.119,1.5625,0.0,0.0
1612,16.129,1.5625,0.0,0.0
1613,16.139,1.5625,0.0,0.0
1614,16.149,0.78125,-0.78125,0.0
1615,16.159,1.5625,0.0,0.0
1616,16.169,1.5625,-0.78125,0.0
1617,16.179,0.78125,0.0,0.0
1618,16.189,1.5625,-0.78125,0.0
1619,16.199,1.5625,0.0,0.0
1620,16.209,1.5625,-0.78125,0.0
1621,16.219,0.78125,0.0,0.0
1622,16.229,1.5625,0.0,0.0
1623,16.239,1.5625,0.0,0.0
1624,16.249,1.5625,0.0,0.0
1625,16.259,1.5625,0.0,0.0
1626,16.269,1.5625,0.0,0.0
1627,16.279,1.5625,-0.78125,0.0
1628,16.289,0.78125,0.0,0.0
1629,16.299,1.5625,0.0,0.0
1630,16.309,0.78125,-0.78125,0.0
1631,16.319,1.5625,-0.78125,0.0
1632,16.329,1.5625,-0.78125,0.0
1633,16.339,1.5625,-0.78125,0.0
1634,16.349,0.78125,-0.78125,0.0
1635,16.359,1.5625,0.0,0.0
1636,16.369,0.78125,0.0,0.0
1637,16.379,1.5625,0.0,0.0
1638,16.389,1.5625,-0.78125,0.0
1639,16.399,1.5625,0.0,0.0
1640,16.409,1.5625,0.0,0.0
1641,16.419,1.5625,0.0,0.0
1642,16.429,0.78125,0.0,0.0
1643,16.439,0.78125,0.0,0.0
1644,16.449,1.5625,-0.78125,0.0
1645,16.459,1.5625,-0.78125,0.0
1646,16.469,1.5625,-0.78125,0.0
1647,16.479,1.5625,0.0,0.0
1648,16.489,0.78125,0.0,0.0
1649,16.499,1.5625,0.0,0.0
1650,16.509,1.5625,0.78125,0.0
1651,16.519,1.5625,0.0,0.0
1652,16.529,1.5625,0.0,0.0
1653,16.539,1.5625,0.0,0.0
1654,16.549,1.5625,0.0,0.0
1655,16.559,0.78125,0.0,0.0
1656,16.569,1.5625,0.0,0.0
1657,16.579,1.5625,0.0,0.0
1658,16.589,1.5625,0.0,0.0
1659,16.599,1.5625,-0.78125,0.0
1660,16.609,0.78125,0.0,0.0
1661,16.619,1.5625,0.0,0.0
1662,16.629,1.5625,0.0,0.0
1663,16.639,1.5625,0.0,0.0
1664,16.649,1.5625,0.78125,0.0
1665,16.659,1.5625,0.0,0.0
1666,16.669,0.78125,0.0,0.0
1667,16.679,1.5625,0.0,0.0
1668,16.689,1.5625,0.0,0.0
1669,16.699,1.5625,0.0,0.0
1670,16.709,1.5625,0.0,0.0
1671,16.719,1.5625,0.0,0.0
1672,16.729,1.5625,0.0,0.0
1673,16.739,0.78125,-0.78125,0.0
1674,16.749,1.5625,-0.78125,0.0
1675,16.759,1.5625,-0.78125,0.0
1676,16.769,0.78125,0.0,0.0
1677,16.779,1.5625,0.0,0.0
1678,16.789,1.5625,0.0,0.0
1679,16.799,0.78125,0.0,0.0
1680,16.809,1.5625,-0.78125,0.0
1681,16.819,1.5625,0.0,0.0
1682,16.829,1.5625,0.0,0.0
1683,16.839,0.78125,0.0,0.0
1684,16.849,1.5625,0.0,0.0
1685,16.859,1.5625,0.0,0.0
1686,16.869,1.5625,-0.78125,0.0
1687,16.879,0.78125,-0.78125,0.0
1688,16.889,1.5625,-0.78125,0.0
1689,16.899,1.5625,-0.78125,0.0
1690,16.909,1.5625,-0.78125,0.0
1691,16.919,1.5625,0.0,0.0
1692,16.929,1.5625,0.78125,0.0
1693,16.939,1.5625,0.0,0.0
1694,16.949,1.5625,0.0,0.0
1695,16.959,1.5625,-0.78125,0.0
1696,16.969,1.5625,-0.78125,0.0
1697,16.979,1.5625,-0.78125,0.0
1698,16.989,1.5625,0.0,0.0
1699,16.999,1.5625,0.0,0.0
1700,17.009,1.5625,0.0,0.0
1701,17.019,1.5625,0.0,0.0
1702,17.029,1.5625,0.0,0.0
1703,17.039,1.5625,-0.78125,0.0
1704,17.049,0.78125,-0.78125,0.0
1705,17.059,0.78125,-0.78125,0.0
1706,17.069,1.5625,0.0,0.0
1707,17.079,0.78125,-0.78125,0.0
1708,17.089,0.78125,0.0,0.0
1709,17.099,0.78125,0.0,0.0
1710,17.109,1.5625,0.0,0.0
1711,17.119,1.5625,0.0,0.0
1712,17.129,0.78125,0.0,0.0
1713,17.139,0.78125,0.0,0.0
1714,17.149,0.78125,0.0,0.0
1715,17.159,1.5625,0.0,0.0
1716,17.169,0.78125,0.0,0.0
1717,17.179,0.78125,-0.78125,0.0
1718,17.189,0.78125,0.0,0.0
1719,17.199,1.5625,0.0,0.0
1720,17.209,1.5625,-0.78125,0.0
1721,17.219,0.78125,-0.78125,0.0
1722,17.229,0.78125,0.0,0.0
1723,17.239,0.78125,0.0,0.0
1724,17.249,1.5625,0.0,0.0
1725,17.259,1.5625,0.0,0.0
1726,17.269,1.5625,0.0,0.0
1727,17.279,0.78125,0.0,0.0
1728,17.289,0.78125,0.0,0.0
1729,17.299,1.5625,0.0,0.0
1730,17.309,1.5625,-0.78125,0.0
1731,17.319,1.5625,0.0,0.0
1732,17.329,1.5625,0.0,0.0
1733,17.339,1.5625,-0.78125,0.0
1734,17.349,1.5625,0.0,0.0
1735,17.359,1.5625,0.0,0.0
1736,17.369,1.5625,0.0,0.0
1737,17.379,1.5625,-0.78125,0.0
1738,17.389,1.5625,0.0,0.0
1739,17.399,1.5625,0.0,0.0
1740,17.409,1.5625,0.0,0.0
1741,17.419,1.5625,-0.78125,0.0
1742,17.429,1.5625,0.0,0.0
1743,17.439,1.5625,-0.78125,0.0
1744,17.449,1.5625,-0.78125,0.0
1745,17.459,1.5625,-0.78125,0.0
1746,17.469,1.5625,0.0,0.0
1747,17.479,1.5625,0.0,0.0
1748,17.489,1.5625,0.0,0.0
1749,17.499,1.5625,-0.78125,0.0
1750,17.509,1.5625,0.78125,0.0
1751,17.519,1.5625,-0.78125,0.0
1752,17.529,1.5625,0.0,0.0
1753,17.539,1.5625,0.0,0.0
1754,17.549,1.5625,0.0,0.0
1755,17.559,1.5625,0.0,0.0
1756,17.569,1.5625,-0.78125,0.0
1757,17.579,1.5625,0.0,0.0
1758,17.589,1.5625,-0.78125,0.0
1759,17.599,1.5625,0.0,0.0
1760,17.609,1.5625,0.0,0.0
1761,17.619,1.5625,0.0,0.0
1762,17.629,1.5625,0.0,0.0
1763,17.639,1.5625,0.0,0.0
1764,17.649,1.5625,0.0,0.0
1765,17.659,1.5625,0.0,0.0
1766,17.669,1.5625,-0.78125,0.0
1767,17.679,1.5625,0.0,0.0
1768,17.689,1.5625,-0.78125,0.0
1769,17.699,1.5625,0.0,0.0
1770,17.709,1.5625,-0.78125,0.0
1771,17.719,1.5625,0.0,0.0
1772,17.729,1.5625,0.0,0.0
1773,17.739,1.5625,0.0,0.0
1774,17.749,1.5625,0.0,0.0
1775,17.759,1.5625,0.0,0.0
1776,17.769,1.5625,0.0,0.0
1777,17.779,1.5625,0.0,0.0
1778,17.789,1.5625,-0.78125,0.0
1779,17.799,1.5625,0.0,0.0
1780,17.809,1.5625,-0.78125,0.0
1781,17.819,1.5625,0.0,0.0
1782,17.829,1.5625,0.0,0.0
1783,17.839,1.5625,0.0,0.0
1784,17.849,1.5625,0.0,0.0
1785,17.859,1.5625,0.0,0.0
1786,17.869,1.5625,-0.78125,0.0
1787,17.879,1.5625,0.0,0.0
1788,17.889,1.5625,0.0,0.0
1789,17.899,1.5625,0.0,0.0
1790,17.909,1.5625,0.0,0.0
1791,17.919,1.5625,0.0,0.0
1792,17.929,1.5625,0.0,0.0
1793,17.939,1.5625,0.0,0.0
1794,17.949,1.5625,0.0,0.0
1795,17.959,1.5625,0.0,0.0
1796,17.969,1.5625,0.0,0.0
1797,17.979,1.5625,0.0,0.0
1798,17.989,1.5625,-0.78125,0.0
1799,17.999,1.5625,0.0,0.0
1800,18.009,0.78125,-0.78125,0.0
1801,18.019,1.5625,0.0,0.0
1802,18.029,1.5625,0.0,0.0
1803,18.039,1.5625,0.0,0.0
1804,18.049,0.78125,0.0,0.0
1805,18.059,0.78125,0.0,0.0
1806,18.069,0.78125,0.0,0.0
1807,18.079,0.78125,0.0,0.0
1808,18.089,0.78125,0.0,0.0
1809,18.099,1.5625,0.0,0.0
1810,18.109,0.78125,0.0,0.0
1811,18.119,0.78125,0.0,0.0
1812,18.129,0.78125,0.0,0.0
1813,18.139,0.78125,0.0,0.0
1814,18.149,1.5625,0.0,0.0
1815,18.159,1.5625,0.0,0.0
1816,18.169,1.5625,0.0,0.0
1817,18.179,0.78125,0.0,0.0
1818,18.189,0.78125,0.0,0.0
1819,18.199,1.5625,0.0,0.0
1820,18.209,1.5625,0.0,0.0
1821,18.219,1.5625,0.0,0.0
1822,18.229,1.5625,0.0,0.0
1823,18.239,1.5625,0.0,0.0
1824,18.249,1.5625,0.0,0.0
1825,18.259,1.5625,0.0,0.0
1826,18.269,1.5625,0.0,0.0
1827,18.279,1.5625,0.0,0.0
1828,18.289,1.5625,0.0,0.0
1829,18.299,1.5625,0.0,0.0
1830,18.309,1.5625,0.0,0.0
1831,18.319,1.5625,0.0,0.0
1832,18.329,1.5625,0.0,0.0
1833,18.339,1.5625,0.0,0.0
1834,18.349,1.5625,0.0,0.0
1835,18.359,1.5625,0.0,0.0
1836,18.369,1.5625,-0.78125,0.0
1837,18.379,1.5625,0.0,0.0
1838,18.389,1.5625,0.0,0.0
1839,18.399,1.5625,0.0,0.0
1840,18.409,1.5625,0.0,0.0
1841,18.419,1.5625,-0.78125,0.0
1842,18.429,1.5625,0.0,0.0
1843,18.439,1.5625,-0.78125,0.0
1844,18.449,1.5625,0.0,0.0
1845,18.459,1.5625,0.0,0.0
1846,18.469,1.5625,0.0,0.0
1847,18.479,1.5625,-0.78125,0.0
1848,18.489,1.5625,0.0,0.0
1849,18.499,1.5625,0.0,0.0
1850,18.509,1.5625,0.0,0.0
1851,18.519,1.5625,0.0,0.0
1852,18.529,1.5625,0.0,0.0
1853,18.539,1.5625,0.0,0.0
1854,18.549,1.5625,-0.78125,0.0
1855,18.559,1.5625,0.0,0.0
1856,18.569,1.5625,0.0,0.0
1857,18.579,1.5625,0.0,0.0
1858,18.589,1.5625,-0.78125,0.0
1859,18.599,1.5625,0.0,0.0
1860,18.609,1.5625,0.0,0.0
1861,18.619,1.5625,0.0,0.0
1862,18.629,1.5625,0.0,0.0
1863,18.639,1.5625,0.0,0.0
1864,18.649,1.5625,-0.78125,0.0
1865,18.659,1.5625,0.0,0.0
1866,18.669,1.5625,0.0,0.0
1867,18.679,1.5625,-0.78125,0.0
1868,18.689,1.5625,0.0,0.0
1869,18.699,0.78125,-0.78125,0.0
1870,18.709,1.5625,0.0,0.0
1871,18.719,1.5625,0.0,0.0
1872,18.729,1.5625,0.0,0.0
1873,18.739,0.78125,0.0,0.0
1874,18.749,1.5625,0.0,0.0
1875,18.759,0.78125,0.0,0.0
1876,18.769,1.5625,0.0,0.0
1877,18.779,1.5625,0.0,0.0
1878,18.789,1.5625,0.0,0.0
1879,18.799,1.5625,0.0,0.0
1880,18.809,1.5625,0.0,0.0
1881,18.819,1.5625,0.0,0.0
1882,18.829,1.5625,0.0,0.0
1883,18.839,0.78125,0.0,0.0
1884,18.849,1.5625,0.0,0.0
1885,18.859,1.5625,-0.78125,0.0
1886,18.869,1.5625,0.0,0.0
1887,18.879,1.5625,0.0,0.0
1888,18.889,1.5625,0.0,0.0
1889,18.899,1.5625,-0.78125,0.0
1890,18.909,1.5625,0.0,0.0
1891,18.919,1.5625,-0.78125,0.0
1892,18.929,0.78125,0.78125,0.0
1893,18.939,1.5625,-0.78125,0.0
1894,18.949,1.5625,0.0,0.0
1895,18.959,1.5625,0.0,0.0
1896,18.969,1.5625,0.0,0.0
1897,18.979,1.5625,0.0,0.0
1898,18.989,1.5625,-0.78125,0.0
1899,18.999,1.5625,0.0,0.0
1900,19.009,0.78125,-0.78125,0.0
1901,19.019,0.78125,0.0,0.0
1902,19.029,1.5625,0.0,0.0
1903,19.039,1.5625,0.0,0.0
1904,19.049,1.5625,0.0,0.0
1905,19.059,1.5625,-0.78125,0.0
1906,19.069,1.5625,0.0,0.0
1907,19.079,1.5625,-0.78125,0.0
1908,19.089,1.5625,-0.78125,0.0
1909,19.099,1.5625,0.0,0.0
1910,19.109,1.5625,0.0,0.0
1911,19.119,1.5625,0.0,0.0
1912,19.129,1.5625,0.0,0.0
1913,19.139,1.5625,0.0,0.0
1914,19.149,1.5625,0.0,0.0
1915,19.159,1.5625,0.0,0.0
1916,19.169,1.5625,0.0,0.0
1917,19.179,1.5625,0.0,0.0
1918,19.189,1.5625,0.0,0.0
1919,19.199,1.5625,0.0,0.0
1920,19.209,1.5625,0.0,0.0
1921,19.219,1.5625,0.0,0.0
1922,19.229,1.5625,0.0,0.0
1923,19.239,1.5625,-0.78125,0.0
1924,19.249,1.5625,0.0,0.0
1925,19.259,1.5625,0.0,0.0
1926,19.269,1.5625,0.0,0.0
1927,19.279,1.5625,0.0,0.0
1928,19.289,1.5625,0.0,0.0
1929,19.299,1.5625,-0.78125,0.0
1930,19.309,1.5625,0.0,0.0
1931,19.319,1.5625,0.0,0.0
1932,19.329,1.5625,0.0,0.0
1933,19.339,1.5625,-0.78125,0.0
1934,19.349,1.5625,0.0,0.0
1935,19.359,1.5625,-0.78125,0.0
1936,19.369,1.5625,0.0,0.0
1937,19.379,1.5625,-0.78125,0.0
1938,19.389,1.5625,0.0,0.0
1939,19.399,1.5625,0.0,0.0
1940,19.409,1.5625,0.0,0.0
1941,19.419,1.5625,0.0,0.0
1942,19.429,1.5625,0.0,0.0
1943,19.439,1.5625,0.0,0.0
1944,19.449,1.5625,-0.78125,0.0
1945,19.459,1.5625,0.0,0.0
1946,19.469,1.5625,0.0,0.0
1947,19.479,1.5625,0.0,0.0
1948,19.489,1.5625,0.0,0.0
1949,19.499,1.5625,0.0,0.0
1950,19.509,1.5625,0.0,0.0
1951,19.519,1.5625,0.0,0.0
1952,19.529,1.5625,0.0,0.0
1953,19.539,1.5625,0.0,0.0
1954,19.549,1.5625,0.0,0.0
1955,19.559,1.5625,0.0,0.0
1956,19.569,1.5625,-0.78125,0.0
1957,19.579,1.5625,0.0,0.0
1958,19.589,1.5625,0.0,0.0
1959,19.599,1.5625,-0.78125,0.0
1960,19.609,0.78125,0.0,0.0
1961,19.619,1.5625,0.0,0.0
1962,19.629,0.78125,0.0,0.0
1963,19.639,1.5625,0.0,0.0
1964,19.649,1.5625,0.0,0.0
1965,19.659,0.78125,0.0,0.0
1966,19.669,1.5625,0.0,0.0
1967,19.679,1.5625,0.0,0.0
1968,19.689,1.5625,0.0,0.0
1969,19.699,1.5625,-0.78125,0.0
1970,19.709,1.5625,0.0,0.0
1971,19.719,1.5625,0.0,0.0
1972,19.729,1.5625,0.0,0.0
1973,19.739,1.5625,0.0,0.0
1974,19.749,1.5625,0.0,0.0
1975,19.759,1.5625,0.0,0.0
1976,19.769,1.5625,0.0,0.0
1977,19.779,0.78125,0.0,0.0
1978,19.789,1.5625,0.0,0.0
1979,19.799,1.5625,0.0,0.0
1980,19.809,1.5625,0.0,0.0
1981,19.819,1.5625,0.0,0.0
1982,19.829,1.5625,0.0,0.0
1983,19.839,1.5625,0.0,0.0
1984,19.849,1.5625,0.0,0.0
1985,19.859,1.5625,0.0,0.0
1986,19.869,1.5625,0.0,0.0
1987,19.879,1.5625,0.0,0.0
1988,19.889,1.5625,0.0,0.0
1989,19.899,1.5625,0.0,0.0
1990,19.909,1.5625,0.0,0.0
1991,19.919,1.5625,0.0,0.0
1992,19.929,1.5625,-0.78125,0.0
1993,19.939,1.5625,0.0,0.0
1994,19.949,1.5625,0.0,0.0
1995,19.959,1.5625,0.0,0.0
1996,19.969,0.78125,0.0,0.0
1997,19.979,1.5625,0.0,0.0
1998,19.989,1.5625,0.0,0.0
1999,19.999,1.5625,0.0,0.0
2000,20.009,1.5625,0.0,0.0
2001,20.019,1.5625,0.0,0.0
2002,20.029,0.78125,0.0,0.0
2003,20.039,1.5625,0.0,0.0
2004,20.049,1.5625,0.0,0.0
2005,20.059,1.5625,0.0,0.0
2006,20.069,1.5625,0.0,0.0
2007,20.079,0.78125,-0.78125,0.0
2008,20.089,1.5625,0.0,0.0
2009,20.099,1.5625,0.0,0.0
2010,20.109,1.5625,0.0,0.0
2011,20.119,1.5625,0.0,0.0
2012,20.129,1.5625,0.0,0.0
2013,20.139,1.5625,0.0,0.0
2014,20.149,1.5625,0.0,0.0
2015,20.159,1.5625,0.0,0.0
2016,20.169,1.5625,0.0,0.0
2017,20.179,1.5625,0.0,0.0
2018,20.189,1.5625,0.0,0.0
2019,20.199,1.5625,-0.78125,0.0
2020,20.209,1.5625,0.0,0.0
2021,20.219,1.5625,-0.78125,0.0
2022,20.229,1.5625,0.0,0.0
2023,20.239,1.5625,-0.78125,0.0
2024,20.249,1.5625,0.0,0.0
2025,20.259,1.5625,0.0,0.0
2026,20.269,1.5625,0.0,0.0
2027,20.279,1.5625,-0.78125,0.0
2028,20.289,1.5625,0.0,0.0
2029,20.299,1.5625,0.0,0.0
2030,20.309,1.5625,0.0,0.0
2031,20.319,1.5625,-0.78125,0.0
2032,20.329,1.5625,0.0,0.0
2033,20.339,1.5625,0.0,0.0
2034,20.349,1.5625,0.0,0.0
2035,20.359,1.5625,0.0,0.0
2036,20.369,1.5625,0.0,0.0
2037,20.379,1.5625,0.0,0.0
2038,20.389,1.5625,0.0,0.0
2039,20.399,1.5625,0.0,0.0
2040,20.409,1.5625,0.0,0.0
2041,20.419,1.5625,0.0,0.0
2042,20.429,1.5625,0.0,0.0
2043,20.439,1.5625,0.0,0.0
2044,20.449,1.5625,0.0,0.0
2045,20.459,1.5625,0.0,0.0
2046,20.469,1.5625,0.0,0.0
2047,20.479,1.5625,0.0,0.0
2048,20.489,1.5625,0.0,0.0
2049,20.499,1.5625,0.0,0.0
2050,20.509,1.5625,0.0,0.0
2051,20.519,1.5625,0.0,0.0
2052,20.529,0.78125,0.0,0.0
2053,20.539,1.5625,0.0,0.0
2054,20.549,0.78125,0.0,0.0
2055,20.559,1.5625,0.0,0.0
2056,20.569,1.5625,0.0,0.0
2057,20.579,1.5625,0.0,0.0
2058,20.589,1.5625,0.0,0.0
2059,20.599,1.5625,0.0,0.0
2060,20.609,1.5625,0.0,0.0
2061,20.619,1.5625,0.0,0.0
2062,20.629,1.5625,0.0,0.0
2063,20.639,0.78125,0.0,0.0
2064,20.649,0.78125,0.0,0.0
2065,20.659,1.5625,0.0,0.0
2066,20.669,1.5625,0.0,0.0
2067,20.679,1.5625,0.0,0.0
2068,20.689,1.5625,0.0,0.0
2069,20.699,1.5625,0.0,0.0
2070,20.709,1.5625,0.0,0.0
2071,20.719,1.5625,0.0,0.0
2072,20.729,0.78125,0.0,0.0
2073,20.739,1.5625,0.0,0.0
2074,20.749,1.5625,0.0,0.0
2075,20.759,1.5625,0.0,0.0
2076,20.769,1.5625,0.0,0.0
2077,20.779,1.5625,0.0,0.0
2078,20.789,1.5625,-0.78125,0.0
2079,20.799,1.5625,0.0,0.0
2080,20.809,1.5625,0.0,0.0
2081,20.819,1.5625,0.0,0.0
2082,20.829,1.5625,0.0,0.0
2083,20.839,1.5625,0.0,0.0
2084,20.849,1.5625,0.0,0.0
2085,20.859,1.5625,0.0,0.0
2086,20.869,1.5625,0.0,0.0
2087,20.879,1.5625,0.0,0.0
2088,20.889,1.5625,0.0,0.0
2089,20.899,1.5625,0.0,0.0
2090,20.909,1.5625,0.0,0.0
2091,20.919,1.5625,0.0,0.0
2092,20.929,1.5625,-0.78125,0.0
2093,20.939,1.5625,0.0,0.0
2094,20.949,1.5625,-0.78125,0.0
2095,20.959,1.5625,-0.78125,0.0
2096,20.969,1.5625,0.0,0.0
2097,20.979,1.5625,-0.78125,0.0
2098,20.989,1.5625,0.0,0.0
2099,20.999,1.5625,0.0,0.0
2100,21.009,1.5625,0.0,0.0
2101,21.019,1.5625,-0.78125,0.0
2102,21.029,1.5625,0.0,0.0
2103,21.039,1.5625,0.0,0.0
2104,21.049,1.5625,0.0,0.0
2105,21.059,1.5625,0.0,0.0
2106,21.069,1.5625,0.0,0.0
2107,21.079,1.5625,0.0,0.0
2108,21.089,1.5625,0.0,0.0
2109,21.099,1.5625,0.0,0.0
2110,21.109,1.5625,0.0,0.0
2111,21.119,1.5625,-0.78125,0.0
2112,21.129,1.5625,0.0,0.0
2113,21.139,1.5625,0.0,0.0
2114,21.149,1.5625,0.0,0.0
2115,21.159,1.5625,0.0,0.0
2116,21.169,1.5625,-0.78125,0.0
2117,21.179,1.5625,0.0,0.0
2118,21.189,1.5625,0.0,0.0
2119,21.199,1.5625,0.0,0.0
2120,21.209,1.5625,0.0,0.0
2121,21.219,1.5625,0.0,0.0
2122,21.229,1.5625,0.0,0.0
2123,21.239,1.5625,0.0,0.0
2124,21.249,1.5625,0.0,0.0
2125,21.259,1.5625,0.0,0.0
2126,21.269,1.5625,0.0,0.0
2127,21.279,1.5625,0.0,0.0
2128,21.289,1.5625,0.0,0.0
2129,21.299,1.5625,0.0,0.0
2130,21.309,1.5625,0.0,0.0
2131,21.319,1.5625,0.0,0.0
2132,21.329,1.5625,0.0,0.0
2133,21.339,1.5625,0.0,0.0
2134,21.349,1.5625,0.0,0.0
2135,21.359,1.5625,0.0,0.0
2136,21.369,1.5625,0.0,0.0
2137,21.379,1.5625,0.0,0.0
2138,21.389,1.5625,0.0,0.0
2139,21.399,1.5625,0.0,0.0
2140,21.409,1.5625,-0.78125,0.0
2141,21.419,1.5625,0.0,0.0
2142,21.429,1.5625,0.0,0.0
2143,21.439,1.5625,0.0,0.0
2144,21.449,1.5625,0.0,0.0
2145,21.459,1.5625,0.0,0.0
2146,21.469,1.5625,0.0,0.0
2147,21.479,0.78125,0.0,0.0
2148,21.489,1.5625,0.0,0.0
2149,21.499,1.5625,0.0,0.0
2150,21.509,1.5625,0.0,0.0
2151,21.519,0.78125,0.0,0.0
2152,21.529,1.5625,0.0,0.0
2153,21.539,1.5625,0.0,0.0
2154,21.549,1.5625,0.0,0.0
2155,21.559,1.5625,0.0,0.0
2156,21.569,1.5625,0.0,0.0
2157,21.579,1.5625,0.0,0.0
2158,21.589,1.5625,0.0,0.0
2159,21.599,1.5625,0.0,0.0
2160,21.609,1.5625,0.0,0.0
2161,21.619,1.5625,0.0,0.0
2162,21.629,1.5625,0.0,0.0
2163,21.639,1.5625,0.0,0.0
2164,21.649,1.5625,0.0,0.0
2165,21.659,1.5625,0.0,0.0
2166,21.669,1.5625,0.0,0.0
2167,21.679,1.5625,0.0,0.0
2168,21.689,1.5625,0.0,0.0
2169,21.699,1.5625,0.0,0.0
2170,21.709,1.5625,0.0,0.0
2171,21.719,1.5625,0.0,0.0
2172,21.729,1.5625,0.0,0.0
2173,21.739,1.5625,0.0,0.0
2174,21.749,1.5625,0.0,0.0
2175,21.759,1.5625,0.0,0.0
2176,21.769,1.5625,0.0,0.0
2177,21.779,1.5625,0.0,0.0
2178,21.789,1.5625,0.0,0.0
2179,21.799,1.5625,0.0,0.0
2180,21.809,1.5625,0.0,0.0
2181,21.819,1.5625,0.0,0.0
2182,21.829,1.5625,0.0,0.0
2183,21.839,1.5625,0.0,0.0
2184,21.849,1.5625,0.0,0.0
2185,21.859,1.5625,0.0,0.0
2186,21.869,1.5625,0.0,0.0
2187,21.879,1.5625,0.0,0.0
2188,21.889,1.5625,0.0,0.0
2189,21.899,1.5625,0.0,0.0
2190,21.909,1.5625,0.0,0.0
2191,21.919,1.5625,0.0,0.0
2192,21.929,1.5625,0.0,0.0
2193,21.939,1.5625,0.0,0.0
2194,21.949,1.5625,0.0,0.0
2195,21.959,1.5625,0.0,0.0
2196,21.969,1.5625,0.0,0.0
2197,21.979,1.5625,0.0,0.0
2198,21.989,1.5625,-0.78125,0.0
2199,21.999,1.5625,0.0,0.0
2200,22.009,1.5625,0.0,0.0
2201,22.019,1.5625,0.0,0.0
2202,22.029,1.5625,0.0,0.0
2203,22.039,1.5625,0.0,0.0
2204,22.049,1.5625,0.0,0.0
2205,22.059,1.5625,0.0,0.0
2206,22.069,1.5625,0.0,0.0
2207,22.079,1.5625,0.0,0.0
2208,22.089,1.5625,0.0,0.0
2209,22.099,1.5625,0.0,0.0
2210,22.109,0.78125,0.0,0.0
2211,22.119,1.5625,-0.78125,0.0
2212,22.129,1.5625,0.0,0.0
2213,22.139,1.5625,0.0,0.0
2214,22.149,0.78125,0.0,0.0
2215,22.159,1.5625,0.0,0.0
2216,22.169,1.5625,0.0,0.0
2217,22.179,0.78125,0.0,0.0
2218,22.189,1.5625,0.0,0.0
2219,22.199,1.5625,0.0,0.0
2220,22.209,1.5625,0.0,0.0
2221,22.219,1.5625,0.0,0.0
2222,22.229,1.5625,0.0,0.0
2223,22.239,1.5625,0.0,0.0
2224,22.249,1.5625,-0.78125,0.0
2225,22.259,1.5625,0.0,0.0
2226,22.269,1.5625,-0.78125,0.0
2227,22.279,1.5625,0.0,0.0
2228,22.289,1.5625,0.0,0.0
2229,22.299,1.5625,0.0,0.0
2230,22.309,0.78125,0.0,0.0
2231,22.319,1.5625,0.0,0.0
2232,22.329,1.5625,0.0,0.0
2233,22.339,1.5625,0.0,0.0
2234,22.349,1.5625,0.0,0.0
2235,22.359,0.78125,-0.78125,0.0
2236,22.369,1.5625,0.0,0.0
2237,22.379,1.5625,0.0,0.0
2238,22.389,1.5625,0.0,0.0
2239,22.399,1.5625,0.0,0.0
2240,22.409,1.5625,0.0,0.0
2241,22.419,1.5625,0.0,0.0
2242,22.429,1.5625,-0.78125,0.0
2243,22.439,1.5625,-0.78125,0.0
2244,22.449,1.5625,0.0,0.0
2245,22.459,1.5625,0.0,0.0
2246,22.469,1.5625,0.0,0.0
2247,22.479,1.5625,0.0,0.0
2248,22.489,1.5625,0.0,0.0
2249,22.499,1.5625,-0.78125,0.0
2250,22.509,1.5625,0.0,0.0
2251,22.519,1.5625,0.0,0.0
2252,22.529,1.5625,0.0,0.0
2253,22.539,1.5625,-0.78125,0.0
2254,22.549,1.5625,0.0,0.0
2255,22.559,1.5625,0.0,0.0
2256,22.569,1.5625,0.0,0.0
2257,22.579,1.5625,0.0,0.0
2258,22.589,1.5625,0.0,0.0
2259,22.599,1.5625,0.0,0.0
2260,22.609,1.5625,0.0,0.0
2261,22.619,1.5625,0.0,0.0
2262,22.629,1.5625,0.0,0.0
2263,22.639,1.5625,0.0,0.0
2264,22.649,1.5625,0.0,0.0
2265,22.659,1.5625,0.0,0.0
2266,22.669,1.5625,0.0,0.0
2267,22.679,1.5625,0.0,0.0
2268,22.689,1.5625,0.0,0.0
2269,22.699,1.5625,0.0,0.0
2270,22.709,1.5625,0.0,0.0
2271,22.719,1.5625,0.0,0.0
2272,22.729,1.5625,0.0,0.0
2273,22.739,1.5625,0.0,0.0
2274,22.749,1.5625,0.0,0.0
2275,22.759,1.5625,0.0,0.0
2276,22.769,1.5625,0.0,0.0
2277,22.779,1.5625,0.0,0.0
2278,22.789,1.5625,0.0,0.0
2279,22.799,1.5625,0.0,0.0
2280,22.809,1.5625,0.0,0.0
2281,22.819,1.5625,0.0,0.0
2282,22.829,0.78125,0.0,0.0
2283,22.839,1.5625,0.0,0.0
2284,22.849,0.78125,0.0,0.0
2285,22.859,1.5625,0.0,0.0
2286,22.869,1.5625,0.0,0.0
2287,22.879,1.5625,0.0,0.0
2288,22.889,1.5625,0.0,0.0
2289,22.899,1.5625,0.0,0.0
2290,22.909,1.5625,0.0,0.0
2291,22.919,1.5625,0.0,0.0
2292,22.929,1.5625,0.0,0.0
2293,22.939,1.5625,0.0,0.0
2294,22.949,1.5625,0.0,0.0
2295,22.959,0.78125,0.0,0.0
2296,22.969,1.5625,0.0,0.0
2297,22.979,1.5625,-0.78125,0.0
2298,22.989,1.5625,-0.78125,0.0
2299,22.999,1.5625,0.0,0.0
2300,23.009,1.5625,0.0,0.0
2301,23.019,1.5625,0.0,0.0
2302,23.029,1.5625,0.0,0.0
2303,23.039,1.5625,-0.78125,0.0
2304,23.049,1.5625,-0.78125,0.0
2305,23.059,1.5625,0.0,0.0
2306,23.069,1.5625,-0.78125,0.0
2307,23.079,0.78125,-0.78125,0.0
2308,23.089,1.5625,0.0,0.0
2309,23.099,1.5625,-0.78125,0.0
2310,23.109,1.5625,0.0,0.0
2311,23.119,1.5625,0.0,0.0
2312,23.129,1.5625,0.0,0.0
2313,23.139,1.5625,0.0,0.0
2314,23.149,1.5625,0.0,0.0
2315,23.159,1.5625,-0.78125,0.0
2316,23.169,1.5625,0.0,0.0
2317,23.179,1.5625,0.0,0.0
2318,23.189,1.5625,0.0,0.0
2319,23.199,0.78125,0.0,0.0
2320,23.209,1.5625,0.0,0.0
2321,23.219,1.5625,0.0,0.0
2322,23.229,1.5625,0.0,0.0
2323,23.239,1.5625,0.0,0.0
2324,23.249,1.5625,0.0,0.0
2325,23.259,1.5625,0.0,0.0
2326,23.269,1.5625,0.0,0.0
2327,23.279,1.5625,0.0,0.0
2328,23.289,1.5625,0.0,0.0
2329,23.299,1.5625,0.0,0.0
2330,23.309,1.5625,0.0,0.0
2331,23.319,1.5625,0.0,0.0
2332,23.329,1.5625,0.0,0.0
2333,23.339,1.5625,0.0,0.0
2334,23.349,1.5625,0.0,0.0
2335,23.359,1.5625,0.0,0.0
2336,23.369,1.5625,0.0,0.0
2337,23.379,1.5625,0.0,0.0
2338,23.389,1.5625,0.0,0.0
2339,23.399,1.5625,0.0,0.0
2340,23.409,1.5625,0.0,0.0
2341,23.419,1.5625,0.0,0.0
2342,23.429,1.5625,0.0,0.0
2343,23.439,1.5625,0.0,0.0
2344,23.449,1.5625,0.0,0.0
2345,23.459,0.78125,0.0,0.0
2346,23.469,1.5625,0.0,0.0
2347,23.479,1.5625,0.0,0.0
2348,23.489,1.5625,0.0,0.0
2349,23.499,1.5625,0.0,0.0
2350,23.509,1.5625,0.0,0.0
2351,23.519,1.5625,0.0,0.0
2352,23.529,1.5625,0.0,0.0
2353,23.539,1.5625,0.0,0.0
2354,23.549,1.5625,0.0,0.0
2355,23.559,1.5625,0.0,0.0
2356,23.569,0.78125,0.0,0.0
2357,23.579,1.5625,0.0,0.0
2358,23.589,0.78125,0.0,0.0
2359,23.599,1.5625,0.0,0.0
2360,23.609,1.5625,0.0,0.0
2361,23.619,1.5625,0.0,0.0
2362,23.629,0.78125,0.0,0.0
2363,23.639,1.5625,-0.78125,0.0
2364,23.649,0.78125,0.0,0.0
2365,23.659,1.5625,0.0,0.0
2366,23.669,1.5625,0.0,0.0
2367,23.679,1.5625,-0.78125,0.0
2368,23.689,1.5625,0.0,0.0
2369,23.699,1.5625,0.0,0.0
2370,23.709,1.5625,0.0,0.0
2371,23.719,1.5625,0.0,0.0
2372,23.729,1.5625,-0.78125,0.0
2373,23.739,1.5625,0.0,0.0
2374,23.749,0.78125,0.0,0.0
2375,23.759,1.5625,0.0,0.0
2376,23.769,1.5625,-0.78125,0.0
2377,23.779,1.5625,0.0,0.0
2378,23.789,0.78125,0.0,0.0
2379,23.799,0.78125,-0.78125,0.0
2380,23.809,1.5625,0.0,0.0
2381,23.819,1.5625,0.0,0.0
2382,23.829,1.5625,-0.78125,0.0
2383,23.839,1.5625,0.0,0.0
2384,23.849,1.5625,-0.78125,0.0
2385,23.859,1.5625,0.0,0.0
2386,23.869,1.5625,-0.78125,0.0
2387,23.879,0.78125,0.0,0.0
2388,23.889,1.5625,0.0,0.0
2389,23.899,1.5625,0.0,0.0
2390,23.909,1.5625,-0.78125,0.0
2391,23.919,0.78125,0.0,0.0
2392,23.929,1.5625,0.0,0.0
2393,23.939,1.5625,0.0,0.0
2394,23.949,1.5625,0.0,0.0
2395,23.959,1.5625,0.0,0.0
2396,23.969,1.5625,0.0,0.0
2397,23.979,1.5625,0.0,0.0
2398,23.989,1.5625,-0.78125,0.0
2399,23.999,1.5625,-0.78125,0.0
2400,24.009,1.5625,-0.78125,0.0
2401,24.019,1.5625,0.0,0.0
2402,24.029,1.5625,0.0,0.0
2403,24.039,1.5625,0.0,0.0
2404,24.049,1.5625,0.0,0.0
2405,24.059,1.5625,0.0,0.0
2406,24.069,1.5625,0.0,0.0
2407,24.079,1.5625,0.0,0.0
2408,24.089,1.5625,-0.78125,0.0
2409,24.099,1.5625,0.0,0.0
2410,24.109,1.5625,0.0,0.0
2411,24.119,1.5625,0.0,0.0
2412,24.129,1.5625,0.0,0.0
2413,24.139,1.5625,0.0,0.0
2414,24.149,1.5625,0.0,0.0
2415,24.159,1.5625,0.0,0.0
2416,24.169,1.5625,0.0,0.0
2417,24.179,1.5625,0.0,0.0
2418,24.189,1.5625,0.0,0.0
2419,24.199,1.5625,0.0,0.0
2420,24.209,1.5625,0.0,0.0
2421,24.219,1.5625,0.0,0.0
2422,24.229,1.5625,0.0,0.0
2423,24.239,1.5625,0.0,0.0
2424,24.249,1.5625,0.0,0.0
2425,24.259,1.5625,0.0,0.0
2426,24.269,1.5625,0.0,0.0
2427,24.279,1.5625,0.0,0.0
2428,24.289,1.5625,0.0,0.0
2429,24.299,1.5625,0.0,0.0
2430,24.309,1.5625,0.0,0.0
2431,24.319,1.5625,0.0,0.0
2432,24.329,1.5625,0.0,0.0
2433,24.339,1.5625,0.0,0.0
2434,24.349,1.5625,0.0,0.0
2435,24.359,1.5625,0.0,0.0
2436,24.369,1.5625,0.0,0.0
2437,24.379,1.5625,0.0,0.0
2438,24.389,1.5625,0.0,0.0
2439,24.399,1.5625,0.0,0.0
2440,24.409,0.78125,0.0,0.0
2441,24.419,0.78125,0.0,0.0
2442,24.429,1.5625,0.0,0.0
2443,24.439,1.5625,-0.78125,0.0
2444,24.449,1.5625,0.0,0.0
2445,24.459,1.5625,0.0,0.0
2446,24.469,1.5625,0.0,0.0
2447,24.479,1.5625,-0.78125,0.0
2448,24.489,1.5625,-0.78125,0.0
2449,24.499,1.5625,0.0,0.0
2450,24.509,1.5625,-0.78125,0.0
2451,24.519,1.5625,0.0,0.0
2452,24.529,1.5625,0.0,0.0
2453,24.539,1.5625,0.0,0.0
2454,24.549,1.5625,-0.78125,0.0
2455,24.559,1.5625,0.0,0.0
2456,24.569,0.78125,0.0,0.0
2457,24.579,1.5625,0.0,0.0
2458,24.589,1.5625,0.0,0.0
2459,24.599,1.5625,0.0,0.0
2460,24.609,1.5625,-0.78125,0.0
2461,24.619,1.5625,-0.78125,0.0
2462,24.629,0.78125,0.0,0.0
2463,24.639,1.5625,0.0,0.0
2464,24.649,1.5625,0.0,0.0
2465,24.659,1.5625,0.0,0.0
2466,24.669,1.5625,0.0,0.0
2467,24.679,1.5625,0.0,0.0
2468,24.689,1.5625,0.0,0.0
2469,24.699,1.5625,0.0,0.0
2470,24.709,1.5625,0.0,0.0
2471,24.719,1.5625,0.0,0.0
2472,24.729,1.5625,0.0,0.0
2473,24.739,1.5625,0.0,0.0
2474,24.749,1.5625,0.0,0.0
2475,24.759,1.5625,0.0,0.0
2476,24.769,0.78125,0.0,0.0
2477,24.779,1.5625,-0.78125,0.0
2478,24.789,1.5625,0.0,0.0
2479,24.799,1.5625,0.0,0.0
2480,24.809,0.78125,0.0,0.0
2481,24.819,1.5625,0.0,0.0
2482,24.829,1.5625,0.0,0.0
2483,24.839,1.5625,0.78125,0.0
2484,24.849,1.5625,0.0,0.0
2485,24.859,1.5625,-0.78125,0.0
2486,24.869,1.5625,0.0,0.0
2487,24.879,1.5625,0.0,0.0
2488,24.889,1.5625,0.0,0.0
2489,24.899,1.5625,0.0,0.0
2490,24.909,1.5625,0.0,0.0
2491,24.919,1.5625,0.0,0.0
2492,24.929,1.5625,0.0,0.0
2493,24.939,1.5625,-0.78125,0.0
2494,24.949,1.5625,0.0,0.0
2495,24.959,1.5625,-0.78125,0.0
2496,24.969,1.5625,0.78125,0.0
2497,24.979,1.5625,-0.78125,0.0
2498,24.989,1.5625,-0.78125,0.0
2499,24.999,1.5625,-0.78125,0.0
2500,25.009,1.5625,0.0,0.0
2501,25.019,1.5625,0.0,0.0
2502,25.029,1.5625,0.0,0.0
2503,25.039,1.5625,0.0,0.0
2504,25.049,1.5625,0.0,0.0
2505,25.059,1.5625,-0.78125,0.0
2506,25.069,1.5625,0.0,0.0
2507,25.079,1.5625,-0.78125,0.0
2508,25.089,1.5625,0.0,0.0
2509,25.099,1.5625,-0.78125,0.0
2510,25.109,1.5625,0.0,0.0
2511,25.119,1.5625,-0.78125,0.0
2512,25.129,1.5625,-0.78125,0.0
2513,25.139,1.5625,0.0,0.0
2514,25.149,1.5625,-0.78125,0.0
2515,25.159,1.5625,0.0,0.0
2516,25.169,1.5625,0.0,0.0
2517,25.179,0.78125,-0.78125,0.0
2518,25.189,1.5625,0.0,0.0
2519,25.199,1.5625,-0.78125,0.0
2520,25.209,1.5625,-0.78125,0.0
2521,25.219,1.5625,0.0,0.0
2522,25.229,1.5625,0.0,0.0
2523,25.239,0.78125,0.0,0.0
2524,25.249,0.78125,0.0,0.0
2525,25.259,1.5625,0.0,0.0
2526,25.269,1.5625,0.0,0.0
2527,25.279,1.5625,0.0,0.0
2528,25.289,1.5625,0.0,0.0
2529,25.299,1.5625,0.0,0.0
2530,25.309,1.5625,-0.78125,0.0
2531,25.319,1.5625,0.78125,0.0
2532,25.329,0.78125,0.0,0.0
2533,25.339,1.5625,0.0,0.0
2534,25.349,1.5625,-0.78125,0.0
2535,25.359,1.5625,0.0,0.0
2536,25.369,1.5625,-0.78125,0.0
2537,25.379,1.5625,0.78125,0.0
2538,25.389,1.5625,-0.78125,0.0
2539,25.399,1.5625,-0.78125,0.0
2540,25.409,0.78125,-0.78125,0.0
2541,25.419,1.5625,0.0,0.0
2542,25.429,1.5625,-0.78125,0.0
2543,25.439,1.5625,-0.78125,0.0
2544,25.449,1.5625,0.0,0.0
2545,25.459,1.5625,0.0,0.0
2546,25.469,1.5625,0.0,0.0
2547,25.479,1.5625,0.0,0.0
2548,25.489,1.5625,0.0,0.0
2549,25.499,1.5625,0.0,0.0
2550,25.509,1.5625,0.0,0.0
2551,25.519,1.5625,0.0,0.0
2552,25.529,1.5625,0.0,0.0
2553,25.539,1.5625,0.0,0.0
2554,25.549,1.5625,0.0,0.0
2555,25.559,1.5625,-0.78125,0.0
2556,25.569,1.5625,0.0,0.0
2557,25.579,1.5625,-0.78125,0.0
2558,25.589,1.5625,0.0,0.0
2559,25.599,1.5625,0.0,0.0
2560,25.609,1.5625,-0.78125,0.0
2561,25.619,1.5625,0.0,0.0
2562,25.629,1.5625,0.0,0.0
2563,25.639,1.5625,0.0,0.0
2564,25.649,1.5625,0.0,0.0
2565,25.659,1.5625,0.0,0.0
2566,25.669,1.5625,0.0,0.0
2567,25.679,1.5625,0.0,0.0
2568,25.689,1.5625,-0.78125,0.0
2569,25.699,1.5625,-0.78125,0.0
2570,25.709,1.5625,0.0,0.0
2571,25.719,1.5625,0.0,0.0
2572,25.729,1.5625,0.0,0.0
2573,25.739,1.5625,0.0,0.0
2574,25.749,1.5625,0.0,0.0
2575,25.759,1.5625,0.0,0.0
2576,25.769,1.5625,0.0,0.0
2577,25.779,1.5625,0.0,0.0
2578,25.789,1.5625,0.0,0.0
2579,25.799,1.5625,0.0,0.0
2580,25.809,1.5625,0.0,0.0
2581,25.819,1.5625,-0.78125,0.0
2582,25.829,1.5625,-0.78125,0.0
2583,25.839,1.5625,-0.78125,0.0
2584,25.849,1.5625,-0.78125,0.0
2585,25.859,1.5625,0.0,0.0
2586,25.869,0.78125,-0.78125,0.0
2587,25.879,1.5625,0.0,0.0
2588,25.889,1.5625,0.78125,0.0
2589,25.899,1.5625,0.0,0.0
2590,25.909,1.5625,0.0,0.0
2591,25.919,1.5625,0.0,0.0
2592,25.929,1.5625,0.0,0.0
2593,25.939,1.5625,-0.78125,0.0
2594,25.949,1.5625,-0.78125,0.0
2595,25.959,1.5625,0.0,0.0
2596,25.969,1.5625,-0.78125,0.0
2597,25.979,1.5625,0.0,0.0
2598,25.989,1.5625,0.0,0.0
2599,25.999,1.5625,0.0,0.0
2600,26.009,1.5625,0.0,0.0
2601,26.019,1.5625,0.0,0.0
2602,26.029,1.5625,0.0,0.0
2603,26.039,1.5625,0.0,0.0
2604,26.049,1.5625,-0.78125,0.0
2605,26.059,1.5625,0.0,0.0
2606,26.069,1.5625,-0.78125,0.0
2607,26.079,1.5625,0.0,0.0
2608,26.089,1.5625,-0.78125,0.0
2609,26.099,1.5625,0.0,0.0
2610,26.109,1.5625,-0.78125,0.0
2611,26.119,1.5625,-0.78125,0.0
2612,26.129,0.78125,0.0,0.0
2613,26.139,1.5625,0.0,0.0
2614,26.149,1.5625,0.0,0.0
2615,26.159,1.5625,0.0,0.0
2616,26.169,1.5625,0.0,0.0
2617,26.179,1.5625,0.0,0.0
2618,26.189,1.5625,0.0,0.0
2619,26.199,0.78125,0.0,0.0
2620,26.209,0.78125,-0.78125,0.0
2621,26.219,1.5625,0.0,0.0
2622,26.229,1.5625,-0.78125,0.0
2623,26.239,1.5625,0.0,0.0
2624,26.249,1.5625,-0.78125,0.0
2625,26.259,0.78125,0.0,0.0
2626,26.269,0.78125,-0.78125,0.0
2627,26.279,1.5625,0.0,0.0
2628,26.289,1.5625,0.0,0.0
2629,26.299,1.5625,0.0,0.0
2630,26.309,1.5625,-0.78125,0.0
2631,26.319,1.5625,0.78125,0.0
2632,26.329,0.78125,0.0,0.0
2633,26.339,1.5625,0.0,0.0
2634,26.349,1.5625,0.0,0.0
2635,26.359,1.5625,0.0,0.0
2636,26.369,1.5625,-0.78125,0.0
2637,26.379,1.5625,0.0,0.0
2638,26.389,1.5625,0.0,0.0
2639,26.399,1.5625,0.0,0.0
2640,26.409,0.78125,0.0,0.0
2641,26.419,1.5625,0.0,0.0
2642,26.429,1.5625,0.0,0.0
2643,26.439,1.5625,0.0,0.0
2644,26.449,1.5625,0.0,0.0
2645,26.459,1.5625,0.0,0.0
2646,26.469,1.5625,0.0,0.0
2647,26.479,0.78125,0.0,0.0
2648,26.489,1.5625,0.0,0.0
2649,26.499,1.5625,0.0,0.0
2650,26.509,1.5625,-0.78125,0.0
2651,26.519,1.5625,-0.78125,0.0
2652,26.529,1.5625,-0.78125,0.0
2653,26.539,1.5625,-0.78125,0.0
2654,26.549,1.5625,0.0,0.0
2655,26.559,1.5625,0.0,0.0
2656,26.569,1.5625,0.0,0.0
2657,26.579,1.5625,0.0,0.0
2658,26.589,1.5625,0.0,0.0
2659,26.599,1.5625,0.0,0.0
2660,26.609,1.5625,0.0,0.0
2661,26.619,1.5625,0.0,0.0
2662,26.629,1.5625,0.0,0.0
2663,26.639,1.5625,-0.78125,0.0
2664,26.649,1.5625,-0.78125,0.0
2665,26.659,1.5625,-0.78125,0.0
2666,26.669,1.5625,-0.78125,0.0
2667,26.679,1.5625,0.0,0.0
2668,26.689,1.5625,0.0,0.0
2669,26.699,1.5625,0.0,0.0
2670,26.709,1.5625,0.0,0.0
2671,26.719,1.5625,0.0,0.0
2672,26.729,1.5625,0.0,0.0
2673,26.739,1.5625,0.0,0.0
2674,26.749,1.5625,0.0,0.0
2675,26.759,1.5625,0.0,0.0
2676,26.769,1.5625,-0.78125,0.0
2677,26.779,1.5625,0.0,0.0
2678,26.789,1.5625,-0.78125,0.0
2679,26.799,1.5625,-0.78125,0.0
2680,26.809,0.78125,-0.78125,0.0
2681,26.819,1.5625,0.78125,0.0
2682,26.829,1.5625,0.0,0.0
2683,26.839,1.5625,0.0,0.0
2684,26.849,1.5625,0.0,0.0
2685,26.859,1.5625,0.0,0.0
2686,26.869,1.5625,0.0,0.0
2687,26.879,1.5625,0.0,0.0
2688,26.889,1.5625,0.0,0.0
2689,26.899,1.5625,0.0,0.0
2690,26.909,1.5625,-0.78125,0.0
2691,26.919,1.5625,-0.78125,0.0
2692,26.929,1.5625,-0.78125,0.0
2693,26.939,1.5625,-0.78125,0.0
2694,26.949,0.78125,0.0,0.0
2695,26.959,1.5625,0.0,0.0
2696,26.969,1.5625,0.0,0.0
2697,26.979,1.5625,0.0,0.0
2698,26.989,1.5625,0.78125,0.0
2699,26.999,1.5625,-0.78125,0.0
2700,27.009,1.5625,-0.78125,0.0
2701,27.019,1.5625,0.0,0.0
2702,27.029,1.5625,-0.78125,0.0
2703,27.039,1.5625,0.0,0.0
2704,27.049,1.5625,0.0,0.0
2705,27.059,1.5625,0.0,0.0
2706,27.069,1.5625,0.0,0.0
2707,27.079,1.5625,0.0,0.0
2708,27.089,1.5625,0.0,0.0
2709,27.099,1.5625,0.0,0.0
2710,27.109,1.5625,0.0,0.0
2711,27.119,1.5625,0.0,0.0
2712,27.129,1.5625,0.0,0.0
2713,27.139,1.5625,0.0,0.0
2714,27.149,1.5625,0.0,0.0
2715,27.159,1.5625,-0.78125,0.0
2716,27.169,1.5625,0.0,0.0
2717,27.179,1.5625,-0.78125,0.0
2718,27.189,1.5625,0.0,0.0
2719,27.199,1.5625,-0.78125,0.0
2720,27.209,1.5625,-0.78125,0.0
2721,27.219,1.5625,0.0,0.0
2722,27.229,0.78125,0.0,0.0
2723,27.239,1.5625,-0.78125,0.0
2724,27.249,1.5625,0.0,0.0
2725,27.259,1.5625,-0.78125,0.0
2726,27.269,1.5625,0.0,0.0
2727,27.279,1.5625,0.0,0.0
2728,27.289,0.78125,0.0,0.0
2729,27.299,0.78125,-0.78125,0.0
2730,27.309,0.78125,0.0,0.0
2731,27.319,1.5625,-0.78125,0.0
2732,27.329,1.5625,-0.78125,0.0
2733,27.339,1.5625,-0.78125,0.0
2734,27.349,1.5625,-0.78125,0.0
2735,27.359,1.5625,-0.78125,0.0
2736,27.369,1.5625,-0.78125,0.0
2737,27.379,0.78125,0.0,0.0
2738,27.389,1.5625,0.0,0.0
2739,27.399,1.5625,0.0,0.0
2740,27.409,1.5625,0.0,0.0
2741,27.419,1.5625,0.0,0.0
2742,27.429,1.5625,0.0,0.0
2743,27.439,0.78125,0.0,0.0
2744,27.449,0.78125,0.0,0.0
2745,27.459,1.5625,-0.78125,0.0
2746,27.469,1.5625,-0.78125,0.0
2747,27.479,1.5625,0.0,0.0
2748,27.489,1.5625,-0.78125,0.0
2749,27.499,1.5625,0.0,0.0
2750,27.509,0.78125,0.0,0.0
2751,27.519,1.5625,0.0,0.0
2752,27.529,1.5625,0.0,0.0
2753,27.539,1.5625,0.78125,0.0
2754,27.549,1.5625,0.0,0.0
2755,27.559,1.5625,0.0,0.0
2756,27.569,1.5625,0.0,0.0
2757,27.579,1.5625,0.0,0.0
2758,27.589,1.5625,0.0,0.0
2759,27.599,1.5625,0.0,0.0
2760,27.609,1.5625,0.0,0.0
2761,27.619,1.5625,-0.78125,0.0
2762,27.629,1.5625,0.0,0.0
2763,27.639,1.5625,-0.78125,0.0
2764,27.649,1.5625,0.0,0.0
2765,27.659,1.5625,0.0,0.0
2766,27.669,1.5625,0.0,0.0
2767,27.679,1.5625,0.0,0.0
2768,27.689,1.5625,0.78125,0.0
2769,27.699,1.5625,0.0,0.0
2770,27.709,1.5625,0.0,0.0
2771,27.719,1.5625,0.0,0.0
2772,27.729,1.5625,0.0,0.0
2773,27.739,1.5625,-0.78125,0.0
2774,27.749,1.5625,0.0,0.0
2775,27.759,1.5625,-0.78125,0.0
2776,27.769,1.5625,-0.78125,0.0
2777,27.779,0.78125,-0.78125,0.0
2778,27.789,0.78125,0.0,0.0
2779,27.799,1.5625,0.0,0.0
2780,27.809,1.5625,0.0,0.0
2781,27.819,1.5625,0.0,0.0
2782,27.829,1.5625,0.0,0.0
2783,27.839,1.5625,0.0,0.0
2784,27.849,0.78125,0.0,0.0
2785,27.859,0.78125,0.0,0.0
2786,27.869,1.5625,0.0,0.0
2787,27.879,1.5625,0.0,0.0
2788,27.889,1.5625,0.0,0.0
2789,27.899,1.5625,0.0,0.0
2790,27.909,0.78125,0.0,0.0
2791,27.919,1.5625,0.0,0.0
2792,27.929,0.78125,0.0,0.0
2793,27.939,1.5625,0.78125,0.0
2794,27.949,1.5625,0.0,0.0
2795,27.959,1.5625,0.78125,0.0
2796,27.969,1.5625,0.0,0.0
2797,27.979,1.5625,0.0,0.0
2798,27.989,1.5625,0.0,0.0
2799,27.999,1.5625,0.0,0.0
2800,28.009,1.5625,-0.78125,0.0
2801,28.019,1.5625,-0.78125,0.0
2802,28.029,1.5625,0.0,0.0
2803,28.039,1.5625,-0.78125,0.0
2804,28.049,0.78125,0.0,0.0
2805,28.059,0.78125,0.0,0.0
2806,28.069,1.5625,0.0,0.0
2807,28.079,1.5625,0.0,0.0
2808,28.089,1.5625,0.0,0.0
2809,28.099,1.5625,0.0,0.0
2810,28.109,1.5625,0.0,0.0
2811,28.119,1.5625,-0.78125,0.0
2812,28.129,1.5625,0.0,0.0
2813,28.139,0.78125,-0.78125,0.0
2814,28.149,1.5625,0.0,0.0
2815,28.159,1.5625,-0.78125,0.0
2816,28.169,1.5625,-0.78125,0.0
2817,28.179,1.5625,-0.78125,0.0
2818,28.189,1.5625,-0.78125,0.0
2819,28.199,1.5625,0.0,0.0
2820,28.209,1.5625,0.0,0.0
2821,28.219,1.5625,0.0,0.0
2822,28.229,1.5625,0.0,0.0
2823,28.239,1.5625,0.0,0.0
2824,28.249,1.5625,0.0,0.0
2825,28.259,1.5625,0.0,0.0
2826,28.269,1.5625,0.0,0.0
2827,28.279,1.5625,0.0,0.0
2828,28.289,1.5625,0.0,0.0
2829,28.299,1.5625,0.0,0.0
2830,28.309,1.5625,-0.78125,0.0
2831,28.319,1.5625,-0.78125,0.0
2832,28.329,1.5625,-0.78125,0.0
2833,28.339,0.78125,0.0,0.0
2834,28.349,0.78125,0.0,0.0
2835,28.359,1.5625,0.0,0.0
2836,28.369,1.5625,0.0,0.0
2837,28.379,1.5625,0.0,0.0
2838,28.389,1.5625,0.0,0.0
2839,28.399,1.5625,0.0,0.0
2840,28.409,0.78125,0.0,0.0
2841,28.419,1.5625,0.0,0.0
2842,28.429,1.5625,-0.78125,0.0
2843,28.439,1.5625,0.0,0.0
2844,28.449,1.5625,-0.78125,0.0
2845,28.459,1.5625,0.0,0.0
2846,28.469,1.5625,-0.78125,0.0
2847,28.479,1.5625,0.0,0.0
2848,28.489,0.78125,0.0,0.0
2849,28.499,1.5625,0.0,0.0
2850,28.509,1.5625,0.0,0.0
2851,28.519,1.5625,0.0,0.0
2852,28.529,1.5625,0.0,0.0
2853,28.539,1.5625,0.0,0.0
2854,28.549,1.5625,-0.78125,0.0
2855,28.559,1.5625,-0.78125,0.0
2856,28.569,1.5625,0.0,0.0
2857,28.579,1.5625,-0.78125,0.0
2858,28.589,1.5625,0.0,0.0
2859,28.599,1.5625,-0.78125,0.0
2860,28.609,1.5625,0.0,0.0
2861,28.619,0.78125,0.0,0.0
2862,28.629,1.5625,0.78125,0.0
2863,28.639,1.5625,-0.78125,0.0
2864,28.649,1.5625,0.78125,0.0
2865,28.659,1.5625,0.0,0.0
2866,28.669,1.5625,0.0,0.0
2867,28.679,1.5625,0.0,0.0
2868,28.689,1.5625,0.0,0.0
2869,28.699,1.5625,-0.78125,0.0
2870,28.709,1.5625,0.0,0.0
2871,28.719,0.78125,-0.78125,0.0
2872,28.729,1.5625,0.0,0.0
2873,28.739,0.78125,-0.78125,0.0
2874,28.749,0.78125,0.0,0.0
2875,28.759,0.78125,0.0,0.0
2876,28.769,1.5625,0.78125,0.0
2877,28.779,0.78125,0.0,0.0
2878,28.789,1.5625,0.0,0.0
2879,28.799,1.5625,0.0,0.0
2880,28.809,1.5625,0.0,0.0
2881,28.819,1.5625,0.78125,0.0
2882,28.829,1.5625,-0.78125,0.0
2883,28.839,1.5625,0.0,0.0
2884,28.849,1.5625,0.0,0.0
2885,28.859,1.5625,0.0,0.0
2886,28.869,1.5625,-0.78125,0.0
2887,28.879,0.78125,-0.78125,0.0
2888,28.889,1.5625,0.0,0.0
2889,28.899,0.78125,0.0,0.0
2890,28.909,0.78125,0.0,0.0
2891,28.919,1.5625,0.0,0.0
2892,28.929,1.5625,0.0,0.0
2893,28.939,1.5625,0.0,0.0
2894,28.949,1.5625,0.0,0.0
2895,28.959,1.5625,-0.78125,0.0
2896,28.969,1.5625,0.0,0.0
2897,28.979,1.5625,-0.78125,0.0
2898,28.989,1.5625,0.0,0.0
2899,28.999,1.5625,-0.78125,0.0
2900,29.009,1.5625,0.0,0.0
2901,29.019,0.78125,-0.78125,0.0
2902,29.029,0.78125,0.0,0.0
2903,29.039,1.5625,-0.78125,0.0
2904,29.049,1.5625,0.78125,0.0
2905,29.059,1.5625,-0.78125,0.0
2906,29.069,1.5625,0.78125,0.0
2907,29.079,1.5625,0.0,0.0
2908,29.089,1.5625,0.0,0.0
2909,29.099,1.5625,-0.78125,0.0
2910,29.109,1.5625,0.0,0.0
2911,29.119,0.78125,-0.78125,0.0
2912,29.129,1.5625,0.0,0.0
2913,29.139,1.5625,-0.78125,0.0
2914,29.149,1.5625,0.0,0.0
2915,29.159,1.5625,-0.78125,0.0
2916,29.169,1.5625,0.0,0.0
2917,29.179,1.5625,0.0,0.0
2918,29.189,1.5625,0.0,0.0
2919,29.199,1.5625,0.0,0.0
2920,29.209,1.5625,0.0,0.0
2921,29.219,1.5625,0.0,0.0
2922,29.229,1.5625,0.0,0.0
2923,29.239,0.78125,0.0,0.0
2924,29.249,1.5625,0.0,0.0
2925,29.259,1.5625,-0.78125,0.0
2926,29.269,1.5625,0.0,0.0
2927,29.279,1.5625,0.0,0.0
2928,29.289,1.5625,-0.78125,0.0
2929,29.299,0.78125,-0.78125,0.0
2930,29.309,0.78125,0.0,0.0
2931,29.319,1.5625,0.0,0.0
2932,29.329,1.5625,0.78125,0.0
2933,29.339,1.5625,0.0,0.0
2934,29.349,1.5625,0.0,0.0
2935,29.359,1.5625,0.0,0.0
2936,29.369,1.5625,0.0,0.0
2937,29.379,0.78125,0.0,0.0
2938,29.389,1.5625,0.0,0.0
2939,29.399,1.5625,0.0,0.0
2940,29.409,1.5625,0.0,0.0
2941,29.419,1.5625,-0.78125,0.0
2942,29.429,1.5625,0.0,0.0
2943,29.439,1.5625,-0.78125,0.0
2944,29.449,0.78125,0.0,0.0
2945,29.459,0.78125,0.0,0.0
2946,29.469,0.78125,0.0,0.0
2947,29.479,1.5625,0.0,0.0
2948,29.489,1.5625,0.0,0.0
2949,29.499,1.5625,0.0,0.0
2950,29.509,1.5625,0.0,0.0
2951,29.519,1.5625,0.0,0.0
2952,29.529,1.5625,0.0,0.0
2953,29.539,1.5625,0.0,0.0
2954,29.549,1.5625,0.0,0.0
2955,29.559,1.5625,0.0,0.0
2956,29.569,1.5625,0.0,0.0
2957,29.579,0.78125,-0.78125,0.0
2958,29.589,1.5625,0.0,0.0
2959,29.599,0.78125,-0.78125,0.0
2960,29.609,1.5625,0.0,0.0
2961,29.619,1.5625,0.0,0.0
2962,29.629,1.5625,0.0,0.0
2963,29.639,1.5625,0.0,0.0
2964,29.649,1.5625,0.0,0.0
2965,29.659,0.78125,0.0,0.0
2966,29.669,1.5625,0.0,0.0
2967,29.679,0.78125,0.0,0.0
2968,29.689,1.5625,0.0,0.0
2969,29.699,1.5625,-0.78125,0.0
2970,29.709,1.5625,0.0,0.0
2971,29.719,1.5625,-0.78125,0.0
2972,29.729,1.5625,-0.78125,0.0
2973,29.739,1.5625,0.0,0.0
2974,29.749,1.5625,0.0,0.0
2975,29.759,0.78125,0.0,0.0
2976,29.769,1.5625,0.0,0.0
2977,29.779,1.5625,0.0,0.0
2978,29.789,1.5625,0.0,0.0
2979,29.799,1.5625,0.0,0.0
2980,29.809,1.5625,0.0,0.0
2981,29.819,1.5625,0.0,0.0
2982,29.829,1.5625,0.0,0.0
2983,29.839,1.5625,0.0,0.0
2984,29.849,1.5625,-0.78125,0.0
2985,29.859,1.5625,-0.78125,0.0
2986,29.869,1.5625,-0.78125,0.0
2987,29.879,1.5625,-0.78125,0.0
2988,29.889,1.5625,0.0,0.0
2989,29.899,1.5625,0.0,0.0
2990,29.909,1.5625,0.0,0.0
2991,29.919,1.5625,-0.78125,0.0
2992,29.929,1.5625,0.0,0.0
2993,29.939,1.5625,-0.78125,0.0
2994,29.949,0.78125,0.0,0.0
2995,29.959,1.5625,0.0,0.0
2996,29.969,1.5625,0.0,0.0
2997,29.979,1.5625,0.0,0.0
2998,29.989,1.5625,0.0,0.0
2999,29.999,1.5625,0.0,0.0
3000,30.009,0.78125,0.0,0.0
3001,30.019,1.5625,-0.78125,0.0
3002,30.029,1.5625,0.0,0.0
3003,30.039,1.5625,0.0,0.0
3004,30.049,1.5625,0.78125,0.0
3005,30.059,0.78125,0.0,0.0
3006,30.069,1.5625,0.0,0.0
3007,30.079,1.5625,-0.78125,0.0
3008,30.089,1.5625,0.0,0.0
3009,30.099,1.5625,0.0,0.0
3010,30.109,1.5625,0.0,0.0
3011,30.119,1.5625,-0.78125,0.0
3012,30.129,1.5625,0.0,0.0
3013,30.139,1.5625,-0.78125,0.0
3014,30.149,1.5625,0.0,0.0
3015,30.159,1.5625,-0.78125,0.0
3016,30.169,1.5625,-0.78125,0.0
3017,30.179,1.5625,0.0,0.0
3018,30.189,1.5625,0.0,0.0
3019,30.199,1.5625,0.0,0.0
3020,30.209,1.5625,0.0,0.0
3021,30.219,1.5625,-0.78125,0.0
3022,30.229,1.5625,0.0,0.0
3023,30.239,0.78125,0.0,0.0
3024,30.249,1.5625,0.0,0.0
3025,30.259,0.78125,-0.78125,0.0
3026,30.269,1.5625,0.0,0.0
3027,30.279,1.5625,-0.78125,0.0
3028,30.289,1.5625,0.0,0.0
3029,30.299,0.78125,-0.78125,0.0
3030,30.309,1.5625,0.0,0.0
3031,30.319,0.78125,0.0,0.0
3032,30.329,1.5625,0.78125,0.0
3033,30.339,1.5625,0.0,0.0
3034,30.349,1.5625,0.0,0.0
3035,30.359,1.5625,0.0,0.0
3036,30.369,1.5625,0.78125,0.0
3037,30.379,1.5625,0.0,0.0
3038,30.389,0.78125,0.0,0.0
3039,30.399,1.5625,-0.78125,0.0
3040,30.409,1.5625,0.0,0.0
3041,30.419,1.5625,0.0,0.0
3042,30.429,1.5625,0.0,0.0
3043,30.439,1.5625,-0.78125,0.0
3044,30.449,1.5625,-0.78125,0.0
3045,30.459,1.5625,0.0,0.0
3046,30.469,0.78125,0.0,0.0
3047,30.479,0.78125,0.0,0.0
3048,30.489,1.5625,0.0,0.0
3049,30.499,1.5625,0.0,0.0
3050,30.509,1.5625,0.0,0.0
3051,30.519,1.5625,0.0,0.0
3052,30.529,0.78125,0.0,0.0
3053,30.539,0.78125,0.0,0.0
3054,30.549,1.5625,-0.78125,0.0
3055,30.559,1.5625,0.0,0.0
3056,30.569,1.5625,-0.78125,0.0
3057,30.579,1.5625,-0.78125,0.0
3058,30.589,1.5625,-0.78125,0.0
3059,30.599,1.5625,0.0,0.0
3060,30.609,1.5625,0.0,0.0
3061,30.619,1.5625,0.0,0.0
3062,30.629,1.5625,0.0,0.0
3063,30.639,1.5625,0.0,0.0
3064,30.649,1.5625,-0.78125,0.0
3065,30.659,1.5625,0.0,0.0
3066,30.669,1.5625,0.0,0.0
3067,30.679,1.5625,0.0,0.0
3068,30.689,1.5625,-0.78125,0.0
3069,30.699,0.78125,0.0,0.0
3070,30.709,1.5625,-0.78125,0.0
3071,30.719,1.5625,0.0,0.0
3072,30.729,1.5625,-0.78125,0.0
3073,30.739,1.5625,0.0,0.0
3074,30.749,1.5625,0.0,0.0
3075,30.759,1.5625,0.78125,0.0
3076,30.769,1.5625,0.0,0.0
3077,30.779,1.5625,0.0,0.0
3078,30.789,1.5625,0.0,0.0
3079,30.799,1.5625,0.0,0.0
3080,30.809,1.5625,0.0,0.0
3081,30.819,1.5625,0.0,0.0
3082,30.829,1.5625,0.0,0.0
3083,30.839,1.5625,0.0,0.0
3084,30.849,1.5625,0.0,0.0
3085,30.859,1.5625,0.0,0.0
3086,30.869,1.5625,0.0,0.0
3087,30.879,0.78125,-0.78125,0.0
3088,30.889,1.5625,0.0,0.0
3089,30.899,1.5625,0.0,0.0
3090,30.909,1.5625,0.0,0.0
3091,30.919,1.5625,0.78125,0.0
3092,30.929,1.5625,0.0,0.0
3093,30.939,1.5625,0.0,0.0
3094,30.949,1.5625,0.0,0.0
3095,30.959,1.5625,0.0,0.0
3096,30.969,0.78125,0.0,0.0
3097,30.979,1.5625,0.0,0.0
3098,30.989,1.5625,0.0,0.0
3099,30.999,1.5625,-0.78125,0.0
3100,31.009,1.5625,0.0,0.0
3101,31.019,0.78125,0.0,0.0
3102,31.029,1.5625,0.0,0.0
3103,31.039,1.5625,0.0,0.0
3104,31.049,1.5625,0.0,0.0
3105,31.059,1.5625,0.0,0.0
3106,31.069,1.5625,-0.78125,0.0
3107,31.079,1.5625,0.0,0.0
3108,31.089,1.5625,-0.78125,0.0
3109,31.099,0.78125,0.0,0.0
3110,31.109,1.5625,-0.78125,0.0
3111,31.119,1.5625,0.0,0.0
3112,31.129,1.5625,-0.78125,0.0
3113,31.139,1.5625,-0.78125,0.0
3114,31.149,1.5625,0.0,0.0
3115,31.159,0.78125,0.0,0.0
3116,31.169,1.5625,0.0,0.0
3117,31.179,1.5625,0.0,0.0
3118,31.189,1.5625,0.0,0.0
3119,31.199,1.5625,0.0,0.0
3120,31.209,1.5625,0.0,0.0
3121,31.219,1.5625,-0.78125,0.0
3122,31.229,0.78125,0.78125,0.0
3123,31.239,0.78125,-0.78125,0.0
3124,31.249,1.5625,0.0,0.0
3125,31.259,1.5625,-0.78125,0.0
3126,31.269,1.5625,0.0,0.0
3127,31.279,1.5625,-0.78125,0.0
3128,31.289,1.5625,-0.78125,0.0
3129,31.299,1.5625,-0.78125,0.0
3130,31.309,1.5625,0.0,0.0
3131,31.319,1.5625,0.0,0.0
3132,31.329,1.5625,0.78125,0.0
3133,31.339,1.5625,0.0,0.0
3134,31.349,1.5625,-0.78125,0.0
3135,31.359,1.5625,0.0,0.0
3136,31.369,1.5625,0.0,0.0
3137,31.379,1.5625,0.0,0.0
3138,31.389,1.5625,0.0,0.0
3139,31.399,1.5625,-0.78125,0.0
3140,31.409,1.5625,0.0,0.0
3141,31.419,1.5625,-0.78125,0.0
3142,31.429,1.5625,-0.78125,0.0
3143,31.439,1.5625,0.0,0.0
3144,31.449,1.5625,0.78125,0.0
3145,31.459,1.5625,0.0,0.0
3146,31.469,1.5625,0.78125,0.0
3147,31.479,1.5625,0.0,0.0
3148,31.489,1.5625,0.0,0.0
3149,31.499,1.5625,0.0,0.0
3150,31.509,0.78125,0.0,0.0
3151,31.519,0.78125,0.0,0.0
3152,31.529,1.5625,0.0,0.0
3153,31.539,1.5625,-0.78125,0.0
3154,31.549,1.5625,0.0,0.0
3155,31.559,1.5625,-0.78125,0.0
3156,31.569,0.78125,-0.78125,0.0
3157,31.579,1.5625,0.0,0.0
3158,31.589,1.5625,0.0,0.0
3159,31.599,1.5625,0.0,0.0
3160,31.609,1.5625,0.0,0.0
3161,31.619,1.5625,0.0,0.0
3162,31.629,1.5625,-0.78125,0.0
3163,31.639,1.5625,0.78125,0.0
3164,31.649,1.5625,0.0,0.0
3165,31.659,1.5625,0.0,0.0
3166,31.669,1.5625,0.0,0.0
3167,31.679,1.5625,0.0,0.0
3168,31.689,1.5625,-0.78125,0.0
3169,31.699,1.5625,-0.78125,0.0
3170,31.709,1.5625,-0.78125,0.0
3171,31.719,0.78125,0.0,0.0
3172,31.729,1.5625,0.78125,0.0
3173,31.739,1.5625,0.0,0.0
3174,31.749,1.5625,0.0,0.0
3175,31.759,1.5625,0.0,0.0
3176,31.769,1.5625,0.0,0.0
3177,31.779,1.5625,0.0,0.0
3178,31.789,1.5625,0.0,0.0
3179,31.799,1.5625,0.0,0.0
3180,31.809,1.5625,0.0,0.0
3181,31.819,1.5625,0.0,0.0
3182,31.829,1.5625,0.0,0.0
3183,31.839,0.78125,-0.78125,0.0
3184,31.849,0.78125,-0.78125,0.0
3185,31.859,1.5625,-0.78125,0.0
3186,31.869,0.78125,0.0,0.0
3187,31.879,1.5625,0.0,0.0
3188,31.889,1.5625,0.0,0.0
3189,31.899,1.5625,0.0,0.0
3190,31.909,1.5625,-0.78125,0.0
3191,31.919,1.5625,0.0,0.0
3192,31.929,1.5625,0.0,0.0
3193,31.939,1.5625,0.0,0.0
3194,31.949,1.5625,-0.78125,0.0
3195,31.959,1.5625,-0.78125,0.0
3196,31.969,1.5625,0.0,0.0
3197,31.979,1.5625,-1.5625,0.0
3198,31.989,1.5625,0.0,0.0
3199,31.999,1.5625,-0.78125,0.0
3200,32.009,1.5625,0.0,0.0
3201,32.019,1.5625,0.0,0.0
3202,32.029,1.5625,0.0,0.0
3203,32.039,1.5625,-0.78125,0.0
3204,32.049,1.5625,-0.78125,0.0
3205,32.059,1.5625,0.0,0.0
3206,32.069,1.5625,0.0,0.0
3207,32.079,1.5625,0.0,0.0
3208,32.089,1.5625,0.0,0.0
3209,32.099,1.5625,-0.78125,0.0
3210,32.109,1.5625,0.0,0.0
3211,32.119,1.5625,-0.78125,0.0
3212,32.129,1.5625,-0.78125,0.0
3213,32.139,1.5625,0.0,0.0
3214,32.149,1.5625,0.0,0.0
3215,32.159,1.5625,0.0,0.0
3216,32.169,1.5625,0.0,0.0
3217,32.179,1.5625,0.0,0.0
3218,32.189,1.5625,0.0,0.0
3219,32.199,0.78125,0.0,0.0
3220,32.209,0.78125,0.0,0.0
3221,32.219,1.5625,0.0,0.0
3222,32.229,1.5625,0.0,0.0
3223,32.239,1.5625,0.0,0.0
3224,32.249,1.5625,0.0,0.0
3225,32.259,1.5625,-0.78125,0.0
3226,32.269,1.5625,0.0,0.0
3227,32.279,1.5625,0.0,0.0
3228,32.289,0.78125,0.0,0.0
3229,32.299,0.78125,0.0,0.0
3230,32.309,0.78125,0.0,0.0
3231,32.319,1.5625,0.78125,0.0
3232,32.329,1.5625,-0.78125,0.0
3233,32.339,1.5625,0.0,0.0
3234,32.349,0.78125,0.0,0.0
3235,32.359,0.78125,0.0,0.0
3236,32.369,0.78125,-0.78125,0.0
3237,32.379,0.78125,0.0,0.0
3238,32.389,1.5625,-0.78125,0.0
3239,32.399,1.5625,0.0,0.0
3240,32.409,1.5625,0.0,0.0
3241,32.419,1.5625,-0.78125,0.0
3242,32.429,1.5625,-0.78125,0.0
3243,32.439,1.5625,-0.78125,0.0
3244,32.449,1.5625,0.0,0.0
3245,32.459,0.78125,0.0,0.0
3246,32.469,1.5625,0.0,0.0
3247,32.479,1.5625,0.0,0.0
3248,32.489,1.5625,-0.78125,0.0
3249,32.499,1.5625,0.0,0.0
3250,32.509,1.5625,0.0,0.0
3251,32.519,1.5625,0.0,0.0
3252,32.529,1.5625,0.0,0.0
3253,32.539,1.5625,0.0,0.0
3254,32.549,1.5625,0.0,0.0
3255,32.559,1.5625,0.0,0.0
3256,32.569,1.5625,-0.78125,0.0
3257,32.579,0.78125,-0.78125,0.0
3258,32.589,1.5625,-0.78125,0.0
3259,32.599,1.5625,0.0,0.0
3260,32.609,1.5625,0.0,0.0
3261,32.619,1.5625,0.0,0.0
3262,32.629,1.5625,0.0,0.0
3263,32.639,1.5625,-0.78125,0.0
3264,32.649,1.5625,0.0,0.0
3265,32.659,0.78125,0.0,0.0
3266,32.669,1.5625,0.0,0.0
3267,32.679,1.5625,-0.78125,0.0
3268,32.689,1.5625,-0.78125,0.0
3269,32.699,1.5625,0.0,0.0
3270,32.709,1.5625,-0.78125,0.0
3271,32.719,1.5625,-0.78125,0.0
3272,32.729,1.5625,0.0,0.0
3273,32.739,0.78125,-0.78125,0.0
3274,32.749,1.5625,0.0,0.0
3275,32.759,1.5625,0.0,0.0
3276,32.769,1.5625,0.0,0.0
3277,32.779,1.5625,0.0,0.0
3278,32.789,1.5625,-0.78125,0.0
3279,32.799,0.78125,0.0,0.0
3280,32.809,0.78125,0.0,0.0
3281,32.819,1.5625,0.0,0.0
3282,32.829,1.5625,-0.78125,0.0
3283,32.839,1.5625,0.0,0.0
3284,32.849,1.5625,-0.78125,0.0
3285,32.859,1.5625,0.0,0.0
3286,32.869,1.5625,-0.78125,0.0
3287,32.879,1.5625,0.0,0.0
3288,32.889,0.78125,-0.78125,0.0
3289,32.899,1.5625,0.0,0.0
3290,32.909,1.5625,-0.78125,0.0
3291,32.919,1.5625,0.0,0.0
3292,32.929,1.5625,-0.78125,0.0
3293,32.939,1.5625,0.0,0.0
3294,32.949,1.5625,0.0,0.0
3295,32.959,1.5625,0.0,0.0
3296,32.969,1.5625,0.0,0.0
3297,32.979,1.5625,-0.78125,0.0
3298,32.989,1.5625,0.0,0.0
3299,32.999,1.5625,0.0,0.0
3300,33.009,1.5625,0.0,0.0
3301,33.019,1.5625,-0.78125,0.0
3302,33.029,1.5625,0.0,0.0
3303,33.039,1.5625,0.0,0.0
3304,33.049,1.5625,0.0,0.0
3305,33.059,1.5625,0.78125,0.0
3306,33.069,1.5625,0.0,0.0
3307,33.079,1.5625,0.78125,0.0
3308,33.089,1.5625,0.0,0.0
3309,33.099,1.5625,0.0,0.0
3310,33.109,1.5625,0.0,0.0
3311,33.119,1.5625,0.0,0.0
3312,33.129,1.5625,-0.78125,0.0
3313,33.139,1.5625,0.0,0.0
3314,33.149,1.5625,-0.78125,0.0
3315,33.159,1.5625,-0.78125,0.0
3316,33.169,1.5625,-0.78125,0.0
3317,33.179,1.5625,0.0,0.0
3318,33.189,1.5625,0.0,0.0
3319,33.199,1.5625,0.0,0.0
3320,33.209,1.5625,-0.78125,0.0
3321,33.219,1.5625,0.0,0.0
3322,33.229,1.5625,0.0,0.0
3323,33.239,1.5625,0.0,0.0
3324,33.249,1.5625,0.0,0.0
3325,33.259,1.5625,0.0,0.0
3326,33.269,1.5625,-0.78125,0.0
3327,33.279,1.5625,0.0,0.0
3328,33.289,1.5625,-0.78125,0.0
3329,33.299,1.5625,0.0,0.0
3330,33.309,0.78125,-0.78125,0.0
3331,33.319,1.5625,0.78125,0.0
3332,33.329,1.5625,0.78125,0.0
3333,33.339,1.5625,0.0,0.0
3334,33.349,1.5625,0.0,0.0
3335,33.359,1.5625,-0.78125,0.0
3336,33.369,1.5625,0.0,0.0
3337,33.379,0.78125,0.0,0.0
3338,33.389,1.5625,0.0,0.0
3339,33.399,1.5625,0.0,0.0
3340,33.409,1.5625,-0.78125,0.0
3341,33.419,1.5625,0.0,0.0
3342,33.429,1.5625,-0.78125,0.0
3343,33.439,1.5625,-0.78125,0.0
3344,33.449,1.5625,-0.78125,0.0
3345,33.459,1.5625,0.0,0.0
3346,33.469,1.5625,0.0,0.0
3347,33.479,1.5625,-0.78125,0.0
3348,33.489,1.5625,0.0,0.0
3349,33.499,1.5625,-0.78125,0.0
3350,33.509,1.5625,-0.78125,0.0
3351,33.519,1.5625,0.0,0.0
3352,33.529,1.5625,0.0,0.0
3353,33.539,1.5625,0.0,0.0
3354,33.549,1.5625,0.0,0.0
3355,33.559,1.5625,0.0,0.0
3356,33.569,1.5625,-0.78125,0.0
3357,33.579,1.5625,-0.78125,0.0
3358,33.589,0.78125,0.0,0.0
3359,33.599,1.5625,0.0,0.0
3360,33.609,0.78125,0.0,0.0
3361,33.619,1.5625,0.0,0.0
3362,33.629,1.5625,0.0,0.0
3363,33.639,1.5625,0.0,0.0
3364,33.649,1.5625,-0.78125,0.0
3365,33.659,1.5625,-0.78125,0.0
3366,33.669,0.78125,0.0,0.0
3367,33.679,1.5625,0.0,0.0
3368,33.689,1.5625,0.0,0.0
3369,33.699,1.5625,-0.78125,0.0
3370,33.709,1.5625,0.0,0.0
3371,33.719,1.5625,-0.78125,0.0
3372,33.729,1.5625,-0.78125,0.0
3373,33.739,1.5625,-0.78125,0.0
3374,33.749,1.5625,0.0,0.0
3375,33.759,1.5625,0.0,0.0
3376,33.769,0.78125,0.0,0.0
3377,33.779,1.5625,0.0,0.0
3378,33.789,1.5625,0.0,0.0
3379,33.799,1.5625,-0.78125,0.0
3380,33.809,0.78125,0.0,0.0
3381,33.819,1.5625,0.0,0.0
3382,33.829,1.5625,0.0,0.0
3383,33.839,1.5625,0.0,0.0
3384,33.849,1.5625,0.0,0.0
3385,33.859,1.5625,0.0,0.0
3386,33.869,1.5625,-0.78125,0.0
3387,33.879,1.5625,-0.78125,0.0
3388,33.889,0.78125,0.0,0.0
3389,33.899,0.78125,0.0,0.0
3390,33.909,0.78125,0.78125,0.0
3391,33.919,0.78125,0.0,0.0
3392,33.929,1.5625,0.0,0.0
3393,33.939,1.5625,0.78125,0.0
3394,33.949,1.5625,-0.78125,0.0
3395,33.959,1.5625,0.0,0.0
3396,33.969,0.78125,0.0,0.0
3397,33.979,1.5625,0.78125,0.0
3398,33.989,1.5625,-0.78125,0.0
3399,33.999,1.5625,0.0,0.0
3400,34.009,1.5625,-0.78125,0.0
3401,34.019,1.5625,-0.78125,0.0
3402,34.029,1.5625,0.0,0.0
3403,34.039,1.5625,0.0,0.0
3404,34.049,0.78125,0.0,0.0
3405,34.059,1.5625,0.78125,0.0
3406,34.069,1.5625,0.0,0.0
3407,34.079,1.5625,0.0,0.0
3408,34.089,1.5625,-0.78125,0.0
3409,34.099,1.5625,0.78125,0.0
3410,34.109,1.5625,0.0,0.0
3411,34.119,1.5625,0.0,0.0
3412,34.129,1.5625,-0.78125,0.0
3413,34.139,1.5625,0.0,0.0
3414,34.149,1.5625,-0.78125,0.0
3415,34.159,1.5625,-0.78125,0.0
3416,34.169,0.78125,-0.78125,0.0
3417,34.179,0.78125,-0.78125,0.0
3418,34.189,0.78125,0.0,0.0
3419,34.199,1.5625,0.0,0.0
3420,34.209,1.5625,-0.78125,0.0
3421,34.219,1.5625,-0.78125,0.0
3422,34.229,1.5625,0.0,0.0
3423,34.239,0.78125,-0.78125,0.0
3424,34.249,0.78125,0.0,0.0
3425,34.259,0.78125,0.0,0.0
3426,34.269,0.78125,-0.78125,0.0
3427,34.279,0.78125,0.0,0.0
3428,34.289,1.5625,-0.78125,0.0
3429,34.299,1.5625,-0.78125,0.0
3430,34.309,0.78125,0.0,0.0
3431,34.319,1.5625,-0.78125,0.0
3432,34.329,0.78125,0.0,0.0
3433,34.339,0.78125,-0.78125,0.0
3434,34.349,1.5625,0.0,0.0
3435,34.359,0.78125,0.0,0.0
3436,34.369,1.5625,0.0,0.0
3437,34.379,1.5625,0.0,0.0
3438,34.389,1.5625,0.0,0.0
3439,34.399,1.5625,0.0,0.0
3440,34.409,0.78125,0.0,0.0
3441,34.419,0.78125,0.0,0.0
3442,34.429,0.78125,0.0,0.0
3443,34.439,1.5625,0.0,0.0
3444,34.449,1.5625,-0.78125,0.0
3445,34.459,1.5625,0.0,0.0
3446,34.469,1.5625,-0.78125,0.0
3447,34.479,1.5625,0.0,0.0
3448,34.489,0.78125,-0.78125,0.0
3449,34.499,1.5625,0.0,0.0
3450,34.509,1.5625,0.78125,0.0
3451,34.519,1.5625,0.0,0.0
3452,34.529,1.5625,0.0,0.0
3453,34.539,1.5625,0.0,0.0
3454,34.549,1.5625,0.0,0.0
3455,34.559,0.78125,0.0,0.0
3456,34.569,1.5625,0.0,0.0
3457,34.579,0.78125,-0.78125,0.0
3458,34.589,1.5625,0.0,0.0
3459,34.599,1.5625,0.0,0.0
3460,34.609,1.5625,-0.78125,0.0
3461,34.619,1.5625,-0.78125,0.0
3462,34.629,1.5625,-0.78125,0.0
3463,34.639,0.78125,0.0,0.0
3464,34.649,1.5625,0.0,0.0
3465,34.659,1.5625,0.0,0.0
3466,34.669,1.5625,0.0,0.0
3467,34.679,1.5625,0.0,0.0
3468,34.689,1.5625,0.0,0.0
3469,34.699,0.78125,0.0,0.0
3470,34.709,1.5625,0.0,0.0
3471,34.719,1.5625,0.0,0.0
3472,34.729,1.5625,0.0,0.0
3473,34.739,1.5625,0.0,0.0
3474,34.749,1.5625,0.0,0.0
3475,34.759,1.5625,0.0,0.0
3476,34.769,0.78125,-0.78125,0.0
3477,34.779,0.78125,0.0,0.0
3478,34.789,0.78125,0.0,0.0
3479,34.799,1.5625,0.0,0.0
3480,34.809,1.5625,0.0,0.0
3481,34.819,1.5625,-0.78125,0.0
3482,34.829,1.5625,-0.78125,0.0
3483,34.839,0.78125,0.0,0.0
3484,34.849,0.78125,0.0,0.0
3485,34.859,0.78125,0.0,0.0
3486,34.869,1.5625,0.0,0.0
3487,34.879,1.5625,0.0,0.0
3488,34.889,0.78125,-0.78125,0.0
3489,34.899,1.5625,-0.78125,0.0
3490,34.909,1.5625,-0.78125,0.0
3491,34.919,1.5625,-0.78125,0.0
3492,34.929,1.5625,0.0,0.0
3493,34.939,0.78125,0.0,0.0
3494,34.949,1.5625,0.0,0.0
3495,34.959,1.5625,0.0,0.0
3496,34.969,1.5625,-0.78125,0.0
3497,34.979,1.5625,-0.78125,0.0
3498,34.989,1.5625,0.0,0.0
3499,34.999,1.5625,0.0,0.0
3500,35.009,1.5625,0.0,0.0
3501,35.019,1.5625,-0.78125,0.0
3502,35.029,0.78125,-0.78125,0.0
3503,35.039,1.5625,-0.78125,0.0
3504,35.049,1.5625,0.0,0.0
3505,35.059,1.5625,-1.5625,0.0
3506,35.069,1.5625,-0.78125,0.0
3507,35.079,1.5625,-0.78125,0.0
3508,35.089,0.78125,0.0,0.0
3509,35.099,1.5625,0.0,0.0
3510,35.109,1.5625,0.0,0.0
3511,35.119,1.5625,-0.78125,0.0
3512,35.129,1.5625,0.0,0.0
3513,35.139,1.5625,0.78125,0.0
3514,35.149,1.5625,0.0,0.0
3515,35.159,1.5625,0.0,0.0
3516,35.169,1.5625,-0.78125,0.0
3517,35.179,1.5625,0.0,0.0
3518,35.189,1.5625,-0.78125,0.0
3519,35.199,1.5625,0.0,0.0
3520,35.209,1.5625,-0.78125,0.0
3521,35.219,1.5625,0.0,0.0
3522,35.229,1.5625,0.78125,0.0
3523,35.239,1.5625,0.78125,0.0
3524,35.249,1.5625,0.78125,0.0
3525,35.259,1.5625,0.0,0.0
3526,35.269,1.5625,0.78125,0.0
3527,35.279,1.5625,0.78125,0.0
3528,35.289,1.5625,0.0,0.0
3529,35.299,1.5625,0.0,0.0
3530,35.309,1.5625,0.0,0.0
3531,35.319,1.5625,0.0,0.0
3532,35.329,1.5625,-0.78125,0.0
3533,35.339,1.5625,0.0,0.0
3534,35.349,1.5625,-0.78125,0.0
3535,35.359,0.78125,0.0,0.0
3536,35.369,1.5625,0.0,0.0
3537,35.379,1.5625,0.78125,0.0
3538,35.389,1.5625,0.0,0.0
3539,35.399,1.5625,0.0,0.0
3540,35.409,1.5625,0.0,0.0
3541,35.419,1.5625,0.0,0.0
3542,35.429,1.5625,0.0,0.0
3543,35.439,1.5625,0.0,0.0
3544,35.449,1.5625,0.0,0.0
3545,35.459,1.5625,-0.78125,0.0
3546,35.469,1.5625,0.0,0.0
3547,35.479,1.5625,-0.78125,0.0
3548,35.489,1.5625,-0.78125,0.0
3549,35.499,0.78125,0.0,0.0
3550,35.509,0.78125,0.0,0.0
3551,35.519,1.5625,0.78125,0.0
3552,35.529,1.5625,0.0,0.0
3553,35.539,1.5625,0.0,0.0
3554,35.549,1.5625,0.0,0.0
3555,35.559,0.78125,0.0,0.0
3556,35.569,0.78125,-0.78125,0.0
3557,35.579,1.5625,0.0,0.0
3558,35.589,1.5625,-0.78125,0.0
3559,35.599,1.5625,0.0,0.0
3560,35.609,1.5625,-0.78125,0.0
3561,35.619,1.5625,0.0,0.0
3562,35.629,1.5625,-1.5625,0.0
3563,35.639,0.78125,0.0,0.0
3564,35.649,0.78125,-0.78125,0.0
3565,35.659,0.78125,0.0,0.0
3566,35.669,0.78125,-0.78125,0.0
3567,35.679,0.78125,0.0,0.0
3568,35.689,1.5625,-0.78125,0.0
3569,35.699,1.5625,0.0,0.0
3570,35.709,1.5625,0.0,0.0
3571,35.719,1.5625,0.0,0.0
3572,35.729,0.78125,0.0,0.0
3573,35.739,0.78125,-0.78125,0.0
3574,35.749,1.5625,0.0,0.0
3575,35.759,1.5625,0.0,0.0
3576,35.769,1.5625,-0.78125,0.0
3577,35.779,1.5625,-0.78125,0.0
3578,35.789,1.5625,0.0,0.0
3579,35.799,1.5625,0.0,0.0
3580,35.809,1.5625,0.0,0.0
3581,35.819,1.5625,0.0,0.0
3582,35.829,1.5625,0.0,0.0
3583,35.839,1.5625,-0.78125,0.0
3584,35.849,1.5625,-0.78125,0.0
3585,35.859,1.5625,0.0,0.0
3586,35.869,0.78125,0.0,0.0
3587,35.879,1.5625,0.0,0.0
3588,35.889,1.5625,-0.78125,0.0
3589,35.899,1.5625,0.0,0.0
3590,35.909,1.5625,-0.78125,0.0
3591,35.919,1.5625,-0.78125,0.0
3592,35.929,1.5625,-0.78125,0.0
3593,35.939,1.5625,0.0,0.0
3594,35.949,1.5625,0.0,0.0
3595,35.959,1.5625,0.78125,0.0
3596,35.969,1.5625,0.0,0.0
3597,35.979,1.5625,0.0,0.0
3598,35.989,1.5625,-0.78125,0.0
3599,35.999,1.5625,0.78125,0.0
3600,36.009,1.5625,0.0,0.0
3601,36.019,1.5625,0.0,0.0
3602,36.029,1.5625,0.0,0.0
3603,36.039,1.5625,0.0,0.0
3604,36.049,1.5625,0.0,0.0
3605,36.059,1.5625,0.0,0.0
3606,36.069,1.5625,0.0,0.0
3607,36.079,1.5625,-0.78125,0.0
3608,36.089,1.5625,0.78125,0.0
3609,36.099,1.5625,0.0,0.0
3610,36.109,1.5625,0.0,0.0
3611,36.119,1.5625,0.0,0.0
3612,36.129,1.5625,0.0,0.0
3613,36.139,1.5625,0.0,0.0
3614,36.149,1.5625,0.78125,0.0
3615,36.159,1.5625,0.0,0.0
3616,36.169,0.78125,0.78125,0.0
3617,36.179,1.5625,-0.78125,0.0
3618,36.189,1.5625,0.0,0.0
3619,36.199,1.5625,-0.78125,0.0
3620,36.209,1.5625,0.0,0.0
3621,36.219,1.5625,-0.78125,0.0
3622,36.229,1.5625,-0.78125,0.0
3623,36.239,1.5625,0.0,0.0
3624,36.249,1.5625,0.0,0.0
3625,36.259,1.5625,0.0,0.0
3626,36.269,1.5625,-0.78125,0.0
3627,36.279,1.5625,0.0,0.0
3628,36.289,1.5625,0.0,0.0
3629,36.299,0.78125,0.0,0.0
3630,36.309,1.5625,0.0,0.0
3631,36.319,1.5625,-0.78125,0.0
3632,36.329,1.5625,-0.78125,0.0
3633,36.339,1.5625,-0.78125,0.0
3634,36.349,1.5625,-0.78125,0.0
3635,36.359,1.5625,-0.78125,0.0
3636,36.369,1.5625,0.0,0.0
3637,36.379,1.5625,0.0,0.0
3638,36.389,1.5625,0.0,0.0
3639,36.399,1.5625,0.0,0.0
3640,36.409,1.5625,-0.78125,0.0
3641,36.419,1.5625,0.0,0.0
3642,36.429,1.5625,0.0,0.0
3643,36.439,1.5625,-0.78125,0.0
3644,36.449,1.5625,0.0,0.0
3645,36.459,1.5625,-0.78125,0.0
3646,36.469,1.5625,-0.78125,0.0
3647,36.479,1.5625,-0.78125,0.0
3648,36.489,1.5625,-0.78125,0.0
3649,36.499,1.5625,-0.78125,0.0
3650,36.509,1.5625,0.0,0.0
3651,36.519,0.78125,0.0,0.0
3652,36.529,0.78125,0.0,0.0
3653,36.539,1.5625,0.0,0.0
3654,36.549,1.5625,0.0,0.0
3655,36.559,1.5625,-0.78125,0.0
3656,36.569,1.5625,0.78125,0.0
3657,36.579,0.78125,0.0,0.0
3658,36.589,1.5625,0.0,0.0
3659,36.599,0.78125,0.0,0.0
3660,36.609,1.5625,-0.78125,0.0
3661,36.619,1.5625,-0.78125,0.0
3662,36.629,1.5625,0.0,0.0
3663,36.639,0.78125,0.0,0.0
3664,36.649,1.5625,0.0,0.0
3665,36.659,0.78125,0.0,0.0
3666,36.669,0.78125,0.0,0.0
3667,36.679,0.78125,0.0,0.0
3668,36.689,1.5625,0.0,0.0
3669,36.699,1.5625,0.0,0.0
3670,36.709,1.5625,-0.78125,0.0
3671,36.719,1.5625,0.0,0.0
3672,36.729,1.5625,0.0,0.0
3673,36.739,1.5625,0.78125,0.0
3674,36.749,0.78125,0.0,0.0
3675,36.759,1.5625,0.0,0.0
3676,36.769,1.5625,0.0,0.0
3677,36.779,1.5625,0.0,0.0
3678,36.789,1.5625,0.0,0.0
3679,36.799,1.5625,-0.78125,0.0
3680,36.809,1.5625,-0.78125,0.0
3681,36.819,1.5625,0.0,0.0
3682,36.829,1.5625,0.0,0.0
3683,36.839,1.5625,0.0,0.0
3684,36.849,1.5625,0.0,0.0
3685,36.859,1.5625,0.0,0.0
3686,36.869,1.5625,0.0,0.0
3687,36.879,1.5625,0.78125,0.0
3688,36.889,1.5625,0.0,0.0
3689,36.899,0.78125,0.0,0.0
3690,36.909,1.5625,0.0,0.0
3691,36.919,1.5625,-0.78125,0.0
3692,36.929,1.5625,0.0,0.0
3693,36.939,1.5625,-0.78125,0.0
3694,36.949,1.5625,0.0,0.0
3695,36.959,1.5625,-0.78125,0.0
3696,36.969,1.5625,0.0,0.0
3697,36.979,1.5625,-0.78125,0.0
3698,36.989,1.5625,0.0,0.0
3699,36.999,1.5625,-0.78125,0.0
3700,37.009,1.5625,0.0,0.0
3701,37.019,1.5625,0.78125,0.0
3702,37.029,0.78125,0.0,0.0
3703,37.039,1.5625,0.0,0.0
3704,37.049,1.5625,-0.78125,0.0
3705,37.059,1.5625,0.0,0.0
3706,37.069,1.5625,0.0,0.0
3707,37.079,1.5625,0.0,0.0
3708,37.089,1.5625,0.0,0.0
3709,37.099,1.5625,-0.78125,0.0
3710,37.109,1.5625,0.0,0.0
3711,37.119,1.5625,-0.78125,0.0
3712,37.129,1.5625,0.0,0.0
3713,37.139,1.5625,-0.78125,0.0
3714,37.149,1.5625,0.0,0.0
3715,37.159,1.5625,0.78125,0.0
3716,37.169,1.5625,-0.78125,0.0
3717,37.179,1.5625,-0.78125,0.0
3718,37.189,0.78125,-0.78125,0.0
3719,37.199,1.5625,0.0,0.0
3720,37.209,1.5625,-0.78125,0.0
3721,37.219,1.5625,-0.78125,0.0
3722,37.229,1.5625,-0.78125,0.0
3723,37.239,1.5625,0.0,0.0
3724,37.249,1.5625,0.0,0.0
3725,37.259,1.5625,0.0,0.0
3726,37.269,1.5625,0.0,0.0
3727,37.279,1.5625,0.0,0.0
3728,37.289,1.5625,0.0,0.0
3729,37.299,1.5625,0.0,0.0
3730,37.309,1.5625,0.78125,0.0
3731,37.319,1.5625,0.0,0.0
3732,37.329,1.5625,0.0,0.0
3733,37.339,1.5625,-0.78125,0.0
3734,37.349,1.5625,0.0,0.0
3735,37.359,1.5625,-0.78125,0.0
3736,37.369,1.5625,0.0,0.0
3737,37.379,1.5625,-0.78125,0.0
3738,37.389,1.5625,0.0,0.0
3739,37.399,1.5625,0.0,0.0
3740,37.409,1.5625,0.78125,0.0
3741,37.419,1.5625,-0.78125,0.0
3742,37.429,1.5625,0.78125,0.0
3743,37.439,1.5625,0.78125,0.0
3744,37.449,1.5625,0.78125,0.0
3745,37.459,1.5625,0.0,0.0
3746,37.469,1.5625,0.0,0.0
3747,37.479,1.5625,-0.78125,0.0
3748,37.489,1.5625,0.0,0.0
3749,37.499,1.5625,-0.78125,0.0
3750,37.509,1.5625,0.0,0.0
3751,37.519,1.5625,0.0,0.0
3752,37.529,1.5625,0.0,0.0
3753,37.539,1.5625,0.0,0.0
3754,37.549,1.5625,0.0,0.0
3755,37.559,1.5625,0.0,0.0
3756,37.569,1.5625,0.0,0.0
3757,37.579,1.5625,0.78125,0.0
3758,37.589,1.5625,0.0,0.0
3759,37.599,1.5625,-0.78125,0.0
3760,37.609,1.5625,-0.78125,0.0
3761,37.619,1.5625,-0.78125,0.0
3762,37.629,1.5625,-0.78125,0.0
3763,37.639,1.5625,-0.78125,0.0
3764,37.649,1.5625,0.0,0.0
3765,37.659,1.5625,0.0,0.0
3766,37.669,1.5625,-0.78125,0.0
3767,37.679,1.5625,0.0,0.0
3768,37.689,1.5625,0.0,0.0
3769,37.699,1.5625,0.0,0.0
3770,37.709,1.5625,-0.78125,0.0
3771,37.719,1.5625,0.0,0.0
3772,37.729,1.5625,0.0,0.0
3773,37.739,1.5625,0.0,0.0
3774,37.749,1.5625,-0.78125,0.0
3775,37.759,1.5625,0.0,0.0
3776,37.769,1.5625,-0.78125,0.0
3777,37.779,1.5625,-0.78125,0.0
3778,37.789,1.5625,0.0,0.0
3779,37.799,1.5625,0.0,0.0
3780,37.809,1.5625,-0.78125,0.0
3781,37.819,0.78125,0.0,0.0
3782,37.829,1.5625,-0.78125,0.0
3783,37.839,1.5625,0.0,0.0
3784,37.849,1.5625,-0.78125,0.0
3785,37.859,1.5625,-0.78125,0.0
3786,37.869,1.5625,0.0,0.0
3787,37.879,1.5625,0.0,0.0
3788,37.889,1.5625,0.0,0.0
3789,37.899,1.5625,0.0,0.0
3790,37.909,1.5625,0.0,0.0
3791,37.919,1.5625,0.0,0.0
3792,37.929,0.78125,-0.78125,0.0
3793,37.939,1.5625,0.0,0.0
3794,37.949,1.5625,0.0,0.0
3795,37.959,1.5625,0.0,0.0
3796,37.969,1.5625,0.0,0.0
3797,37.979,1.5625,0.0,0.0
3798,37.989,1.5625,0.0,0.0
3799,37.999,0.78125,0.0,0.0
3800,38.009,1.5625,0.0,0.0
3801,38.019,1.5625,0.0,0.0
3802,38.029,1.5625,0.78125,0.0
3803,38.039,0.78125,0.0,0.0
3804,38.049,0.78125,0.0,0.0
3805,38.059,1.5625,-0.78125,0.0
3806,38.069,1.5625,0.0,0.0
3807,38.079,1.5625,-0.78125,0.0
3808,38.089,1.5625,0.0,0.0
3809,38.099,1.5625,0.78125,0.0
3810,38.109,1.5625,0.0,0.0
3811,38.119,0.78125,-0.78125,0.0
3812,38.129,1.5625,0.0,0.0
3813,38.139,1.5625,0.0,0.0
3814,38.149,1.5625,0.0,0.0
3815,38.159,1.5625,0.0,0.0
3816,38.169,1.5625,0.78125,0.0
3817,38.179,1.5625,0.78125,0.0
3818,38.189,1.5625,0.0,0.0
3819,38.199,0.78125,0.0,0.0
3820,38.209,1.5625,0.0,0.0
3821,38.219,1.5625,-0.78125,0.0
3822,38.229,1.5625,-0.78125,0.0
3823,38.239,1.5625,0.0,0.0
3824,38.249,1.5625,-0.78125,0.0
3825,38.259,1.5625,-0.78125,0.0
3826,38.269,1.5625,-0.78125,0.0
3827,38.279,1.5625,-0.78125,0.0
3828,38.289,1.5625,0.0,0.0
3829,38.299,1.5625,-0.78125,0.0
3830,38.309,1.5625,0.0,0.0
3831,38.319,1.5625,0.78125,0.0
3832,38.329,0.78125,0.0,0.0
3833,38.339,0.78125,0.0,0.0
3834,38.349,0.78125,-0.78125,0.0
3835,38.359,1.5625,-0.78125,0.0
3836,38.369,1.5625,-0.78125,0.0
3837,38.379,1.5625,-0.78125,0.0
3838,38.389,1.5625,-0.78125,0.0
3839,38.399,1.5625,-0.78125,0.0
3840,38.409,1.5625,0.0,0.0
3841,38.419,1.5625,-0.78125,0.0
3842,38.429,0.78125,0.0,0.0
3843,38.439,1.5625,-0.78125,0.0
3844,38.449,1.5625,0.0,0.0
3845,38.459,1.5625,0.0,0.0
3846,38.469,1.5625,-0.78125,0.0
3847,38.479,1.5625,0.78125,0.0
3848,38.489,0.78125,0.0,0.0
3849,38.499,0.78125,0.0,0.0
3850,38.509,0.78125,-0.78125,0.0
3851,38.519,1.5625,0.0,0.0
3852,38.529,0.78125,-0.78125,0.0
3853,38.539,1.5625,0.0,0.0
3854,38.549,1.5625,-0.78125,0.0
3855,38.559,1.5625,0.0,0.0
3856,38.569,1.5625,-0.78125,0.0
3857,38.579,0.78125,0.0,0.0
3858,38.589,1.5625,0.0,0.0
3859,38.599,1.5625,0.0,0.0
3860,38.609,1.5625,0.0,0.0
3861,38.619,1.5625,0.0,0.0
3862,38.629,1.5625,0.78125,0.0
3863,38.639,1.5625,0.0,0.0
3864,38.649,1.5625,0.0,0.0
3865,38.659,1.5625,0.0,0.0
3866,38.669,0.78125,0.0,0.0
3867,38.679,1.5625,0.0,0.0
3868,38.689,1.5625,-0.78125,0.0
3869,38.699,1.5625,0.0,0.0
3870,38.709,1.5625,-0.78125,0.0
3871,38.719,1.5625,0.0,0.0
3872,38.729,1.5625,-0.78125,0.0
3873,38.739,1.5625,0.0,0.0
3874,38.749,1.5625,-0.78125,0.0
3875,38.759,1.5625,0.0,0.0
3876,38.769,1.5625,0.78125,0.0
3877,38.779,1.5625,0.0,0.0
3878,38.789,1.5625,-0.78125,0.0
3879,38.799,1.5625,0.0,0.0
3880,38.809,1.5625,-0.78125,0.0
3881,38.819,1.5625,0.0,0.0
3882,38.829,1.5625,-0.78125,0.0
3883,38.839,1.5625,0.0,0.0
3884,38.849,1.5625,-0.78125,0.0
3885,38.859,1.5625,0.0,0.0
3886,38.869,1.5625,0.0,0.0
3887,38.879,1.5625,0.0,0.0
3888,38.889,1.5625,0.0,0.0
3889,38.899,1.5625,-0.78125,0.0
3890,38.909,1.5625,0.78125,0.0
3891,38.919,1.5625,0.0,0.0
3892,38.929,1.5625,0.0,0.0
3893,38.939,1.5625,-0.78125,0.0
3894,38.949,1.5625,0.0,0.0
3895,38.959,1.5625,0.0,0.0
3896,38.969,1.5625,-0.78125,0.0
3897,38.979,1.5625,-0.78125,0.0
3898,38.989,1.5625,-0.78125,0.0
3899,38.999,1.5625,0.0,0.0
3900,39.009,1.5625,0.0,0.0
3901,39.019,1.5625,0.0,0.0
3902,39.029,1.5625,0.0,0.0
3903,39.039,1.5625,0.0,0.0
3904,39.049,1.5625,0.0,0.0
3905,39.059,1.5625,0.78125,0.0
3906,39.069,1.5625,0.78125,0.0
3907,39.079,1.5625,-0.78125,0.0
3908,39.089,1.5625,0.0,0.0
3909,39.099,1.5625,-0.78125,0.0
3910,39.109,1.5625,0.0,0.0
3911,39.119,1.5625,-0.78125,0.0
3912,39.129,1.5625,0.0,0.0
3913,39.139,1.5625,-0.78125,0.0
3914,39.149,1.5625,0.78125,0.0
3915,39.159,1.5625,0.0,0.0
3916,39.169,1.5625,0.0,0.0
3917,39.179,1.5625,-0.78125,0.0
3918,39.189,1.5625,0.0,0.0
3919,39.199,1.5625,0.0,0.0
3920,39.209,0.78125,0.0,0.0
3921,39.219,1.5625,0.0,0.0
3922,39.229,1.5625,-0.78125,0.0
3923,39.239,1.5625,0.0,0.0
3924,39.249,1.5625,-0.78125,0.0
3925,39.259,1.5625,0.0,0.0
3926,39.269,1.5625,-0.78125,0.0
3927,39.279,1.5625,0.0,0.0
3928,39.289,1.5625,0.0,0.0
3929,39.299,1.5625,0.0,0.0
3930,39.309,1.5625,-0.78125,0.0
3931,39.319,1.5625,0.0,0.0
3932,39.329,1.5625,0.0,0.0
3933,39.339,1.5625,0.0,0.0
3934,39.349,1.5625,0.0,0.0
3935,39.359,1.5625,-0.78125,0.0
3936,39.369,1.5625,-0.78125,0.0
3937,39.379,1.5625,0.0,0.0
3938,39.389,0.78125,-0.78125,0.0
3939,39.399,1.5625,-0.78125,0.0
3940,39.409,1.5625,-0.78125,0.0
3941,39.419,1.5625,0.0,0.0
3942,39.429,1.5625,0.0,0.0
3943,39.439,1.5625,0.78125,0.0
3944,39.449,1.5625,0.0,0.0
3945,39.459,1.5625,0.0,0.0
3946,39.469,1.5625,0.78125,0.0
3947,39.479,0.78125,0.0,0.0
3948,39.489,0.78125,0.0,0.0
3949,39.499,1.5625,0.0,0.0
3950,39.509,1.5625,0.0,0.0
3951,39.519,1.5625,0.0,0.0
3952,39.529,1.5625,-0.78125,0.0
3953,39.539,0.78125,-0.78125,0.0
3954,39.549,0.78125,0.0,0.0
3955,39.559,1.5625,0.0,0.0
3956,39.569,1.5625,0.78125,0.0
3957,39.579,0.78125,0.0,0.0
3958,39.589,1.5625,0.0,0.0
3959,39.599,1.5625,-0.78125,0.0
3960,39.609,1.5625,0.0,0.0
3961,39.619,0.78125,0.0,0.0
3962,39.629,1.5625,0.0,0.0
3963,39.639,1.5625,-0.78125,0.0
3964,39.649,1.5625,0.0,0.0
3965,39.659,1.5625,-0.78125,0.0
3966,39.669,1.5625,-0.78125,0.0
3967,39.679,1.5625,0.0,0.0
3968,39.689,1.5625,-0.78125,0.0
3969,39.699,0.78125,0.0,0.0
3970,39.709,0.78125,-0.78125,0.0
3971,39.719,1.5625,0.0,0.0
3972,39.729,1.5625,-0.78125,0.0
3973,39.739,1.5625,0.0,0.0
3974,39.749,1.5625,-0.78125,0.0
3975,39.759,1.5625,0.0,0.0
3976,39.769,1.5625,-0.78125,0.0
3977,39.779,1.5625,0.0,0.0
3978,39.789,1.5625,-0.78125,0.0
3979,39.799,1.5625,0.0,0.0
3980,39.809,1.5625,-0.78125,0.0
3981,39.819,1.5625,-0.78125,0.0
3982,39.829,1.5625,-1.5625,0.0
3983,39.839,1.5625,0.0,0.0
3984,39.849,1.5625,-0.78125,0.0
3985,39.859,1.5625,0.0,0.0
3986,39.869,1.5625,0.0,0.0
3987,39.879,1.5625,0.78125,0.0
3988,39.889,1.5625,-0.78125,0.0
3989,39.899,1.5625,0.0,0.0
3990,39.909,1.5625,0.0,0.0
3991,39.919,1.5625,0.0,0.0
3992,39.929,1.5625,0.0,0.0
3993,39.939,1.5625,0.0,0.0
3994,39.949,1.5625,0.0,0.0
3995,39.959,1.5625,0.0,0.0
3996,39.969,1.5625,-0.78125,0.0
3997,39.979,1.5625,0.0,0.0
3998,39.989,1.5625,0.0,0.0
3999,39.999,0.78125,0.78125,0.0
4000,40.009,1.5625,0.0,0.0
4001,40.019,1.5625,0.0,0.0
4002,40.029,1.5625,0.0,0.0
4003,40.039,1.5625,0.0,0.0
4004,40.049,1.5625,0.0,0.0
4005,40.059,1.5625,0.78125,0.0
4006,40.069,1.5625,0.0,0.0
4007,40.079,1.5625,0.0,0.0
4008,40.089,1.5625,0.0,0.0
4009,40.099,1.5625,0.0,0.0
4010,40.109,1.5625,-0.78125,0.0
4011,40.119,1.5625,-0.78125,0.0
4012,40.129,0.78125,0.0,0.0
4013,40.139,1.5625,0.0,0.0
4014,40.149,1.5625,0.0,0.0
4015,40.159,1.5625,0.0,0.0
4016,40.169,1.5625,0.0,0.0
4017,40.179,1.5625,-0.78125,0.0
4018,40.189,1.5625,0.78125,0.0
4019,40.199,1.5625,0.0,0.0
4020,40.209,0.78125,0.0,0.0
4021,40.219,1.5625,0.0,0.0
4022,40.229,1.5625,0.0,0.0
4023,40.239,1.5625,-0.78125,0.0
4024,40.249,1.5625,0.0,0.0
4025,40.259,1.5625,-0.78125,0.0
4026,40.269,1.5625,0.0,0.0
4027,40.279,1.5625,0.0,0.0
4028,40.289,1.5625,-0.78125,0.0
4029,40.299,1.5625,0.0,0.0
4030,40.309,1.5625,0.0,0.0
4031,40.319,1.5625,0.0,0.0
4032,40.329,1.5625,-0.78125,0.0
4033,40.339,1.5625,0.0,0.0
4034,40.349,1.5625,0.0,0.0
4035,40.359,1.5625,0.0,0.0
4036,40.369,0.78125,-0.78125,0.0
4037,40.379,0.78125,-0.78125,0.0
4038,40.389,0.78125,-0.78125,0.0
4039,40.399,1.5625,-0.78125,0.0
4040,40.409,1.5625,-0.78125,0.0
4041,40.419,1.5625,-0.78125,0.0
4042,40.429,1.5625,0.0,0.0
4043,40.439,0.78125,0.0,0.0
4044,40.449,0.78125,0.0,0.0
4045,40.459,0.78125,0.0,0.0
4046,40.469,1.5625,0.0,0.0
4047,40.479,1.5625,-0.78125,0.0
4048,40.489,1.5625,0.0,0.0
4049,40.499,1.5625,0.0,0.0
4050,40.509,1.5625,0.0,0.0
4051,40.519,0.78125,0.0,0.0
4052,40.529,0.78125,0.0,0.0
4053,40.539,0.78125,-0.78125,0.0
4054,40.549,1.5625,-0.78125,0.0
4055,40.559,1.5625,-0.78125,0.0
4056,40.569,0.78125,0.0,0.0
4057,40.579,0.78125,-0.78125,0.0
4058,40.589,1.5625,0.0,0.0
4059,40.599,1.5625,0.0,0.0
4060,40.609,1.5625,0.0,0.0
4061,40.619,1.5625,0.0,0.0
4062,40.629,1.5625,0.0,0.0
4063,40.639,1.5625,0.0,0.0
4064,40.649,0.78125,0.0,0.0
4065,40.659,0.78125,0.0,0.0
4066,40.669,0.78125,0.0,0.0
4067,40.679,1.5625,0.0,0.0
4068,40.689,1.5625,0.0,0.0
4069,40.699,1.5625,0.0,0.0
4070,40.709,1.5625,-0.78125,0.0
4071,40.719,0.78125,0.0,0.0
4072,40.729,1.5625,-0.78125,0.0
4073,40.739,0.78125,0.78125,0.0
4074,40.749,0.78125,0.0,0.0
4075,40.759,0.78125,0.0,0.0
4076,40.769,1.5625,0.0,0.0
4077,40.779,1.5625,0.0,0.0
4078,40.789,1.5625,0.0,0.0
4079,40.799,1.5625,0.78125,0.0
4080,40.809,0.78125,0.0,0.0
4081,40.819,1.5625,0.0,0.0
4082,40.829,1.5625,0.0,0.0
4083,40.839,1.5625,0.0,0.0
4084,40.849,1.5625,-0.78125,0.0
4085,40.859,1.5625,0.0,0.0
4086,40.869,1.5625,-0.78125,0.0
4087,40.879,1.5625,0.0,0.0
4088,40.889,0.78125,0.0,0.0
4089,40.899,1.5625,0.0,0.0
4090,40.909,1.5625,0.0,0.0
4091,40.919,1.5625,0.0,0.0
4092,40.929,1.5625,0.0,0.0
4093,40.939,0.78125,-0.78125,0.0
4094,40.949,1.5625,0.0,0.0
4095,40.959,0.78125,0.0,0.0
4096,40.969,0.78125,0.0,0.0
4097,40.979,0.78125,0.0,0.0
4098,40.989,0.78125,0.0,0.0
4099,40.999,1.5625,-0.78125,0.0
4100,41.009,1.5625,-0.78125,0.0
4101,41.019,1.5625,0.0,0.0
4102,41.029,1.5625,-0.78125,0.0
4103,41.039,1.5625,0.0,0.0
4104,41.049,0.78125,0.0,0.0
4105,41.059,1.5625,0.0,0.0
4106,41.069,1.5625,-0.78125,0.0
4107,41.079,1.5625,-0.78125,0.0
4108,41.089,1.5625,-0.78125,0.0
4109,41.099,1.5625,0.78125,0.0
4110,41.109,1.5625,0.78125,0.0
4111,41.119,1.5625,0.0,0.0
4112,41.129,1.5625,-0.78125,0.0
4113,41.139,1.5625,-0.78125,0.0
4114,41.149,1.5625,-0.78125,0.0
4115,41.159,1.5625,-0.78125,0.0
4116,41.169,1.5625,0.0,0.0
4117,41.179,1.5625,0.0,0.0
4118,41.189,1.5625,-0.78125,0.0
4119,41.199,1.5625,0.0,0.0
4120,41.209,1.5625,-0.78125,0.0
4121,41.219,1.5625,0.0,0.0
4122,41.229,1.5625,-0.78125,0.0
4123,41.239,1.5625,0.78125,0.0
4124,41.249,1.5625,0.78125,0.0
4125,41.259,1.5625,0.0,0.0
4126,41.269,1.5625,-0.78125,0.0
4127,41.279,1.5625,-0.78125,0.0
4128,41.289,1.5625,0.0,0.0
4129,41.299,1.5625,-0.78125,0.0
4130,41.309,1.5625,0.0,0.0
4131,41.319,1.5625,0.0,0.0
4132,41.329,1.5625,0.0,0.0
4133,41.339,1.5625,-0.78125,0.0
4134,41.349,1.5625,0.0,0.0
4135,41.359,1.5625,0.0,0.0
4136,41.369,0.78125,0.78125,0.0
4137,41.379,1.5625,0.78125,0.0
4138,41.389,1.5625,0.0,0.0
4139,41.399,1.5625,0.0,0.0
4140,41.409,0.78125,0.0,0.0
4141,41.419,1.5625,-0.78125,0.0
4142,41.429,1.5625,-0.78125,0.0
4143,41.439,1.5625,0.0,0.0
4144,41.449,1.5625,0.78125,0.0
4145,41.459,1.5625,0.0,0.0
4146,41.469,1.5625,-0.78125,0.0
4147,41.479,1.5625,-0.78125,0.0
4148,41.489,1.5625,-0.78125,0.0
4149,41.499,1.5625,-0.78125,0.0
4150,41.509,1.5625,0.0,0.0
4151,41.519,1.5625,-0.78125,0.0
4152,41.529,1.5625,0.78125,0.0
4153,41.539,1.5625,0.0,0.0
4154,41.549,1.5625,0.0,0.0
4155,41.559,1.5625,-0.78125,0.0
4156,41.569,1.5625,-0.78125,0.0
4157,41.579,1.5625,-0.78125,0.0
4158,41.589,1.5625,0.0,0.0
4159,41.599,1.5625,0.0,0.0
4160,41.609,1.5625,0.78125,0.0
4161,41.619,1.5625,-1.5625,0.0
4162,41.629,0.78125,0.0,0.0
4163,41.639,1.5625,-0.78125,0.0
4164,41.649,1.5625,0.0,0.0
4165,41.659,1.5625,-0.78125,0.0
4166,41.669,1.5625,0.0,0.0
4167,41.679,1.5625,0.0,0.0
4168,41.689,0.78125,0.0,0.0
4169,41.699,1.5625,-0.78125,0.0
4170,41.709,1.5625,-0.78125,0.0
4171,41.719,1.5625,-0.78125,0.0
4172,41.729,1.5625,-0.78125,0.0
4173,41.739,1.5625,0.0,0.0
4174,41.749,1.5625,0.0,0.0
4175,41.759,1.5625,-0.78125,0.0
4176,41.769,1.5625,-0.78125,0.0
4177,41.779,1.5625,-0.78125,0.0
4178,41.789,1.5625,0.0,0.0
4179,41.799,1.5625,-0.78125,0.0
4180,41.809,1.5625,0.0,0.0
4181,41.819,1.5625,0.78125,0.0
4182,41.829,1.5625,-0.78125,0.0
4183,41.839,1.5625,0.0,0.0
4184,41.849,1.5625,-0.78125,0.0
4185,41.859,1.5625,0.0,0.0
4186,41.869,0.78125,-0.78125,0.0
4187,41.879,1.5625,0.0,0.0
4188,41.889,1.5625,0.0,0.0
4189,41.899,1.5625,-0.78125,0.0
4190,41.909,1.5625,-0.78125,0.0
4191,41.919,1.5625,0.0,0.0
4192,41.929,0.78125,0.0,0.0
4193,41.939,1.5625,0.0,0.0
4194,41.949,1.5625,0.0,0.0
4195,41.959,1.5625,0.78125,0.0
4196,41.969,1.5625,0.0,0.0
4197,41.979,1.5625,0.0,0.0
4198,41.989,0.78125,-0.78125,0.0
4199,41.999,0.78125,-0.78125,0.0
4200,42.009,1.5625,0.0,0.0
4201,42.019,1.5625,0.0,0.0
4202,42.029,1.5625,-0.78125,0.0
4203,42.039,1.5625,0.0,0.0
4204,42.049,1.5625,-0.78125,0.0
4205,42.059,1.5625,0.0,0.0
4206,42.069,1.5625,0.0,0.0
4207,42.079,1.5625,0.0,0.0
4208,42.089,1.5625,0.0,0.0
4209,42.099,1.5625,0.78125,0.0
4210,42.109,1.5625,0.78125,0.0
4211,42.119,1.5625,0.78125,0.0
4212,42.129,1.5625,0.0,0.0
4213,42.139,1.5625,0.0,0.0
4214,42.149,1.5625,0.0,0.0
4215,42.159,1.5625,0.0,0.0
4216,42.169,1.5625,0.0,0.0
4217,42.179,1.5625,0.0,0.0
4218,42.189,1.5625,-0.78125,0.0
4219,42.199,1.5625,-0.78125,0.0
4220,42.209,1.5625,0.0,0.0
4221,42.219,1.5625,0.0,0.0
4222,42.229,1.5625,0.78125,0.0
4223,42.239,2.34375,0.0,0.0
4224,42.249,1.5625,0.78125,0.0
4225,42.259,1.5625,0.0,0.0
4226,42.269,1.5625,0.0,0.0
4227,42.279,1.5625,0.0,0.0
4228,42.289,1.5625,-0.78125,0.0
4229,42.299,1.5625,0.0,0.0
4230,42.309,1.5625,-0.78125,0.0
4231,42.319,1.5625,-0.78125,0.0
4232,42.329,1.5625,-0.78125,0.0
4233,42.339,1.5625,0.0,0.0
4234,42.349,1.5625,0.0,0.0
4235,42.359,1.5625,-0.78125,0.0
4236,42.369,1.5625,0.0,0.0
4237,42.379,1.5625,0.0,0.0
4238,42.389,1.5625,0.0,0.0
4239,42.399,1.5625,0.0,0.0
4240,42.409,1.5625,0.0,0.0
4241,42.419,0.78125,-0.78125,0.0
4242,42.429,1.5625,0.0,0.0
4243,42.439,1.5625,-0.78125,0.0
4244,42.449,1.5625,-0.78125,0.0
4245,42.459,1.5625,-0.78125,0.0
4246,42.469,1.5625,0.78125,0.0
4247,42.479,0.78125,-0.78125,0.0
4248,42.489,1.5625,0.78125,0.0
4249,42.499,1.5625,0.0,0.0
4250,42.509,1.5625,0.0,0.0
4251,42.519,1.5625,0.0,0.0
4252,42.529,1.5625,0.0,0.0
4253,42.539,0.78125,0.0,0.0
4254,42.549,1.5625,0.0,0.0
4255,42.559,1.5625,-0.78125,0.0
4256,42.569,1.5625,0.0,0.0
4257,42.579,1.5625,-0.78125,0.0
4258,42.589,1.5625,-1.5625,0.0
4259,42.599,0.78125,0.0,0.0
4260,42.609,1.5625,-0.78125,0.0
4261,42.619,0.78125,0.78125,0.0
4262,42.629,1.5625,0.0,0.0
4263,42.639,1.5625,0.78125,0.0
4264,42.649,1.5625,0.0,0.0
4265,42.659,0.78125,-0.78125,0.0
4266,42.669,0.78125,0.0,0.0
4267,42.679,0.78125,0.0,0.0
4268,42.689,1.5625,0.0,0.0
4269,42.699,1.5625,0.0,0.0
4270,42.709,1.5625,0.0,0.0
4271,42.719,1.5625,0.0,0.0
4272,42.729,1.5625,0.0,0.0
4273,42.739,1.5625,-0.78125,0.0
4274,42.749,1.5625,0.0,0.0
4275,42.759,0.78125,0.0,0.0
4276,42.769,0.78125,-0.78125,0.0
4277,42.779,0.78125,0.0,0.0
