,ts,id,Gx,Gy,Gz,Ax,Ay,Az
0,-0.324,IMU0,-0.5487804878048781,0.24390243902439027,-0.30487804878048785,0.9130859375,-0.046875,-0.453125
1,-0.324,IMU1,1.5853658536585367,-0.9146341463414634,-0.24390243902439027,0.904296875,-0.029296875,-0.4521484375
2,-0.324,IMU2,0.48780487804878053,0.5487804878048781,-0.6707317073170732,0.900390625,-0.0498046875,-0.451171875
3,-0.314,IMU0,-0.6097560975609757,0.24390243902439027,-0.1829268292682927,0.9140625,-0.044921875,-0.4560546875
4,-0.314,IMU1,1.6463414634146343,-0.9756097560975611,-0.12195121951219513,0.904296875,-0.0263671875,-0.453125
5,-0.314,IMU2,0.48780487804878053,0.48780487804878053,-0.6707317073170732,0.90234375,-0.048828125,-0.44921875
6,-0.304,IMU0,-0.48780487804878053,0.12195121951219513,-0.06097560975609757,0.9130859375,-0.0439453125,-0.4541015625
7,-0.304,IMU1,1.707317073170732,-1.0365853658536586,0.0,0.90234375,-0.025390625,-0.4501953125
8,-0.304,IMU2,0.5487804878048781,0.3658536585365854,-0.5487804878048781,0.8984375,-0.0458984375,-0.4501953125
9,-0.294,IMU0,-0.3658536585365854,0.1829268292682927,-0.06097560975609757,0.90625,-0.044921875,-0.453125
10,-0.294,IMU1,1.829268292682927,-0.9756097560975611,0.06097560975609757,0.8955078125,-0.0263671875,-0.4541015625
11,-0.294,IMU2,0.6097560975609757,0.3658536585365854,-0.426829268292683,0.8955078125,-0.046875,-0.453125
12,-0.284,IMU0,-0.5487804878048781,-0.06097560975609757,-0.06097560975609757,0.904296875,-0.0546875,-0.4560546875
13,-0.284,IMU1,1.6463414634146343,-1.2804878048780488,0.06097560975609757,0.896484375,-0.0361328125,-0.4541015625
14,-0.284,IMU2,0.48780487804878053,0.1829268292682927,-0.48780487804878053,0.8974609375,-0.056640625,-0.453125
15,-0.274,IMU0,-0.12195121951219513,0.1829268292682927,-0.06097560975609757,0.9130859375,-0.0419921875,-0.4599609375
16,-0.274,IMU1,2.073170731707317,-0.9756097560975611,0.06097560975609757,0.904296875,-0.0244140625,-0.45703125
17,-0.274,IMU2,0.853658536585366,0.6707317073170732,-0.5487804878048781,0.9072265625,-0.0498046875,-0.451171875
18,-0.264,IMU0,-1.0975609756097562,0.426829268292683,-0.24390243902439027,0.9248046875,-0.0244140625,-0.4658203125
19,-0.264,IMU1,1.0975609756097562,-0.6097560975609757,-0.1829268292682927,0.9150390625,-0.009765625,-0.46484375
20,-0.264,IMU2,0.06097560975609757,0.9756097560975611,-0.7317073170731708,0.9150390625,-0.0380859375,-0.4599609375
21,-0.254,IMU0,-2.378048780487805,1.829268292682927,-0.24390243902439027,0.94140625,-0.0146484375,-0.4560546875
22,-0.254,IMU1,-0.1829268292682927,0.6707317073170732,-0.24390243902439027,0.9287109375,0.0029296875,-0.453125
23,-0.254,IMU2,-1.3414634146341464,2.1951219512195124,-0.9756097560975611,0.9306640625,-0.0126953125,-0.4560546875
24,-0.244,IMU0,-0.6707317073170732,1.7682926829268295,0.7926829268292683,0.9169921875,-0.0732421875,-0.4404296875
25,-0.244,IMU1,1.524390243902439,0.5487804878048781,0.9146341463414634,0.9072265625,-0.06640625,-0.44140625
26,-0.244,IMU2,0.48780487804878053,1.9512195121951221,0.5487804878048781,0.8916015625,-0.1103515625,-0.44140625
27,-0.234,IMU0,-0.3658536585365854,1.1585365853658538,0.1829268292682927,0.908203125,-0.0712890625,-0.4404296875
28,-0.234,IMU1,1.707317073170732,-0.06097560975609757,0.1829268292682927,0.896484375,-0.046875,-0.43359375
29,-0.234,IMU2,0.6097560975609757,1.524390243902439,-0.6097560975609757,0.90625,-0.0322265625,-0.4296875
30,-0.224,IMU0,-0.12195121951219513,-0.6097560975609757,0.12195121951219513,0.92578125,-0.001953125,-0.470703125
31,-0.224,IMU1,2.1341463414634148,-1.829268292682927,0.3658536585365854,0.9140625,0.01171875,-0.4755859375
32,-0.224,IMU2,1.1585365853658538,-0.3658536585365854,0.12195121951219513,0.8994140625,-0.0244140625,-0.5029296875
33,-0.214,IMU0,1.9512195121951221,1.707317073170732,4.024390243902439,1.2783203125,-0.12109375,-0.578125
34,-0.214,IMU1,4.085365853658537,0.6097560975609757,4.329268292682928,1.28515625,-0.103515625,-0.564453125
35,-0.214,IMU2,2.5,1.6463414634146343,4.573170731707317,1.3251953125,-0.0947265625,-0.486328125
36,-0.204,IMU0,-1.0975609756097562,-6.341463414634147,8.170731707317074,1.87890625,-0.001953125,-0.8564453125
37,-0.204,IMU1,1.2195121951219514,-7.621951219512196,8.109756097560977,1.87109375,0.015625,-0.8896484375
38,-0.204,IMU2,-0.30487804878048785,-6.463414634146342,7.134146341463415,1.9365234375,-0.048828125,-0.9404296875
39,-0.194,IMU0,-0.6707317073170732,-10.30487804878049,6.219512195121951,2.4794921875,-0.0703125,-1.216796875
40,-0.194,IMU1,1.8902439024390245,-11.646341463414634,6.341463414634147,2.458984375,-0.0029296875,-1.22265625
41,-0.194,IMU2,0.06097560975609757,-10.670731707317074,6.158536585365854,2.5126953125,0.0087890625,-1.2294921875
42,-0.184,IMU0,0.5487804878048781,-7.073170731707318,9.329268292682928,2.9521484375,-0.0595703125,-1.5166015625
43,-0.184,IMU1,3.536585365853659,-7.926829268292684,9.390243902439025,2.9326171875,-0.0087890625,-1.5166015625
44,-0.184,IMU2,2.0121951219512195,-5.548780487804878,9.02439024390244,3.0029296875,0.0048828125,-1.5654296875
45,-0.174,IMU0,1.9512195121951221,-0.853658536585366,3.7195121951219514,3.5625,-0.0263671875,-1.8046875
46,-0.174,IMU1,3.780487804878049,-1.829268292682927,3.9024390243902443,3.5283203125,0.0205078125,-1.8095703125
47,-0.174,IMU2,2.9268292682926833,0.06097560975609757,3.2926829268292686,3.5498046875,-0.0244140625,-1.80078125
48,-0.164,IMU0,2.378048780487805,1.0365853658536586,1.2804878048780488,3.9833984375,-0.0771484375,-1.9326171875
49,-0.164,IMU1,4.51219512195122,-0.426829268292683,1.4634146341463417,3.947265625,-0.0185546875,-1.921875
50,-0.164,IMU2,3.414634146341464,0.7926829268292683,0.9146341463414634,4.0107421875,-0.0302734375,-1.92578125
51,-0.154,IMU0,2.25609756097561,-3.414634146341464,3.2926829268292686,4.390625,-0.0673828125,-2.1455078125
52,-0.154,IMU1,4.2682926829268295,-4.695121951219512,3.414634146341464,4.341796875,-0.0185546875,-2.1484375
53,-0.154,IMU2,3.231707317073171,-3.536585365853659,2.804878048780488,4.345703125,-0.0830078125,-2.130859375
54,-0.144,IMU0,1.4634146341463417,-6.158536585365854,5.7926829268292686,4.5439453125,-0.1279296875,-2.2373046875
55,-0.144,IMU1,3.8414634146341466,-7.743902439024391,5.914634146341464,4.5029296875,-0.0625,-2.2236328125
56,-0.144,IMU2,2.25609756097561,-6.158536585365854,5.0,4.5029296875,-0.12890625,-2.201171875
57,-0.134,IMU0,-0.6097560975609757,-5.670731707317073,4.695121951219512,4.599609375,-0.1201171875,-2.26953125
58,-0.134,IMU1,1.707317073170732,-7.073170731707318,4.878048780487806,4.5546875,-0.0478515625,-2.265625
59,-0.134,IMU2,-0.06097560975609757,-6.2804878048780495,4.207317073170732,4.57421875,-0.08203125,-2.2578125
60,-0.124,IMU0,1.3414634146341464,-3.658536585365854,8.109756097560977,4.5537109375,-0.1376953125,-2.3349609375
61,-0.124,IMU1,4.51219512195122,-5.2439024390243905,8.109756097560977,4.5048828125,-0.0712890625,-2.3154296875
62,-0.124,IMU2,2.439024390243903,-3.5975609756097566,6.890243902439025,4.5126953125,-0.1357421875,-2.2939453125
63,-0.114,IMU0,3.1707317073170733,-2.5,9.02439024390244,4.5654296875,-0.064453125,-2.3857421875
64,-0.114,IMU1,6.158536585365854,-3.414634146341464,9.207317073170733,4.5087890625,-0.001953125,-2.3876953125
65,-0.114,IMU2,4.451219512195122,-2.1341463414634148,8.658536585365855,4.5400390625,-0.04296875,-2.33984375
66,-0.104,IMU0,2.3170731707317076,1.402439024390244,7.01219512195122,4.611328125,-0.0869140625,-2.39453125
67,-0.104,IMU1,4.878048780487806,0.30487804878048785,7.073170731707318,4.556640625,-0.025390625,-2.4072265625
68,-0.104,IMU2,3.4756097560975614,1.8902439024390245,6.402439024390245,4.5791015625,-0.083984375,-2.375
69,-0.094,IMU0,1.5853658536585367,2.073170731707317,5.060975609756098,4.6513671875,-0.111328125,-2.4130859375
70,-0.094,IMU1,3.780487804878049,0.853658536585366,5.182926829268293,4.5966796875,-0.05078125,-2.41796875
71,-0.094,IMU2,2.5609756097560976,2.5,4.451219512195122,4.6181640625,-0.1103515625,-2.384765625
72,-0.084,IMU0,-0.48780487804878053,1.0975609756097562,-1.2195121951219514,4.6826171875,-0.1240234375,-2.4228515625
73,-0.084,IMU1,1.2804878048780488,-0.12195121951219513,-1.0975609756097562,4.6298828125,-0.064453125,-2.4228515625
74,-0.084,IMU2,0.48780487804878053,1.4634146341463417,-1.524390243902439,4.64453125,-0.1240234375,-2.396484375
75,-0.074,IMU0,-2.1951219512195124,-1.6463414634146343,-3.8414634146341466,4.7060546875,-0.0537109375,-2.4677734375
76,-0.074,IMU1,0.30487804878048785,-2.5,-3.536585365853659,4.6640625,0.0068359375,-2.4716796875
77,-0.074,IMU2,-0.6707317073170732,-1.1585365853658538,-3.4756097560975614,4.693359375,-0.0517578125,-2.4541015625
78,-0.064,IMU0,-0.1829268292682927,-1.0365853658536586,2.073170731707317,4.73046875,-0.052734375,-2.5078125
79,-0.064,IMU1,2.439024390243903,-2.073170731707317,2.3170731707317076,4.685546875,0.0029296875,-2.498046875
80,-0.064,IMU2,0.9756097560975611,-0.30487804878048785,1.7682926829268295,4.7158203125,-0.0537109375,-2.484375
81,-0.054,IMU0,-1.1585365853658538,-0.7317073170731708,1.4634146341463417,4.7763671875,-0.12109375,-2.515625
82,-0.054,IMU1,1.3414634146341464,-1.7682926829268295,1.524390243902439,4.7177734375,-0.06640625,-2.5078125
83,-0.054,IMU2,-0.6707317073170732,-0.48780487804878053,0.6707317073170732,4.7353515625,-0.123046875,-2.490234375
84,-0.044,IMU0,-1.8902439024390245,-1.524390243902439,0.06097560975609757,4.7763671875,-0.0732421875,-2.51953125
85,-0.044,IMU1,0.30487804878048785,-2.5609756097560976,0.1829268292682927,4.7255859375,-0.0126953125,-2.513671875
86,-0.044,IMU2,-0.9146341463414634,-0.9146341463414634,-0.3658536585365854,4.748046875,-0.072265625,-2.494140625
87,-0.034,IMU0,0.12195121951219513,-2.073170731707317,3.5975609756097566,4.765625,-0.0654296875,-2.5
88,-0.034,IMU1,1.8902439024390245,-3.231707317073171,3.7195121951219514,4.71875,0.001953125,-2.494140625
89,-0.034,IMU2,1.3414634146341464,-1.5853658536585367,3.1097560975609757,4.740234375,-0.05859375,-2.4736328125
90,-0.024,IMU0,2.6219512195121952,-3.414634146341464,7.073170731707318,4.755859375,-0.0390625,-2.478515625
91,-0.024,IMU1,5.121951219512195,-4.75609756097561,7.195121951219513,4.71484375,0.029296875,-2.4736328125
92,-0.024,IMU2,3.536585365853659,-3.231707317073171,6.7682926829268295,4.740234375,-0.0283203125,-2.4560546875
93,-0.014,IMU0,4.634146341463415,-4.51219512195122,7.134146341463415,4.705078125,-0.0634765625,-2.4580078125
94,-0.014,IMU1,7.195121951219513,-5.2439024390243905,7.439024390243903,4.654296875,0.0009765625,-2.4580078125
95,-0.014,IMU2,5.670731707317073,-3.8414634146341466,6.951219512195123,4.6708984375,-0.0556640625,-2.4365234375
96,-0.004,IMU0,3.414634146341464,-4.51219512195122,1.4634146341463417,4.658203125,-0.0771484375,-2.4501953125
97,-0.004,IMU1,5.426829268292684,-5.121951219512195,1.5853658536585367,4.603515625,-0.0107421875,-2.4501953125
98,-0.004,IMU2,4.024390243902439,-3.7195121951219514,0.9756097560975611,4.6162109375,-0.0673828125,-2.421875
99,0.006,IMU0,2.682926829268293,-2.804878048780488,-2.682926829268293,4.6064453125,-0.068359375,-2.427734375
100,0.006,IMU1,5.426829268292684,-3.8414634146341466,-2.073170731707317,4.5576171875,-0.0009765625,-2.4111328125
101,0.006,IMU2,3.414634146341464,-2.1951219512195124,-2.5609756097560976,4.578125,-0.056640625,-2.3798828125
102,0.016,IMU0,2.1341463414634148,-1.6463414634146343,-1.7682926829268295,4.5703125,-0.0244140625,-2.3916015625
103,0.016,IMU1,4.146341463414634,-2.5609756097560976,-1.6463414634146343,4.53125,0.0400390625,-2.375
104,0.016,IMU2,2.439024390243903,-0.9756097560975611,-2.1341463414634148,4.5615234375,-0.017578125,-2.353515625
105,0.026,IMU0,1.2195121951219514,-0.3658536585365854,-1.6463414634146343,4.5419921875,-0.0830078125,-2.384765625
106,0.026,IMU1,3.353658536585366,-0.7926829268292683,-1.524390243902439,4.4970703125,-0.001953125,-2.3642578125
107,0.026,IMU2,2.1951219512195124,0.06097560975609757,-1.707317073170732,4.5185546875,-0.0615234375,-2.359375
108,0.036,IMU0,-0.7317073170731708,0.5487804878048781,-3.9024390243902443,4.5263671875,-0.068359375,-2.333984375
109,0.036,IMU1,1.8902439024390245,-0.3658536585365854,-3.5975609756097566,4.5087890625,0.0078125,-2.3330078125
110,0.036,IMU2,0.24390243902439027,1.0975609756097562,-4.146341463414634,4.5244140625,-0.0595703125,-2.310546875
111,0.046,IMU0,-1.2804878048780488,-2.1951219512195124,-4.085365853658537,4.4638671875,-0.0654296875,-2.30859375
112,0.046,IMU1,1.0975609756097562,-2.987804878048781,-3.8414634146341466,4.4208984375,0.0009765625,-2.3154296875
113,0.046,IMU2,-0.5487804878048781,-1.0975609756097562,-4.695121951219512,4.4619140625,-0.0634765625,-2.314453125
114,0.056,IMU0,-1.9512195121951221,-1.9512195121951221,-2.5609756097560976,4.4150390625,-0.119140625,-2.2978515625
115,0.056,IMU1,0.12195121951219513,-3.5975609756097566,-2.439024390243903,4.3779296875,-0.076171875,-2.3046875
116,0.056,IMU2,-0.9146341463414634,-1.4634146341463417,-2.987804878048781,4.380859375,-0.13671875,-2.2841796875
117,0.066,IMU0,-3.9024390243902443,0.12195121951219513,-3.780487804878049,4.3330078125,-0.109375,-2.2890625
118,0.066,IMU1,-1.0365853658536586,-1.5853658536585367,-3.658536585365854,4.2890625,-0.0537109375,-2.287109375
119,0.066,IMU2,-2.5609756097560976,0.9146341463414634,-4.2682926829268295,4.2978515625,-0.126953125,-2.2626953125
120,0.076,IMU0,-3.963414634146342,2.6219512195121952,-3.536585365853659,4.30078125,-0.123046875,-2.2744140625
121,0.076,IMU1,-0.6707317073170732,1.5853658536585367,-3.4756097560975614,4.26171875,-0.0673828125,-2.2919921875
122,0.076,IMU2,-2.8658536585365857,3.5975609756097566,-4.146341463414634,4.259765625,-0.125,-2.25390625
123,0.086,IMU0,-2.8658536585365857,3.9024390243902443,-1.0975609756097562,4.3056640625,-0.13671875,-2.2568359375
124,0.086,IMU1,-0.6707317073170732,2.682926829268293,-0.853658536585366,4.263671875,-0.0888671875,-2.2470703125
125,0.086,IMU2,-1.402439024390244,4.51219512195122,-1.6463414634146343,4.283203125,-0.1201171875,-2.21875
126,0.096,IMU0,-4.207317073170732,-0.12195121951219513,-3.5975609756097566,4.2724609375,-0.12109375,-2.232421875
127,0.096,IMU1,-2.1951219512195124,-1.2195121951219514,-3.2926829268292686,4.2265625,-0.060546875,-2.2392578125
128,0.096,IMU2,-3.2926829268292686,0.5487804878048781,-4.024390243902439,4.2802734375,-0.107421875,-2.220703125
129,0.106,IMU0,-2.8658536585365857,-2.804878048780488,-1.3414634146341464,4.1728515625,-0.1689453125,-2.236328125
130,0.106,IMU1,-0.853658536585366,-3.353658536585366,-1.1585365853658538,4.1201171875,-0.107421875,-2.2119140625
131,0.106,IMU2,-1.707317073170732,-2.3170731707317076,-1.6463414634146343,4.171875,-0.1640625,-2.17578125
132,0.116,IMU0,-2.25609756097561,-1.524390243902439,0.30487804878048785,4.130859375,-0.1123046875,-2.2314453125
133,0.116,IMU1,0.0,-2.804878048780488,0.5487804878048781,4.0869140625,-0.052734375,-2.216796875
134,0.116,IMU2,-1.0975609756097562,-1.5853658536585367,-0.06097560975609757,4.123046875,-0.1220703125,-2.2158203125
135,0.126,IMU0,-3.536585365853659,1.3414634146341464,0.3658536585365854,4.111328125,-0.1025390625,-2.21484375
136,0.126,IMU1,-1.0975609756097562,-0.30487804878048785,0.48780487804878053,4.064453125,-0.0400390625,-2.2236328125
137,0.126,IMU2,-1.829268292682927,0.9146341463414634,-0.06097560975609757,4.0888671875,-0.119140625,-2.212890625
138,0.136,IMU0,-3.1707317073170733,2.7439024390243905,0.12195121951219513,4.08984375,-0.0810546875,-2.22265625
139,0.136,IMU1,-0.6097560975609757,0.9756097560975611,0.1829268292682927,4.05078125,-0.0224609375,-2.21484375
140,0.136,IMU2,-2.1951219512195124,1.5853658536585367,-0.30487804878048785,4.0625,-0.09375,-2.189453125
141,0.146,IMU0,-1.8902439024390245,2.25609756097561,2.378048780487805,4.0634765625,-0.0712890625,-2.185546875
142,0.146,IMU1,0.9756097560975611,0.5487804878048781,2.439024390243903,4.0322265625,-0.0166015625,-2.1875
143,0.146,IMU2,-0.6707317073170732,2.1951219512195124,1.6463414634146343,4.03125,-0.083984375,-2.1640625
144,0.156,IMU0,-0.853658536585366,0.24390243902439027,2.5609756097560976,4.0341796875,-0.0703125,-2.13671875
145,0.156,IMU1,2.073170731707317,-1.4634146341463417,2.6219512195121952,3.9931640625,-0.0224609375,-2.1494140625
146,0.156,IMU2,0.1829268292682927,0.426829268292683,2.073170731707317,3.9951171875,-0.0771484375,-2.1142578125
147,0.166,IMU0,-1.707317073170732,-0.6707317073170732,1.5853658536585367,3.955078125,-0.0537109375,-2.1396484375
148,0.166,IMU1,-0.30487804878048785,-1.402439024390244,1.707317073170732,3.912109375,-0.0087890625,-2.1396484375
149,0.166,IMU2,-0.30487804878048785,0.12195121951219513,0.9756097560975611,3.9365234375,-0.044921875,-2.1171875
150,0.176,IMU0,-0.9146341463414634,0.7317073170731708,2.8658536585365857,3.9072265625,-0.0595703125,-2.1318359375
151,0.176,IMU1,0.12195121951219513,-0.1829268292682927,3.048780487804878,3.86328125,-0.0126953125,-2.12890625
152,0.176,IMU2,0.30487804878048785,1.3414634146341464,2.439024390243903,3.8857421875,-0.0439453125,-2.1162109375
153,0.186,IMU0,-1.0975609756097562,2.3170731707317076,3.231707317073171,3.876953125,-0.0244140625,-2.1103515625
154,0.186,IMU1,1.0365853658536586,1.2804878048780488,3.414634146341464,3.83203125,0.0234375,-2.1259765625
155,0.186,IMU2,0.5487804878048781,2.6219512195121952,2.5609756097560976,3.87109375,-0.013671875,-2.0791015625
156,0.196,IMU0,-0.9756097560975611,1.707317073170732,3.1707317073170733,3.8701171875,-0.05078125,-2.0478515625
157,0.196,IMU1,2.073170731707317,0.6097560975609757,3.1707317073170733,3.8193359375,0.0,-2.03125
158,0.196,IMU2,0.6707317073170732,1.829268292682927,2.7439024390243905,3.8525390625,-0.0498046875,-2.0302734375
159,0.206,IMU0,-3.231707317073171,-1.5853658536585367,-1.2195121951219514,3.759765625,-0.01953125,-2.0244140625
160,0.206,IMU1,-0.9756097560975611,-3.231707317073171,-1.1585365853658538,3.7138671875,0.037109375,-2.0234375
161,0.206,IMU2,-2.0121951219512195,-0.9756097560975611,-1.5853658536585367,3.7294921875,-0.0263671875,-2.0263671875
162,0.216,IMU0,-1.9512195121951221,-2.0121951219512195,-0.12195121951219513,3.6455078125,-0.0068359375,-2.015625
163,0.216,IMU1,0.1829268292682927,-3.048780487804878,-0.06097560975609757,3.60546875,0.048828125,-2.0087890625
164,0.216,IMU2,-1.3414634146341464,-1.0365853658536586,-0.48780487804878053,3.6171875,-0.0166015625,-1.9912109375
165,0.226,IMU0,-2.439024390243903,0.06097560975609757,0.12195121951219513,3.5673828125,0.0068359375,-1.9814453125
166,0.226,IMU1,-0.24390243902439027,-0.9146341463414634,0.1829268292682927,3.5322265625,0.0556640625,-1.958984375
167,0.226,IMU2,-1.829268292682927,1.4634146341463417,-0.24390243902439027,3.5341796875,-0.0009765625,-1.9599609375
168,0.236,IMU0,-2.6219512195121952,2.6219512195121952,-0.5487804878048781,3.544921875,-0.01171875,-1.9560546875
169,0.236,IMU1,-0.6707317073170732,1.2195121951219514,-0.426829268292683,3.513671875,0.0322265625,-1.9609375
170,0.236,IMU2,-2.1951219512195124,3.1707317073170733,-0.9756097560975611,3.5205078125,-0.013671875,-1.9443359375
171,0.246,IMU0,-2.8658536585365857,1.0975609756097562,-0.7926829268292683,3.5185546875,-0.0634765625,-1.9560546875
172,0.246,IMU1,-0.1829268292682927,0.1829268292682927,-0.7317073170731708,3.4755859375,-0.03125,-1.9453125
173,0.246,IMU2,-1.9512195121951221,1.6463414634146343,-1.0975609756097562,3.4931640625,-0.05859375,-1.9443359375
174,0.256,IMU0,-1.6463414634146343,0.7317073170731708,-0.12195121951219513,3.470703125,0.013671875,-1.916015625
175,0.256,IMU1,1.402439024390244,-0.7926829268292683,0.06097560975609757,3.435546875,0.0556640625,-1.923828125
176,0.256,IMU2,-0.7926829268292683,0.7317073170731708,-0.5487804878048781,3.4697265625,0.0205078125,-1.9072265625
177,0.266,IMU0,-0.853658536585366,-1.829268292682927,1.5853658536585367,3.4267578125,0.0322265625,-1.9296875
178,0.266,IMU1,2.5,-2.9268292682926833,1.6463414634146343,3.38671875,0.087890625,-1.921875
179,0.266,IMU2,0.1829268292682927,-1.402439024390244,1.2195121951219514,3.41015625,0.0263671875,-1.8994140625
180,0.276,IMU0,1.9512195121951221,0.1829268292682927,6.463414634146342,3.3603515625,0.0693359375,-1.9052734375
181,0.276,IMU1,4.878048780487806,-0.24390243902439027,6.585365853658537,3.31640625,0.11328125,-1.9033203125
182,0.276,IMU2,3.1707317073170733,0.9146341463414634,6.097560975609756,3.34375,0.0693359375,-1.8994140625
183,0.286,IMU0,2.1341463414634148,4.51219512195122,6.402439024390245,3.3671875,0.025390625,-1.85546875
184,0.286,IMU1,4.146341463414634,3.8414634146341466,6.52439024390244,3.3251953125,0.0703125,-1.8369140625
185,0.286,IMU2,2.987804878048781,5.182926829268293,6.158536585365854,3.333984375,0.02734375,-1.833984375
186,0.296,IMU0,-0.5487804878048781,7.134146341463415,1.2804878048780488,3.3955078125,0.0185546875,-1.81640625
187,0.296,IMU1,1.8902439024390245,6.951219512195123,1.2804878048780488,3.3515625,0.0654296875,-1.81640625
188,0.296,IMU2,0.48780487804878053,7.8048780487804885,0.9756097560975611,3.361328125,0.01953125,-1.798828125
189,0.306,IMU0,-2.1341463414634148,10.182926829268293,-0.853658536585366,3.3125,0.0849609375,-1.8056640625
190,0.306,IMU1,-0.30487804878048785,9.573170731707318,-0.6707317073170732,3.2822265625,0.1337890625,-1.8046875
191,0.306,IMU2,-0.5487804878048781,10.487804878048781,-1.2804878048780488,3.298828125,0.083984375,-1.787109375
192,0.316,IMU0,-2.682926829268293,18.597560975609756,-0.853658536585366,3.1806640625,0.115234375,-1.7724609375
193,0.316,IMU1,-0.426829268292683,17.073170731707318,-0.7317073170731708,3.1513671875,0.162109375,-1.7763671875
194,0.316,IMU2,-0.7317073170731708,18.29268292682927,-1.3414634146341464,3.1650390625,0.1162109375,-1.7724609375
195,0.326,IMU0,-1.707317073170732,25.0609756097561,-0.426829268292683,3.15625,0.123046875,-1.716796875
196,0.326,IMU1,0.7317073170731708,23.658536585365855,-0.426829268292683,3.125,0.169921875,-1.7060546875
197,0.326,IMU2,-0.1829268292682927,25.000000000000004,-0.9146341463414634,3.1337890625,0.123046875,-1.701171875
198,0.336,IMU0,0.0,24.02439024390244,-0.6097560975609757,3.13671875,0.125,-1.681640625
199,0.336,IMU1,2.6219512195121952,22.80487804878049,-0.5487804878048781,3.1015625,0.1708984375,-1.6728515625
200,0.336,IMU2,0.7926829268292683,24.207317073170735,-0.9756097560975611,3.107421875,0.125,-1.65625
201,0.346,IMU0,0.7317073170731708,21.402439024390247,-1.4634146341463417,3.060546875,0.1494140625,-1.6552734375
202,0.346,IMU1,2.987804878048781,19.81707317073171,-1.3414634146341464,3.02734375,0.1962890625,-1.6611328125
203,0.346,IMU2,1.8902439024390245,21.585365853658537,-1.8902439024390245,3.0380859375,0.15234375,-1.6474609375
204,0.356,IMU0,0.5487804878048781,20.48780487804878,-1.5853658536585367,3.0078125,0.1708984375,-1.6552734375
205,0.356,IMU1,2.7439024390243905,19.634146341463417,-1.402439024390244,2.974609375,0.20703125,-1.6552734375
206,0.356,IMU2,2.25609756097561,20.853658536585368,-2.0121951219512195,2.9912109375,0.1669921875,-1.646484375
207,0.366,IMU0,1.524390243902439,22.621951219512198,0.9756097560975611,2.9501953125,0.16015625,-1.6220703125
208,0.366,IMU1,3.2926829268292686,21.28048780487805,1.2195121951219514,2.9111328125,0.1904296875,-1.638671875
209,0.366,IMU2,2.439024390243903,22.500000000000004,0.7317073170731708,2.92578125,0.150390625,-1.6259765625
210,0.376,IMU0,1.6463414634146343,24.634146341463417,1.1585365853658538,2.9111328125,0.109375,-1.6640625
211,0.376,IMU1,3.536585365853659,23.53658536585366,1.402439024390244,2.875,0.140625,-1.6572265625
212,0.376,IMU2,3.2926829268292686,24.207317073170735,0.7317073170731708,2.8876953125,0.1005859375,-1.6376953125
213,0.386,IMU0,0.06097560975609757,25.914634146341466,-1.6463414634146343,2.8896484375,0.078125,-1.626953125
214,0.386,IMU1,2.0121951219512195,24.512195121951223,-1.4634146341463417,2.84765625,0.1162109375,-1.634765625
215,0.386,IMU2,2.0121951219512195,25.731707317073173,-2.1341463414634148,2.85546875,0.0771484375,-1.611328125
216,0.396,IMU0,-1.524390243902439,21.82926829268293,-4.634146341463415,2.86328125,0.1376953125,-1.5849609375
217,0.396,IMU1,0.7926829268292683,19.878048780487806,-4.329268292682928,2.8291015625,0.18359375,-1.576171875
218,0.396,IMU2,-0.48780487804878053,22.012195121951223,-4.817073170731708,2.8408203125,0.146484375,-1.5615234375
219,0.406,IMU0,1.2804878048780488,16.219512195121954,-0.3658536585365854,2.8349609375,0.130859375,-1.5576171875
220,0.406,IMU1,3.2926829268292686,14.939024390243905,-0.06097560975609757,2.7978515625,0.177734375,-1.560546875
221,0.406,IMU2,2.5,16.52439024390244,-0.5487804878048781,2.8095703125,0.1435546875,-1.5517578125
222,0.416,IMU0,0.6097560975609757,10.487804878048781,-0.7317073170731708,2.796875,0.173828125,-1.58203125
223,0.416,IMU1,3.048780487804878,9.26829268292683,-0.5487804878048781,2.7685546875,0.2177734375,-1.5751953125
224,0.416,IMU2,2.0121951219512195,9.939024390243903,-1.0365853658536586,2.7822265625,0.1787109375,-1.5595703125
225,0.426,IMU0,0.24390243902439027,8.536585365853659,-1.4634146341463417,2.7021484375,0.15234375,-1.60546875
226,0.426,IMU1,1.9512195121951221,7.439024390243903,-1.3414634146341464,2.666015625,0.19140625,-1.595703125
227,0.426,IMU2,0.9756097560975611,8.353658536585366,-1.9512195121951221,2.6787109375,0.15625,-1.5849609375
228,0.436,IMU0,0.06097560975609757,10.426829268292684,-3.1707317073170733,2.724609375,0.099609375,-1.59765625
229,0.436,IMU1,1.4634146341463417,9.26829268292683,-2.9268292682926833,2.697265625,0.1376953125,-1.5908203125
230,0.436,IMU2,1.2804878048780488,10.792682926829269,-3.5975609756097566,2.712890625,0.09765625,-1.5888671875
231,0.446,IMU0,-1.707317073170732,9.51219512195122,-1.9512195121951221,2.6884765625,0.125,-1.5673828125
232,0.446,IMU1,0.3658536585365854,7.987804878048781,-1.707317073170732,2.658203125,0.1552734375,-1.5771484375
233,0.446,IMU2,-0.06097560975609757,9.207317073170733,-2.3170731707317076,2.671875,0.1083984375,-1.56640625
234,0.456,IMU0,-2.0121951219512195,6.7682926829268295,-1.402439024390244,2.6884765625,0.072265625,-1.6025390625
235,0.456,IMU1,-0.853658536585366,5.182926829268293,-1.1585365853658538,2.6513671875,0.109375,-1.5888671875
236,0.456,IMU2,-0.7926829268292683,6.219512195121951,-1.7682926829268295,2.6533203125,0.078125,-1.580078125
237,0.466,IMU0,-1.524390243902439,2.9268292682926833,0.24390243902439027,2.62109375,0.0869140625,-1.6123046875
238,0.466,IMU1,0.426829268292683,1.4634146341463417,0.426829268292683,2.5791015625,0.126953125,-1.619140625
239,0.466,IMU2,-0.24390243902439027,2.804878048780488,-0.12195121951219513,2.58203125,0.09375,-1.59765625
240,0.476,IMU0,-2.378048780487805,2.439024390243903,-0.426829268292683,2.5927734375,0.0703125,-1.6005859375
241,0.476,IMU1,-0.48780487804878053,1.1585365853658538,-0.30487804878048785,2.556640625,0.1083984375,-1.587890625
242,0.476,IMU2,-1.5853658536585367,2.25609756097561,-0.9756097560975611,2.5625,0.0712890625,-1.560546875
243,0.486,IMU0,-1.829268292682927,2.1341463414634148,0.12195121951219513,2.6123046875,0.068359375,-1.5673828125
244,0.486,IMU1,0.06097560975609757,0.48780487804878053,0.30487804878048785,2.578125,0.107421875,-1.560546875
245,0.486,IMU2,-0.9756097560975611,1.707317073170732,-0.3658536585365854,2.5966796875,0.078125,-1.55078125
246,0.496,IMU0,-1.829268292682927,0.7317073170731708,1.5853658536585367,2.611328125,0.0927734375,-1.5556640625
247,0.496,IMU1,0.48780487804878053,-0.853658536585366,1.707317073170732,2.587890625,0.1318359375,-1.5556640625
248,0.496,IMU2,-0.9146341463414634,0.48780487804878053,1.2804878048780488,2.6064453125,0.0888671875,-1.53515625
249,0.506,IMU0,-2.3170731707317076,-0.1829268292682927,0.30487804878048785,2.6708984375,0.0615234375,-1.541015625
250,0.506,IMU1,-0.06097560975609757,-1.5853658536585367,0.30487804878048785,2.6357421875,0.09765625,-1.5341796875
251,0.506,IMU2,-1.707317073170732,-0.1829268292682927,-0.3658536585365854,2.6533203125,0.0673828125,-1.53515625
252,0.516,IMU0,-2.1951219512195124,-1.5853658536585367,-2.7439024390243905,2.662109375,0.07421875,-1.5712890625
253,0.516,IMU1,-0.1829268292682927,-2.3170731707317076,-2.6219512195121952,2.6357421875,0.11328125,-1.5732421875
254,0.516,IMU2,-1.5853658536585367,-0.9756097560975611,-3.1707317073170733,2.64453125,0.0712890625,-1.564453125
255,0.526,IMU0,-1.9512195121951221,-1.3414634146341464,-2.5609756097560976,2.6455078125,0.0791015625,-1.5498046875
256,0.526,IMU1,-0.1829268292682927,-2.378048780487805,-2.3170731707317076,2.6142578125,0.11328125,-1.5556640625
257,0.526,IMU2,-1.3414634146341464,-0.6707317073170732,-2.804878048780488,2.6181640625,0.0595703125,-1.5283203125
258,0.536,IMU0,-2.5,-1.5853658536585367,-2.6219512195121952,2.6357421875,0.0908203125,-1.494140625
259,0.536,IMU1,-0.24390243902439027,-2.439024390243903,-2.5609756097560976,2.6025390625,0.1220703125,-1.490234375
260,0.536,IMU2,-1.707317073170732,-1.3414634146341464,-2.987804878048781,2.595703125,0.083984375,-1.4853515625
261,0.546,IMU0,-2.6219512195121952,-2.25609756097561,-2.5609756097560976,2.6162109375,0.119140625,-1.48046875
262,0.546,IMU1,-0.1829268292682927,-3.1707317073170733,-2.439024390243903,2.576171875,0.158203125,-1.4873046875
263,0.546,IMU2,-1.524390243902439,-2.073170731707317,-2.8658536585365857,2.568359375,0.1240234375,-1.458984375
264,0.556,IMU0,-1.0365853658536586,-1.829268292682927,-0.7926829268292683,2.486328125,0.115234375,-1.4892578125
265,0.556,IMU1,1.5853658536585367,-2.8658536585365857,-0.5487804878048781,2.4560546875,0.14453125,-1.4833984375
266,0.556,IMU2,0.48780487804878053,-1.3414634146341464,-0.853658536585366,2.4619140625,0.107421875,-1.4580078125
267,0.566,IMU0,0.3658536585365854,2.378048780487805,-1.3414634146341464,2.388671875,0.060546875,-1.4794921875
268,0.566,IMU1,2.5,0.5487804878048781,-0.9146341463414634,2.3564453125,0.0966796875,-1.474609375
269,0.566,IMU2,1.0975609756097562,2.682926829268293,-1.524390243902439,2.369140625,0.0693359375,-1.451171875
270,0.576,IMU0,-1.1585365853658538,4.146341463414634,-4.573170731707317,2.4013671875,0.056640625,-1.474609375
271,0.576,IMU1,0.6097560975609757,2.6219512195121952,-4.146341463414634,2.3720703125,0.0947265625,-1.46484375
272,0.576,IMU2,0.0,4.390243902439025,-4.817073170731708,2.3935546875,0.0693359375,-1.451171875
273,0.586,IMU0,-1.707317073170732,2.073170731707317,-3.9024390243902443,2.3935546875,0.0537109375,-1.4619140625
274,0.586,IMU1,0.7317073170731708,0.9756097560975611,-3.8414634146341466,2.3828125,0.1015625,-1.435546875
275,0.586,IMU2,0.0,2.6219512195121952,-4.390243902439025,2.3916015625,0.0498046875,-1.416015625
276,0.596,IMU0,0.5487804878048781,-1.402439024390244,1.2804878048780488,2.365234375,0.0400390625,-1.4365234375
277,0.596,IMU1,3.1707317073170733,-2.3170731707317076,1.3414634146341464,2.337890625,0.0625,-1.427734375
278,0.596,IMU2,2.6219512195121952,-1.1585365853658538,0.7317073170731708,2.3330078125,0.0234375,-1.43359375
279,0.606,IMU0,-0.30487804878048785,-3.231707317073171,4.451219512195122,2.291015625,0.029296875,-1.3916015625
280,0.606,IMU1,1.6463414634146343,-3.963414634146342,4.75609756097561,2.283203125,0.0556640625,-1.4365234375
281,0.606,IMU2,0.6097560975609757,-2.378048780487805,3.963414634146342,2.2724609375,0.01953125,-1.3828125
282,0.616,IMU0,-0.7317073170731708,-2.682926829268293,3.5975609756097566,2.1982421875,0.0185546875,-1.3466796875
283,0.616,IMU1,2.378048780487805,-3.658536585365854,3.9024390243902443,2.1572265625,0.0322265625,-1.3525390625
284,0.616,IMU2,0.426829268292683,-1.707317073170732,3.353658536585366,2.162109375,0.0107421875,-1.33203125
285,0.626,IMU0,-2.25609756097561,-0.7926829268292683,-0.6707317073170732,2.1279296875,0.015625,-1.357421875
286,0.626,IMU1,-0.853658536585366,-1.4634146341463417,-0.5487804878048781,2.0947265625,0.03515625,-1.357421875
287,0.626,IMU2,-1.2804878048780488,0.30487804878048785,-0.853658536585366,2.0966796875,0.015625,-1.333984375
288,0.636,IMU0,-3.353658536585366,1.524390243902439,-2.682926829268293,2.1103515625,0.0078125,-1.3232421875
289,0.636,IMU1,-1.7682926829268295,1.0365853658536586,-2.5,2.0791015625,0.064453125,-1.2919921875
290,0.636,IMU2,-2.7439024390243905,2.7439024390243905,-3.048780487804878,2.0947265625,0.013671875,-1.294921875
291,0.646,IMU0,-3.231707317073171,0.0,-1.829268292682927,2.0517578125,0.0576171875,-1.3125
292,0.646,IMU1,-1.3414634146341464,-0.12195121951219513,-1.707317073170732,2.0205078125,0.091796875,-1.3037109375
293,0.646,IMU2,-2.0121951219512195,1.2804878048780488,-2.3170731707317076,2.0341796875,0.0546875,-1.3125
294,0.656,IMU0,-4.75609756097561,-0.12195121951219513,-4.451219512195122,1.9189453125,0.05859375,-1.2724609375
295,0.656,IMU1,-1.3414634146341464,-0.12195121951219513,-1.707317073170732,2.0205078125,0.091796875,-1.3037109375
296,0.656,IMU2,-3.5975609756097566,0.6097560975609757,-5.0,1.892578125,0.0517578125,-1.2646484375
297,0.666,IMU0,-3.7195121951219514,1.0365853658536586,-3.7195121951219514,1.8759765625,0.0947265625,-1.1875
298,0.666,IMU1,-1.7682926829268295,0.0,-3.5975609756097566,1.8603515625,0.1201171875,-1.1943359375
299,0.666,IMU2,-2.8658536585365857,1.0975609756097562,-4.2682926829268295,1.8603515625,0.0888671875,-1.1708984375
300,0.676,IMU0,-1.707317073170732,-1.5853658536585367,1.3414634146341464,1.8544921875,0.12109375,-1.146484375
301,0.676,IMU1,0.9756097560975611,-3.1097560975609757,1.6463414634146343,1.84375,0.1416015625,-1.1640625
302,0.676,IMU2,-1.0975609756097562,-1.7682926829268295,0.7317073170731708,1.869140625,0.125,-1.166015625
303,0.686,IMU0,-0.5487804878048781,-2.6219512195121952,5.487804878048781,1.8310546875,0.08203125,-1.1640625
304,0.686,IMU1,2.378048780487805,-3.780487804878049,5.548780487804878,1.7998046875,0.1064453125,-1.1591796875
305,0.686,IMU2,0.5487804878048781,-2.1951219512195124,4.939024390243903,1.8212890625,0.0830078125,-1.1572265625
306,0.696,IMU0,-0.9756097560975611,-0.853658536585366,2.6219512195121952,1.7451171875,0.068359375,-1.09375
307,0.696,IMU1,2.073170731707317,-2.3170731707317076,2.682926829268293,1.7158203125,0.10546875,-1.091796875
308,0.696,IMU2,-0.06097560975609757,0.06097560975609757,2.25609756097561,1.71484375,0.064453125,-1.0810546875
309,0.706,IMU0,-1.0975609756097562,1.5853658536585367,0.30487804878048785,1.69921875,0.173828125,-1.083984375
310,0.706,IMU1,1.402439024390244,0.7317073170731708,0.5487804878048781,1.685546875,0.1962890625,-1.0712890625
311,0.706,IMU2,-0.5487804878048781,2.073170731707317,0.0,1.6884765625,0.1728515625,-1.07421875
312,0.716,IMU0,1.0975609756097562,3.658536585365854,2.987804878048781,1.6455078125,0.1318359375,-1.0654296875
313,0.716,IMU1,3.4756097560975614,2.378048780487805,3.048780487804878,1.625,0.154296875,-1.0673828125
314,0.716,IMU2,1.5853658536585367,3.9024390243902443,2.682926829268293,1.6220703125,0.12890625,-1.048828125
315,0.726,IMU0,2.0121951219512195,8.048780487804878,2.1951219512195124,1.5927734375,0.16015625,-1.0634765625
316,0.726,IMU1,4.451219512195122,6.829268292682928,2.3170731707317076,1.5673828125,0.17578125,-1.0703125
317,0.726,IMU2,2.1951219512195124,8.475609756097562,1.8902439024390245,1.5712890625,0.1552734375,-1.0546875
318,0.736,IMU0,2.8658536585365857,12.865853658536587,0.9146341463414634,1.5966796875,0.1708984375,-1.1298828125
319,0.736,IMU1,4.024390243902439,12.195121951219512,1.3414634146341464,1.564453125,0.1953125,-1.1318359375
320,0.736,IMU2,2.682926829268293,13.109756097560977,0.7317073170731708,1.5751953125,0.1689453125,-1.1259765625
321,0.746,IMU0,0.6707317073170732,16.585365853658537,-2.6219512195121952,1.6162109375,0.1748046875,-1.1640625
322,0.746,IMU1,2.5609756097560976,16.097560975609756,-2.3170731707317076,1.59375,0.2099609375,-1.1572265625
323,0.746,IMU2,1.8902439024390245,17.012195121951223,-2.9268292682926833,1.59375,0.177734375,-1.134765625
324,0.756,IMU0,-0.853658536585366,19.146341463414636,-1.402439024390244,1.671875,0.18359375,-1.1201171875
325,0.756,IMU1,1.5853658536585367,18.231707317073173,-1.1585365853658538,1.6494140625,0.20703125,-1.1142578125
326,0.756,IMU2,0.1829268292682927,19.390243902439025,-1.6463414634146343,1.65234375,0.1796875,-1.107421875
327,0.766,IMU0,-1.7682926829268295,19.573170731707318,-0.6707317073170732,1.6796875,0.1982421875,-1.126953125
328,0.766,IMU1,0.48780487804878053,17.865853658536587,-0.48780487804878053,1.6513671875,0.2216796875,-1.1201171875
329,0.766,IMU2,-0.9756097560975611,19.695121951219512,-0.9146341463414634,1.6611328125,0.1953125,-1.1162109375
330,0.776,IMU0,-0.9146341463414634,17.98780487804878,1.5853658536585367,1.646484375,0.2109375,-1.1201171875
331,0.776,IMU1,1.3414634146341464,15.853658536585368,1.829268292682927,1.6162109375,0.2353515625,-1.1259765625
332,0.776,IMU2,0.9146341463414634,17.378048780487806,1.1585365853658538,1.6240234375,0.2099609375,-1.1201171875
333,0.786,IMU0,-2.378048780487805,18.475609756097562,3.1707317073170733,1.6044921875,0.15234375,-1.0859375
334,0.786,IMU1,0.3658536585365854,16.219512195121954,3.1707317073170733,1.5751953125,0.1806640625,-1.076171875
335,0.786,IMU2,0.12195121951219513,17.621951219512198,2.5,1.572265625,0.1552734375,-1.064453125
336,0.796,IMU0,-4.878048780487806,21.890243902439025,-1.1585365853658538,1.5791015625,0.1826171875,-1.0830078125
337,0.796,IMU1,-2.0121951219512195,19.573170731707318,-1.0975609756097562,1.5556640625,0.2060546875,-1.0703125
338,0.796,IMU2,-2.0121951219512195,21.03658536585366,-1.7682926829268295,1.55859375,0.1806640625,-1.05859375
339,0.806,IMU0,-5.487804878048781,22.5609756097561,-3.353658536585366,1.5830078125,0.1943359375,-1.03515625
340,0.806,IMU1,-3.1707317073170733,20.914634146341466,-3.1707317073170733,1.564453125,0.216796875,-1.03515625
341,0.806,IMU2,-3.353658536585366,22.500000000000004,-3.8414634146341466,1.5732421875,0.19140625,-1.0322265625
342,0.816,IMU0,-6.646341463414635,18.719512195121954,-4.51219512195122,1.5869140625,0.2265625,-0.9794921875
343,0.816,IMU1,-3.780487804878049,16.890243902439025,-4.390243902439025,1.564453125,0.25,-0.9853515625
344,0.816,IMU2,-4.75609756097561,18.29268292682927,-4.939024390243903,1.5703125,0.2255859375,-0.982421875
345,0.826,IMU0,-3.780487804878049,16.52439024390244,0.9756097560975611,1.546875,0.291015625,-0.9482421875
346,0.826,IMU1,-1.829268292682927,14.695121951219514,1.2195121951219514,1.5224609375,0.3173828125,-0.9365234375
347,0.826,IMU2,-2.073170731707317,15.975609756097562,0.6707317073170732,1.5341796875,0.294921875,-0.9267578125
348,0.836,IMU0,-3.780487804878049,15.54878048780488,2.7439024390243905,1.56640625,0.2294921875,-0.9638671875
349,0.836,IMU1,-1.7682926829268295,14.51219512195122,2.804878048780488,1.546875,0.259765625,-0.9658203125
350,0.836,IMU2,-2.3170731707317076,15.426829268292684,2.1951219512195124,1.5517578125,0.2333984375,-0.9609375
351,0.846,IMU0,-1.6463414634146343,15.487804878048783,1.9512195121951221,1.58203125,0.2880859375,-0.9755859375
352,0.846,IMU1,0.30487804878048785,14.695121951219514,2.1341463414634148,1.5625,0.3115234375,-0.9697265625
353,0.846,IMU2,-1.0365853658536586,15.609756097560977,1.6463414634146343,1.5693359375,0.287109375,-0.9736328125
354,0.856,IMU0,0.3658536585365854,15.731707317073171,6.402439024390245,1.6240234375,0.3466796875,-0.9677734375
355,0.856,IMU1,2.5609756097560976,14.634146341463415,6.707317073170732,1.603515625,0.365234375,-0.9736328125
356,0.856,IMU2,1.7682926829268295,15.975609756097562,6.2804878048780495,1.6083984375,0.333984375,-0.990234375
357,0.866,IMU0,2.7439024390243905,14.451219512195124,9.939024390243903,1.5888671875,0.255859375,-0.96875
358,0.866,IMU1,5.7926829268292686,13.597560975609758,9.939024390243903,1.5498046875,0.2724609375,-0.9814453125
359,0.866,IMU2,4.390243902439025,14.451219512195124,9.390243902439025,1.541015625,0.2451171875,-0.9775390625
360,0.876,IMU0,-1.2804878048780488,11.219512195121952,0.6707317073170732,1.5947265625,0.2001953125,-0.99609375
361,0.876,IMU1,1.2195121951219514,10.121951219512196,0.6707317073170732,1.556640625,0.2236328125,-0.9931640625
362,0.876,IMU2,0.426829268292683,11.158536585365855,0.06097560975609757,1.5498046875,0.201171875,-0.9560546875
363,0.886,IMU0,-3.353658536585366,12.80487804878049,-3.2926829268292686,1.5205078125,0.1875,-0.98828125
364,0.886,IMU1,-2.073170731707317,11.585365853658537,-3.2926829268292686,1.486328125,0.2138671875,-0.97265625
365,0.886,IMU2,-2.7439024390243905,13.04878048780488,-4.024390243902439,1.484375,0.18359375,-0.9482421875
366,0.896,IMU0,-6.097560975609756,11.158536585365855,-5.914634146341464,1.5400390625,0.26953125,-0.9580078125
367,0.896,IMU1,-4.207317073170732,10.121951219512196,-5.670731707317073,1.5322265625,0.2900390625,-0.94921875
368,0.896,IMU2,-4.329268292682928,11.707317073170733,-6.158536585365854,1.5556640625,0.259765625,-0.966796875
369,0.906,IMU0,-3.2926829268292686,5.426829268292684,-2.073170731707317,1.587890625,0.3037109375,-1.0400390625
370,0.906,IMU1,-0.7926829268292683,4.2682926829268295,-1.7682926829268295,1.5654296875,0.326171875,-1.03515625
371,0.906,IMU2,-1.524390243902439,5.609756097560976,-2.1951219512195124,1.568359375,0.3076171875,-1.04296875
372,0.916,IMU0,2.25609756097561,1.8902439024390245,2.804878048780488,1.623046875,0.18359375,-1.0810546875
373,0.916,IMU1,5.121951219512195,1.2804878048780488,2.9268292682926833,1.591796875,0.201171875,-1.0830078125
374,0.916,IMU2,3.4756097560975614,2.8658536585365857,2.378048780487805,1.5849609375,0.169921875,-1.046875
375,0.926,IMU0,1.0975609756097562,1.707317073170732,-2.378048780487805,1.599609375,0.2421875,-1.1005859375
376,0.926,IMU1,3.963414634146342,0.426829268292683,-2.1951219512195124,1.5712890625,0.2705078125,-1.0986328125
377,0.926,IMU2,0.9146341463414634,2.378048780487805,-2.5609756097560976,1.5771484375,0.2548828125,-1.076171875
378,0.936,IMU0,-1.1585365853658538,0.12195121951219513,-6.707317073170732,1.5966796875,0.341796875,-1.11328125
379,0.936,IMU1,1.0365853658536586,-1.3414634146341464,-6.585365853658537,1.5693359375,0.3701171875,-1.1064453125
380,0.936,IMU2,-0.3658536585365854,0.9146341463414634,-7.195121951219513,1.5869140625,0.3515625,-1.0869140625
381,0.946,IMU0,0.6097560975609757,1.829268292682927,-3.048780487804878,1.494140625,0.388671875,-1.0810546875
382,0.946,IMU1,2.5,0.24390243902439027,-2.804878048780488,1.4697265625,0.408203125,-1.0986328125
383,0.946,IMU2,1.2804878048780488,1.5853658536585367,-3.2926829268292686,1.4775390625,0.3779296875,-1.0966796875
384,0.956,IMU0,4.390243902439025,1.5853658536585367,3.2926829268292686,1.466796875,0.3359375,-1.095703125
385,0.956,IMU1,6.036585365853659,0.6097560975609757,3.4756097560975614,1.435546875,0.359375,-1.09375
386,0.956,IMU2,5.365853658536586,1.8902439024390245,2.987804878048781,1.4248046875,0.3388671875,-1.0751953125
387,0.966,IMU0,1.0975609756097562,2.6219512195121952,-2.682926829268293,1.3896484375,0.4091796875,-1.056640625
388,0.966,IMU1,3.414634146341464,0.7926829268292683,-2.439024390243903,1.35546875,0.43359375,-1.0517578125
389,0.966,IMU2,2.8658536585365857,2.5,-2.8658536585365857,1.37109375,0.4208984375,-1.0302734375
390,0.976,IMU0,1.8902439024390245,-0.5487804878048781,-0.3658536585365854,1.4814453125,0.4267578125,-1.037109375
391,0.976,IMU1,4.2682926829268295,-2.073170731707317,-0.24390243902439027,1.462890625,0.45703125,-1.0283203125
392,0.976,IMU2,2.378048780487805,-0.48780487804878053,-0.6707317073170732,1.486328125,0.4296875,-1.0224609375
393,0.986,IMU0,1.9512195121951221,-2.3170731707317076,2.7439024390243905,1.4619140625,0.439453125,-1.0390625
394,0.986,IMU1,3.4756097560975614,-4.451219512195122,2.9268292682926833,1.43359375,0.458984375,-1.0361328125
395,0.986,IMU2,2.5,-2.804878048780488,2.25609756097561,1.4287109375,0.421875,-1.04296875
396,0.996,IMU0,0.12195121951219513,2.5609756097560976,1.0365853658536586,1.4443359375,0.45703125,-1.07421875
397,0.996,IMU1,1.2804878048780488,0.7317073170731708,1.1585365853658538,1.4130859375,0.4755859375,-1.080078125
398,0.996,IMU2,0.06097560975609757,3.2926829268292686,0.6097560975609757,1.4091796875,0.4443359375,-1.0546875
399,1.006,IMU0,0.06097560975609757,8.963414634146343,0.9756097560975611,1.541015625,0.42578125,-1.1328125
400,1.006,IMU1,1.2195121951219514,7.865853658536586,1.1585365853658538,1.5078125,0.44921875,-1.1416015625
401,1.006,IMU2,0.24390243902439027,9.878048780487806,0.5487804878048781,1.513671875,0.4375,-1.103515625
402,1.016,IMU0,2.1951219512195124,11.28048780487805,2.9268292682926833,1.6083984375,0.4423828125,-1.130859375
403,1.016,IMU1,3.4756097560975614,10.426829268292684,3.353658536585366,1.583984375,0.4677734375,-1.1259765625
404,1.016,IMU2,2.7439024390243905,12.500000000000002,3.1097560975609757,1.59765625,0.453125,-1.0888671875
405,1.026,IMU0,1.524390243902439,14.390243902439027,2.1341463414634148,1.5693359375,0.404296875,-1.0703125
406,1.026,IMU1,2.987804878048781,13.78048780487805,2.378048780487805,1.5419921875,0.4365234375,-1.0771484375
407,1.026,IMU2,1.8902439024390245,15.54878048780488,1.8902439024390245,1.5693359375,0.4013671875,-1.05078125
408,1.036,IMU0,0.3658536585365854,18.170731707317074,0.48780487804878053,1.60546875,0.4287109375,-1.0361328125
409,1.036,IMU1,2.5,17.439024390243905,0.7926829268292683,1.58984375,0.4482421875,-1.033203125
410,1.036,IMU2,1.3414634146341464,19.512195121951223,0.7317073170731708,1.6142578125,0.400390625,-1.0439453125
411,1.046,IMU0,0.24390243902439027,19.512195121951223,3.536585365853659,1.71484375,0.4384765625,-1.0068359375
412,1.046,IMU1,2.25609756097561,18.658536585365855,3.658536585365854,1.6884765625,0.4501953125,-1.0263671875
413,1.046,IMU2,2.1951219512195124,20.30487804878049,3.231707317073171,1.6796875,0.4130859375,-1.0537109375
414,1.056,IMU0,-1.5853658536585367,20.243902439024392,-0.30487804878048785,1.7568359375,0.294921875,-1.0263671875
415,1.056,IMU1,-0.12195121951219513,18.902439024390244,-0.30487804878048785,1.7109375,0.333984375,-1.02734375
416,1.056,IMU2,-0.3658536585365854,19.878048780487806,-1.4634146341463417,1.689453125,0.318359375,-0.9775390625
417,1.066,IMU0,-1.829268292682927,18.29268292682927,-3.1097560975609757,1.6240234375,0.3564453125,-1.0478515625
418,1.066,IMU1,-0.6097560975609757,17.195121951219512,-2.8658536585365857,1.5947265625,0.37890625,-1.0390625
419,1.066,IMU2,-1.2195121951219514,18.719512195121954,-3.5975609756097566,1.6259765625,0.3486328125,-1.0205078125
420,1.076,IMU0,-3.231707317073171,19.32926829268293,-4.207317073170732,1.5830078125,0.34765625,-1.0166015625
421,1.076,IMU1,-2.1341463414634148,18.414634146341466,-3.9024390243902443,1.560546875,0.373046875,-1.0107421875
422,1.076,IMU2,-2.5,20.426829268292686,-4.634146341463415,1.57421875,0.3408203125,-0.9912109375
423,1.086,IMU0,-2.9268292682926833,21.951219512195124,-4.146341463414634,1.5654296875,0.3720703125,-0.99609375
424,1.086,IMU1,-1.0365853658536586,21.34146341463415,-3.8414634146341466,1.5439453125,0.400390625,-1.013671875
425,1.086,IMU2,-2.3170731707317076,23.719512195121954,-4.207317073170732,1.5517578125,0.376953125,-1.0205078125
426,1.096,IMU0,-0.7317073170731708,26.28048780487805,-2.378048780487805,1.5595703125,0.3544921875,-1.0087890625
427,1.096,IMU1,1.2195121951219514,25.670731707317074,-2.1341463414634148,1.533203125,0.3701171875,-1.0205078125
428,1.096,IMU2,-0.1829268292682927,27.80487804878049,-2.378048780487805,1.5224609375,0.3408203125,-1.01171875
429,1.106,IMU0,-0.6707317073170732,29.32926829268293,-2.0121951219512195,1.537109375,0.365234375,-0.9921875
430,1.106,IMU1,0.853658536585366,28.04878048780488,-1.5853658536585367,1.5146484375,0.3876953125,-1.0009765625
431,1.106,IMU2,1.3414634146341464,29.08536585365854,-1.829268292682927,1.5390625,0.3623046875,-0.9794921875
432,1.116,IMU0,-1.524390243902439,27.621951219512198,-2.0121951219512195,1.5458984375,0.2724609375,-0.9736328125
433,1.116,IMU1,0.48780487804878053,26.463414634146343,-1.7682926829268295,1.51953125,0.2978515625,-0.966796875
434,1.116,IMU2,0.0,27.31707317073171,-2.6219512195121952,1.5224609375,0.26171875,-0.96875
435,1.126,IMU0,-3.9024390243902443,26.09756097560976,-5.609756097560976,1.5068359375,0.298828125,-0.94921875
436,1.126,IMU1,-1.2804878048780488,24.81707317073171,-5.365853658536586,1.4833984375,0.3173828125,-0.970703125
437,1.126,IMU2,-1.8902439024390245,26.402439024390247,-5.975609756097562,1.474609375,0.2724609375,-0.9853515625
438,1.136,IMU0,-4.451219512195122,26.34146341463415,-6.097560975609756,1.53125,0.3017578125,-1.01953125
439,1.136,IMU1,-1.829268292682927,25.426829268292686,-5.7926829268292686,1.5068359375,0.326171875,-1.0263671875
440,1.136,IMU2,-3.2926829268292686,27.5609756097561,-5.609756097560976,1.5185546875,0.337890625,-0.99609375
441,1.146,IMU0,-1.1585365853658538,25.54878048780488,0.48780487804878053,1.443359375,0.2978515625,-1.005859375
442,1.146,IMU1,1.5853658536585367,23.963414634146343,0.426829268292683,1.421875,0.3310546875,-0.9951171875
443,1.146,IMU2,-0.426829268292683,26.402439024390247,0.30487804878048785,1.4560546875,0.3056640625,-0.990234375
444,1.156,IMU0,-1.2804878048780488,24.512195121951223,-0.48780487804878053,1.4375,0.2802734375,-0.9619140625
445,1.156,IMU1,0.48780487804878053,24.32926829268293,-0.30487804878048785,1.419921875,0.3017578125,-0.9638671875
446,1.156,IMU2,-0.3658536585365854,25.365853658536587,-0.6097560975609757,1.4296875,0.271484375,-0.98828125
447,1.166,IMU0,-2.073170731707317,25.000000000000004,-1.0365853658536586,1.46875,0.2236328125,-0.99609375
448,1.166,IMU1,0.24390243902439027,24.32926829268293,-0.5487804878048781,1.4541015625,0.2412109375,-0.974609375
449,1.166,IMU2,-0.6707317073170732,25.426829268292686,-1.3414634146341464,1.4375,0.2216796875,-0.982421875
450,1.176,IMU0,-3.5975609756097566,25.365853658536587,-5.0,1.5029296875,0.234375,-1.0380859375
451,1.176,IMU1,-1.5853658536585367,23.902439024390247,-4.817073170731708,1.466796875,0.2353515625,-1.05078125
452,1.176,IMU2,-2.7439024390243905,25.60975609756098,-5.3048780487804885,1.4912109375,0.2314453125,-1.02734375
453,1.186,IMU0,-1.2195121951219514,24.146341463414636,-0.9756097560975611,1.5283203125,0.263671875,-1.0419921875
454,1.186,IMU1,1.2804878048780488,23.353658536585368,-0.7317073170731708,1.4912109375,0.2861328125,-1.0537109375
455,1.186,IMU2,-0.24390243902439027,25.121951219512198,-1.2195121951219514,1.51953125,0.2548828125,-1.03515625
456,1.196,IMU0,3.1707317073170733,24.939024390243905,5.182926829268293,1.48046875,0.2197265625,-0.99609375
457,1.196,IMU1,5.853658536585367,23.963414634146343,5.365853658536586,1.4697265625,0.2578125,-0.9833984375
458,1.196,IMU2,4.085365853658537,25.48780487804878,4.939024390243903,1.4541015625,0.2109375,-1.0
459,1.206,IMU0,3.8414634146341466,24.085365853658537,3.780487804878049,1.4033203125,0.197265625,-0.994140625
460,1.206,IMU1,5.731707317073171,23.04878048780488,4.024390243902439,1.3740234375,0.2265625,-0.98828125
461,1.206,IMU2,4.573170731707317,24.512195121951223,3.536585365853659,1.373046875,0.203125,-0.9765625
462,1.216,IMU0,1.2804878048780488,25.30487804878049,-2.9268292682926833,1.3916015625,0.2080078125,-1.0087890625
463,1.216,IMU1,2.7439024390243905,24.451219512195124,-2.7439024390243905,1.361328125,0.205078125,-1.0205078125
464,1.216,IMU2,1.4634146341463417,25.853658536585368,-3.2926829268292686,1.3662109375,0.2099609375,-0.982421875
465,1.226,IMU0,-0.9146341463414634,27.80487804878049,-7.560975609756098,1.369140625,0.2314453125,-0.974609375
466,1.226,IMU1,1.2195121951219514,26.463414634146343,-7.317073170731708,1.34375,0.2451171875,-0.98828125
467,1.226,IMU2,-0.12195121951219513,28.414634146341466,-7.8048780487804885,1.349609375,0.21875,-0.984375
468,1.236,IMU0,1.9512195121951221,29.451219512195124,-3.7195121951219514,1.2666015625,0.2783203125,-1.0546875
469,1.236,IMU1,3.8414634146341466,28.963414634146343,-3.1707317073170733,1.25,0.2958984375,-1.046875
470,1.236,IMU2,2.8658536585365857,30.670731707317074,-3.536585365853659,1.267578125,0.271484375,-1.0322265625
471,1.246,IMU0,4.695121951219512,30.365853658536587,1.3414634146341464,1.23828125,0.2060546875,-1.044921875
472,1.246,IMU1,6.646341463414635,29.08536585365854,1.4634146341463417,1.21484375,0.2255859375,-1.048828125
473,1.246,IMU2,4.695121951219512,30.60975609756098,1.0975609756097562,1.2216796875,0.2041015625,-1.03515625
474,1.256,IMU0,5.182926829268293,34.63414634146342,0.853658536585366,1.1806640625,0.119140625,-1.07421875
475,1.256,IMU1,7.195121951219513,33.90243902439025,0.9756097560975611,1.158203125,0.13671875,-1.076171875
476,1.256,IMU2,5.670731707317073,34.207317073170735,0.5487804878048781,1.1533203125,0.1142578125,-1.060546875
477,1.266,IMU0,3.658536585365854,38.963414634146346,-0.853658536585366,1.1962890625,0.107421875,-1.087890625
478,1.266,IMU1,5.548780487804878,38.65853658536586,-0.6097560975609757,1.1728515625,0.12890625,-1.087890625
479,1.266,IMU2,4.2682926829268295,39.69512195121951,-1.0365853658536586,1.1708984375,0.11328125,-1.068359375
480,1.276,IMU0,2.682926829268293,39.87804878048781,-1.2195121951219514,1.2900390625,0.13671875,-1.1201171875
481,1.276,IMU1,3.780487804878049,39.207317073170735,-0.7926829268292683,1.2802734375,0.1572265625,-1.1240234375
482,1.276,IMU2,3.4756097560975614,40.243902439024396,-1.2804878048780488,1.2763671875,0.11328125,-1.1181640625
483,1.286,IMU0,0.7926829268292683,39.146341463414636,0.853658536585366,1.376953125,0.10546875,-1.1416015625
484,1.286,IMU1,2.1341463414634148,37.6829268292683,1.0975609756097562,1.3525390625,0.1201171875,-1.1455078125
485,1.286,IMU2,1.6463414634146343,39.146341463414636,0.6097560975609757,1.3486328125,0.0908203125,-1.140625
486,1.296,IMU0,-0.853658536585366,37.07317073170732,0.6707317073170732,1.404296875,0.044921875,-1.2041015625
487,1.296,IMU1,-0.24390243902439027,36.463414634146346,1.0365853658536586,1.3671875,0.06640625,-1.193359375
488,1.296,IMU2,-0.426829268292683,37.86585365853659,0.48780487804878053,1.384765625,0.0498046875,-1.181640625
489,1.306,IMU0,-2.8658536585365857,35.670731707317074,-1.4634146341463417,1.40234375,0.0419921875,-1.1611328125
490,1.306,IMU1,-1.0975609756097562,34.93902439024391,-1.2804878048780488,1.3798828125,0.068359375,-1.154296875
491,1.306,IMU2,-1.402439024390244,35.85365853658537,-2.0121951219512195,1.3896484375,0.0458984375,-1.134765625
492,1.316,IMU0,-2.3170731707317076,33.109756097560975,-0.3658536585365854,1.38671875,0.1416015625,-1.1142578125
493,1.316,IMU1,-1.2804878048780488,32.5609756097561,0.12195121951219513,1.375,0.162109375,-1.1337890625
494,1.316,IMU2,-0.853658536585366,33.35365853658537,-0.426829268292683,1.3525390625,0.146484375,-1.1142578125
495,1.326,IMU0,-2.987804878048781,32.13414634146342,0.853658536585366,1.337890625,0.228515625,-1.15625
496,1.326,IMU1,-1.707317073170732,31.219512195121954,1.2804878048780488,1.314453125,0.2529296875,-1.1748046875
497,1.326,IMU2,-1.4634146341463417,32.5,0.853658536585366,1.337890625,0.22265625,-1.1474609375
498,1.336,IMU0,-1.3414634146341464,33.59756097560976,3.780487804878049,1.341796875,0.2099609375,-1.1748046875
499,1.336,IMU1,0.5487804878048781,32.07317073170732,4.024390243902439,1.314453125,0.2294921875,-1.1689453125
500,1.336,IMU2,1.1585365853658538,33.23170731707317,3.231707317073171,1.33203125,0.2158203125,-1.1796875
501,1.346,IMU0,-2.1341463414634148,34.57317073170732,1.402439024390244,1.3408203125,0.2734375,-1.173828125
502,1.346,IMU1,-0.48780487804878053,33.170731707317074,1.7682926829268295,1.3212890625,0.2919921875,-1.1767578125
503,1.346,IMU2,-0.3658536585365854,34.08536585365854,1.0975609756097562,1.3115234375,0.2509765625,-1.1640625
504,1.356,IMU0,-2.9268292682926833,33.71951219512196,-1.7682926829268295,1.3935546875,0.2236328125,-1.17578125
505,1.356,IMU1,-1.524390243902439,32.5,-1.524390243902439,1.3671875,0.2412109375,-1.1650390625
506,1.356,IMU2,-1.4634146341463417,33.963414634146346,-1.829268292682927,1.3544921875,0.2099609375,-1.1494140625
507,1.366,IMU0,-2.378048780487805,31.646341463414636,-5.365853658536586,1.3310546875,0.20703125,-1.166015625
508,1.366,IMU1,-1.0365853658536586,30.426829268292686,-4.878048780487806,1.3134765625,0.228515625,-1.1630859375
509,1.366,IMU2,-1.4634146341463417,32.19512195121951,-5.3048780487804885,1.3291015625,0.216796875,-1.1318359375
510,1.376,IMU0,-1.9512195121951221,30.000000000000004,-2.5,1.2802734375,0.20703125,-1.1494140625
511,1.376,IMU1,-0.853658536585366,28.719512195121954,-2.1341463414634148,1.2568359375,0.23046875,-1.1474609375
512,1.376,IMU2,-1.0365853658536586,30.182926829268297,-2.8658536585365857,1.2783203125,0.203125,-1.1591796875
513,1.386,IMU0,-1.1585365853658538,30.60975609756098,-0.426829268292683,1.25,0.2275390625,-1.1484375
514,1.386,IMU1,0.7926829268292683,29.207317073170735,-0.3658536585365854,1.2392578125,0.2490234375,-1.1455078125
515,1.386,IMU2,0.3658536585365854,30.182926829268297,-0.7926829268292683,1.2177734375,0.208984375,-1.1376953125
516,1.396,IMU0,-0.24390243902439027,28.902439024390247,0.48780487804878053,1.2646484375,0.173828125,-1.1337890625
517,1.396,IMU1,2.073170731707317,27.5609756097561,0.6097560975609757,1.2412109375,0.1796875,-1.1298828125
518,1.396,IMU2,1.2804878048780488,28.59756097560976,0.24390243902439027,1.2392578125,0.18359375,-1.1171875
519,1.406,IMU0,-1.402439024390244,27.682926829268297,-1.0365853658536586,1.185546875,0.2353515625,-1.1689453125
520,1.406,IMU1,1.0365853658536586,26.52439024390244,-0.6707317073170732,1.1640625,0.2578125,-1.1630859375
521,1.406,IMU2,-0.426829268292683,27.743902439024392,-1.524390243902439,1.1923828125,0.228515625,-1.1669921875
522,1.416,IMU0,-1.4634146341463417,28.04878048780488,-0.853658536585366,1.205078125,0.1611328125,-1.119140625
523,1.416,IMU1,0.9146341463414634,26.463414634146343,-0.853658536585366,1.1826171875,0.1875,-1.1015625
524,1.416,IMU2,-0.7317073170731708,28.475609756097562,-0.9756097560975611,1.1796875,0.1513671875,-1.1015625
525,1.426,IMU0,-0.7317073170731708,25.975609756097562,1.1585365853658538,1.220703125,0.1923828125,-1.0712890625
526,1.426,IMU1,1.5853658536585367,23.53658536585366,1.2195121951219514,1.2001953125,0.2099609375,-1.076171875
527,1.426,IMU2,0.24390243902439027,25.853658536585368,0.9146341463414634,1.1923828125,0.1875,-1.05859375
528,1.436,IMU0,-1.3414634146341464,21.646341463414636,0.30487804878048785,1.1904296875,0.177734375,-1.0546875
529,1.436,IMU1,1.1585365853658538,19.81707317073171,0.48780487804878053,1.1669921875,0.1904296875,-1.0654296875
530,1.436,IMU2,-0.30487804878048785,21.951219512195124,0.06097560975609757,1.16796875,0.1806640625,-1.064453125
531,1.446,IMU0,-1.3414634146341464,20.0,-1.2195121951219514,1.1982421875,0.138671875,-1.08203125
532,1.446,IMU1,1.2804878048780488,18.902439024390244,-1.0975609756097562,1.1689453125,0.150390625,-1.0751953125
533,1.446,IMU2,-0.48780487804878053,20.182926829268293,-1.4634146341463417,1.1767578125,0.1435546875,-1.0703125
534,1.456,IMU0,-0.9146341463414634,17.134146341463417,-3.231707317073171,1.134765625,0.1083984375,-1.09765625
535,1.456,IMU1,0.9146341463414634,16.097560975609756,-3.1097560975609757,1.1103515625,0.1201171875,-1.0966796875
536,1.456,IMU2,-0.853658536585366,17.5,-3.353658536585366,1.115234375,0.1123046875,-1.0615234375
537,1.466,IMU0,-0.853658536585366,18.597560975609756,-2.804878048780488,1.109375,0.0947265625,-1.0634765625
538,1.466,IMU1,0.1829268292682927,17.378048780487806,-2.439024390243903,1.0810546875,0.1044921875,-1.060546875
539,1.466,IMU2,-0.5487804878048781,18.902439024390244,-3.048780487804878,1.09765625,0.0986328125,-1.076171875
540,1.476,IMU0,-1.0365853658536586,17.804878048780488,-2.5,1.0087890625,0.0908203125,-1.0400390625
541,1.476,IMU1,1.6463414634146343,16.646341463414636,-2.378048780487805,0.9873046875,0.109375,-1.041015625
542,1.476,IMU2,-0.6707317073170732,18.170731707317074,-2.682926829268293,0.9951171875,0.091796875,-1.021484375
543,1.486,IMU0,-0.48780487804878053,19.75609756097561,-1.9512195121951221,0.9267578125,0.0927734375,-0.9853515625
544,1.486,IMU1,1.402439024390244,18.10975609756098,-1.6463414634146343,0.912109375,0.1171875,-0.951171875
545,1.486,IMU2,-0.24390243902439027,19.573170731707318,-2.1341463414634148,0.90625,0.0888671875,-0.966796875
546,1.496,IMU0,-0.9146341463414634,18.170731707317074,-2.7439024390243905,0.80859375,0.0966796875,-0.8779296875
547,1.496,IMU1,1.2804878048780488,16.28048780487805,-2.5,0.791015625,0.1142578125,-0.87109375
548,1.496,IMU2,-0.06097560975609757,17.926829268292686,-2.987804878048781,0.7900390625,0.0908203125,-0.890625
549,1.506,IMU0,-1.5853658536585367,16.890243902439025,-6.402439024390245,0.7109375,0.0205078125,-0.8408203125
550,1.506,IMU1,0.48780487804878053,15.060975609756099,-6.219512195121951,0.6943359375,0.0390625,-0.8408203125
551,1.506,IMU2,-1.0365853658536586,17.134146341463417,-6.646341463414635,0.6884765625,0.013671875,-0.8369140625
552,1.516,IMU0,-4.390243902439025,17.5609756097561,-10.487804878048781,0.662109375,-0.021484375,-0.8212890625
553,1.516,IMU1,-1.6463414634146343,15.914634146341465,-10.426829268292684,0.640625,-0.0009765625,-0.8251953125
554,1.516,IMU2,-3.4756097560975614,18.170731707317074,-10.792682926829269,0.6318359375,-0.029296875,-0.8115234375
555,1.526,IMU0,-7.195121951219513,20.0609756097561,-13.841463414634148,0.638671875,-0.0048828125,-0.810546875
556,1.526,IMU1,-5.121951219512195,18.29268292682927,-13.658536585365855,0.623046875,0.0087890625,-0.810546875
557,1.526,IMU2,-6.402439024390245,20.0609756097561,-14.207317073170733,0.623046875,-0.01171875,-0.8134765625
558,1.536,IMU0,-5.3048780487804885,17.5,-10.609756097560977,0.658203125,0.0234375,-0.779296875
559,1.536,IMU1,-2.804878048780488,15.243902439024392,-10.365853658536587,0.646484375,0.02734375,-0.779296875
560,1.536,IMU2,-4.817073170731708,17.195121951219512,-10.914634146341465,0.65625,0.017578125,-0.7998046875
561,1.546,IMU0,-3.4756097560975614,12.560975609756099,-5.0,0.5546875,-0.0078125,-0.751953125
562,1.546,IMU1,-1.1585365853658538,10.609756097560977,-4.817073170731708,0.5419921875,0.0009765625,-0.7412109375
563,1.546,IMU2,-3.1097560975609757,12.439024390243903,-5.365853658536586,0.5439453125,-0.013671875,-0.767578125
564,1.556,IMU0,-2.378048780487805,9.695121951219512,-3.7195121951219514,0.416015625,-0.0712890625,-0.822265625
565,1.556,IMU1,-0.426829268292683,8.78048780487805,-3.4756097560975614,0.4013671875,-0.0517578125,-0.779296875
566,1.556,IMU2,-1.5853658536585367,10.182926829268293,-4.024390243902439,0.39453125,-0.0712890625,-0.7998046875
567,1.566,IMU0,-5.3048780487804885,14.146341463414636,-10.487804878048781,0.240234375,-0.125,-0.7626953125
568,1.566,IMU1,-3.231707317073171,13.109756097560977,-10.365853658536587,0.2158203125,-0.12890625,-0.7783203125
569,1.566,IMU2,-4.573170731707317,14.634146341463415,-10.792682926829269,0.2080078125,-0.13671875,-0.7548828125
570,1.576,IMU0,-5.7926829268292686,17.98780487804878,-12.74390243902439,0.1162109375,-0.1005859375,-0.71484375
571,1.576,IMU1,-3.8414634146341466,16.70731707317073,-12.439024390243903,0.1083984375,-0.1044921875,-0.7578125
572,1.576,IMU2,-4.695121951219512,18.10975609756098,-12.987804878048781,0.1044921875,-0.11328125,-0.7392578125
573,1.586,IMU0,-5.914634146341464,18.963414634146343,-11.951219512195124,0.001953125,-0.14453125,-0.6962890625
574,1.586,IMU1,-4.51219512195122,17.5609756097561,-11.707317073170733,-0.001953125,-0.1455078125,-0.681640625
575,1.586,IMU2,-5.121951219512195,19.207317073170735,-12.195121951219512,-0.0078125,-0.15234375,-0.6806640625
576,1.596,IMU0,-13.109756097560977,17.378048780487806,-12.073170731707318,-0.1533203125,-0.259765625,-0.5771484375
577,1.596,IMU1,-12.073170731707318,15.30487804878049,-11.890243902439025,-0.1640625,-0.251953125,-0.5595703125
578,1.596,IMU2,-12.682926829268293,17.25609756097561,-12.439024390243903,-0.1689453125,-0.2607421875,-0.5537109375
579,1.606,IMU0,-19.085365853658537,5.3048780487804885,-8.719512195121952,-0.359375,-0.212890625,-0.3916015625
580,1.606,IMU1,-16.890243902439025,2.9268292682926833,-8.292682926829269,-0.3544921875,-0.2109375,-0.384765625
581,1.606,IMU2,-17.98780487804878,4.817073170731708,-8.902439024390244,-0.349609375,-0.216796875,-0.390625
582,1.616,IMU0,-25.792682926829272,-5.7926829268292686,-10.182926829268293,-0.564453125,-0.126953125,-0.380859375
583,1.616,IMU1,-23.84146341463415,-7.317073170731708,-10.30487804878049,-0.5810546875,-0.1474609375,-0.3759765625
584,1.616,IMU2,-24.75609756097561,-5.609756097560976,-10.914634146341465,-0.595703125,-0.15234375,-0.3681640625
585,1.626,IMU0,-32.01219512195122,0.24390243902439027,-13.78048780487805,-1.0244140625,-0.1259765625,-0.173828125
586,1.626,IMU1,-30.182926829268297,-1.1585365853658538,-13.963414634146343,-1.025390625,-0.1142578125,-0.1826171875
587,1.626,IMU2,-31.34146341463415,0.7317073170731708,-14.634146341463415,-1.0341796875,-0.1083984375,-0.2041015625
588,1.636,IMU0,-30.670731707317074,-2.1951219512195124,-11.951219512195124,-1.4384765625,-0.185546875,0.0146484375
589,1.636,IMU1,-28.292682926829272,-3.5975609756097566,-11.829268292682928,-1.4375,-0.197265625,0.029296875
590,1.636,IMU2,-29.451219512195124,-1.3414634146341464,-12.378048780487806,-1.451171875,-0.1884765625,0.0234375
591,1.646,IMU0,-18.78048780487805,-4.695121951219512,-1.5853658536585367,-1.6240234375,-0.123046875,0.1005859375
592,1.646,IMU1,-16.158536585365855,-6.341463414634147,-1.524390243902439,-1.611328125,-0.1435546875,0.0859375
593,1.646,IMU2,-17.621951219512198,-4.207317073170732,-1.8902439024390245,-1.62109375,-0.13671875,0.078125
594,1.656,IMU0,-12.195121951219512,-3.8414634146341466,0.24390243902439027,-1.609375,-0.1611328125,0.23828125
595,1.656,IMU1,-10.121951219512196,-5.548780487804878,0.1829268292682927,-1.6025390625,-0.18359375,0.23828125
596,1.656,IMU2,-11.646341463414634,-3.7195121951219514,-0.30487804878048785,-1.623046875,-0.181640625,0.232421875
597,1.666,IMU0,-12.073170731707318,-6.341463414634147,0.9756097560975611,-1.6943359375,-0.1181640625,0.330078125
598,1.666,IMU1,-9.817073170731708,-8.658536585365855,0.853658536585366,-1.681640625,-0.1357421875,0.291015625
599,1.666,IMU2,-11.158536585365855,-7.25609756097561,0.30487804878048785,-1.6923828125,-0.1298828125,0.2568359375
600,1.676,IMU0,-14.085365853658537,-13.902439024390246,8.841463414634147,-1.708984375,-0.138671875,0.359375
601,1.676,IMU1,-11.646341463414634,-15.731707317073171,8.902439024390244,-1.6875,-0.1455078125,0.3359375
602,1.676,IMU2,-13.29268292682927,-14.146341463414636,8.536585365853659,-1.69140625,-0.13671875,0.2802734375
603,1.686,IMU0,-17.012195121951223,-24.75609756097561,15.975609756097562,-1.7001953125,-0.0986328125,0.224609375
604,1.686,IMU1,-14.207317073170733,-26.219512195121954,15.79268292682927,-1.6865234375,-0.1044921875,0.2294921875
605,1.686,IMU2,-15.79268292682927,-24.634146341463417,15.243902439024392,-1.6962890625,-0.0927734375,0.240234375
606,1.696,IMU0,-20.426829268292686,-29.26829268292683,14.51219512195122,-1.650390625,-0.0390625,0.3466796875
607,1.696,IMU1,-17.5,-30.975609756097565,14.146341463414636,-1.64453125,-0.0458984375,0.3583984375
608,1.696,IMU2,-19.146341463414636,-29.451219512195124,13.414634146341465,-1.66015625,-0.0380859375,0.357421875
609,1.706,IMU0,-20.182926829268293,-37.6219512195122,7.926829268292684,-1.607421875,-0.08984375,0.353515625
610,1.706,IMU1,-17.31707317073171,-37.987804878048784,8.475609756097562,-1.6064453125,-0.10546875,0.357421875
611,1.706,IMU2,-19.32926829268293,-36.58536585365854,7.621951219512196,-1.62890625,-0.0986328125,0.3369140625
612,1.716,IMU0,-20.0609756097561,-40.91463414634147,-1.707317073170732,-1.5556640625,-0.017578125,0.232421875
613,1.716,IMU1,-16.951219512195124,-42.5609756097561,-2.1341463414634148,-1.560546875,-0.0302734375,0.216796875
614,1.716,IMU2,-18.414634146341466,-40.73170731707317,-3.048780487804878,-1.583984375,-0.0205078125,0.1943359375
615,1.726,IMU0,-20.182926829268293,-45.1219512195122,-9.26829268292683,-1.537109375,0.0048828125,0.3251953125
616,1.726,IMU1,-17.682926829268293,-47.6219512195122,-9.451219512195122,-1.53515625,-0.0205078125,0.25
617,1.726,IMU2,-19.390243902439025,-45.73170731707317,-10.0,-1.5625,-0.015625,0.2822265625
618,1.736,IMU0,-17.378048780487806,-42.926829268292686,-12.865853658536587,-1.5283203125,0.0703125,0.3154296875
619,1.736,IMU1,-15.243902439024392,-44.024390243902445,-12.80487804878049,-1.521484375,0.0615234375,0.3291015625
620,1.736,IMU2,-16.76829268292683,-42.31707317073171,-13.475609756097562,-1.5283203125,0.0732421875,0.322265625
621,1.746,IMU0,-14.878048780487806,-42.25609756097561,-14.085365853658537,-1.5078125,0.0341796875,0.2216796875
622,1.746,IMU1,-12.256097560975611,-44.93902439024391,-14.02439024390244,-1.5078125,0.0166015625,0.2216796875
623,1.746,IMU2,-13.902439024390246,-42.6829268292683,-14.634146341463415,-1.5263671875,0.0244140625,0.2197265625
624,1.756,IMU0,-12.80487804878049,-33.23170731707317,-15.30487804878049,-1.4658203125,0.12109375,0.09765625
625,1.756,IMU1,-10.548780487804878,-35.54878048780488,-15.731707317073171,-1.44921875,0.1396484375,0.1552734375
626,1.756,IMU2,-11.707317073170733,-33.41463414634146,-16.219512195121954,-1.455078125,0.13671875,0.119140625
627,1.766,IMU0,-7.195121951219513,-19.02439024390244,-10.792682926829269,-1.4423828125,0.1259765625,0.125
628,1.766,IMU1,-4.75609756097561,-20.0,-10.609756097560977,-1.4375,0.1044921875,0.1484375
629,1.766,IMU2,-6.463414634146342,-19.695121951219512,-11.52439024390244,-1.4375,0.1142578125,0.1328125
630,1.776,IMU0,-0.5487804878048781,-7.987804878048781,-1.9512195121951221,-1.396484375,0.1162109375,0.1025390625
631,1.776,IMU1,1.9512195121951221,-9.085365853658537,-1.5853658536585367,-1.37890625,0.1162109375,0.1396484375
632,1.776,IMU2,0.48780487804878053,-7.926829268292684,-2.804878048780488,-1.373046875,0.1171875,0.1044921875
633,1.786,IMU0,4.024390243902439,3.4756097560975614,5.121951219512195,-1.4248046875,0.111328125,0.166015625
634,1.786,IMU1,6.2804878048780495,2.682926829268293,5.426829268292684,-1.4140625,0.09765625,0.1708984375
635,1.786,IMU2,4.634146341463415,2.9268292682926833,4.451219512195122,-1.412109375,0.109375,0.134765625
636,1.796,IMU0,7.8048780487804885,9.51219512195122,12.256097560975611,-1.4423828125,0.1337890625,0.2255859375
637,1.796,IMU1,10.182926829268293,8.414634146341465,12.439024390243903,-1.4345703125,0.1015625,0.2490234375
638,1.796,IMU2,8.719512195121952,9.878048780487806,11.76829268292683,-1.4423828125,0.119140625,0.2216796875
639,1.806,IMU0,10.731707317073171,15.79268292682927,17.378048780487806,-1.3984375,0.048828125,0.162109375
640,1.806,IMU1,12.682926829268293,15.000000000000002,17.5609756097561,-1.3876953125,0.03515625,0.171875
641,1.806,IMU2,11.76829268292683,15.54878048780488,16.890243902439025,-1.404296875,0.0439453125,0.13671875
642,1.816,IMU0,12.01219512195122,20.426829268292686,18.53658536585366,-1.3515625,0.0927734375,0.1484375
643,1.816,IMU1,14.02439024390244,19.573170731707318,18.475609756097562,-1.3447265625,0.0810546875,0.15234375
644,1.816,IMU2,13.04878048780488,20.731707317073173,18.353658536585368,-1.373046875,0.0888671875,0.1484375
645,1.826,IMU0,10.121951219512196,25.365853658536587,16.646341463414636,-1.259765625,0.0615234375,0.0771484375
646,1.826,IMU1,12.195121951219512,24.32926829268293,16.82926829268293,-1.259765625,0.0478515625,0.0732421875
647,1.826,IMU2,11.341463414634147,25.853658536585368,16.402439024390244,-1.2744140625,0.060546875,0.1025390625
648,1.836,IMU0,7.317073170731708,26.158536585365855,12.439024390243903,-1.1845703125,0.044921875,0.1572265625
649,1.836,IMU1,8.963414634146343,25.243902439024392,12.500000000000002,-1.189453125,0.04296875,0.177734375
650,1.836,IMU2,8.109756097560977,26.219512195121954,12.317073170731708,-1.216796875,0.0361328125,0.1435546875
651,1.846,IMU0,2.5,24.451219512195124,6.52439024390244,-1.1484375,0.046875,0.1591796875
652,1.846,IMU1,4.146341463414634,23.231707317073173,6.646341463414635,-1.1533203125,0.0439453125,0.1875
653,1.846,IMU2,3.2926829268292686,24.939024390243905,6.2804878048780495,-1.1630859375,0.0390625,0.1416015625
654,1.856,IMU0,0.6707317073170732,19.26829268292683,6.2804878048780495,-1.1630859375,0.08203125,0.1064453125
655,1.856,IMU1,2.7439024390243905,17.98780487804878,6.402439024390245,-1.1630859375,0.0791015625,0.0927734375
656,1.856,IMU2,1.829268292682927,19.634146341463417,5.914634146341464,-1.1767578125,0.07421875,0.1396484375
657,1.866,IMU0,-0.30487804878048785,13.841463414634148,6.707317073170732,-1.0927734375,0.111328125,0.09375
658,1.866,IMU1,1.8902439024390245,12.439024390243903,6.7682926829268295,-1.0908203125,0.103515625,0.052734375
659,1.866,IMU2,0.9756097560975611,14.451219512195124,6.2804878048780495,-1.107421875,0.1044921875,0.1220703125
660,1.876,IMU0,-3.4756097560975614,12.134146341463415,3.780487804878049,-1.0693359375,0.1484375,0.0224609375
661,1.876,IMU1,-1.0975609756097562,10.914634146341465,3.8414634146341466,-1.064453125,0.1396484375,0.015625
662,1.876,IMU2,-1.8902439024390245,12.682926829268293,3.414634146341464,-1.080078125,0.1435546875,0.01171875
663,1.886,IMU0,-4.146341463414634,12.560975609756099,2.987804878048781,-1.05859375,0.099609375,0.05859375
664,1.886,IMU1,-2.0121951219512195,11.463414634146343,3.1097560975609757,-1.0556640625,0.091796875,0.07421875
665,1.886,IMU2,-2.9268292682926833,12.865853658536587,2.6219512195121952,-1.0732421875,0.09375,0.052734375
666,1.896,IMU0,-3.536585365853659,14.939024390243905,2.439024390243903,-1.0322265625,0.1025390625,0.0263671875
667,1.896,IMU1,-1.524390243902439,13.78048780487805,2.5609756097560976,-1.029296875,0.08984375,0.0498046875
668,1.896,IMU2,-2.682926829268293,15.30487804878049,2.073170731707317,-1.0419921875,0.099609375,0.017578125
669,1.906,IMU0,-3.4756097560975614,16.34146341463415,0.48780487804878053,-1.0234375,0.0654296875,0.0634765625
670,1.906,IMU1,-1.6463414634146343,15.426829268292684,0.6097560975609757,-1.021484375,0.056640625,0.08203125
671,1.906,IMU2,-2.682926829268293,16.646341463414636,0.12195121951219513,-1.0322265625,0.0625,0.0625
672,1.916,IMU0,-2.987804878048781,20.48780487804878,0.48780487804878053,-1.015625,0.0634765625,0.0341796875
673,1.916,IMU1,-1.2804878048780488,19.146341463414636,0.7926829268292683,-1.0126953125,0.048828125,0.033203125
674,1.916,IMU2,-2.378048780487805,20.914634146341466,0.12195121951219513,-1.017578125,0.0595703125,0.0458984375
675,1.926,IMU0,-0.9146341463414634,22.31707317073171,2.378048780487805,-0.974609375,0.1201171875,0.0703125
676,1.926,IMU1,1.0975609756097562,21.219512195121954,2.804878048780488,-0.9658203125,0.103515625,0.0712890625
677,1.926,IMU2,-0.1829268292682927,22.743902439024392,2.0121951219512195,-0.9658203125,0.1162109375,0.060546875
678,1.936,IMU0,1.524390243902439,21.28048780487805,7.134146341463415,-0.95703125,0.1181640625,0.10546875
679,1.936,IMU1,3.414634146341464,20.243902439024392,7.25609756097561,-0.9482421875,0.11328125,0.1279296875
680,1.936,IMU2,2.25609756097561,21.707317073170735,6.707317073170732,-0.955078125,0.11328125,0.09765625
681,1.946,IMU0,-0.1829268292682927,18.963414634146343,5.487804878048781,-0.9482421875,0.0849609375,0.1162109375
682,1.946,IMU1,1.7682926829268295,17.804878048780488,5.426829268292684,-0.9521484375,0.0830078125,0.1357421875
683,1.946,IMU2,0.7317073170731708,19.32926829268293,5.060975609756098,-0.9736328125,0.080078125,0.126953125
684,1.956,IMU0,-2.7439024390243905,18.353658536585368,2.378048780487805,-1.0,0.072265625,0.0234375
685,1.956,IMU1,-0.48780487804878053,17.439024390243905,2.5609756097560976,-1.0029296875,0.06640625,0.02734375
686,1.956,IMU2,-1.4634146341463417,18.84146341463415,2.0121951219512195,-1.01171875,0.06640625,0.025390625
687,1.966,IMU0,0.7926829268292683,17.682926829268293,8.475609756097562,-1.0107421875,0.123046875,0.0322265625
688,1.966,IMU1,3.231707317073171,16.646341463414636,8.902439024390244,-1.00390625,0.119140625,-0.001953125
689,1.966,IMU2,2.25609756097561,18.231707317073173,8.231707317073171,-1.0009765625,0.119140625,-0.00390625
690,1.976,IMU0,5.3048780487804885,21.76829268292683,16.82926829268293,-0.92578125,0.1181640625,0.0849609375
691,1.976,IMU1,7.25609756097561,20.426829268292686,17.073170731707318,-0.91796875,0.1142578125,0.0859375
692,1.976,IMU2,6.341463414634147,22.073170731707318,16.463414634146343,-0.923828125,0.1142578125,0.0830078125
693,1.986,IMU0,6.097560975609756,28.719512195121954,18.29268292682927,-0.8876953125,0.0849609375,0.052734375
694,1.986,IMU1,7.926829268292684,27.5609756097561,18.53658536585366,-0.88671875,0.0810546875,0.0546875
695,1.986,IMU2,7.073170731707318,28.963414634146343,17.926829268292686,-0.8955078125,0.0810546875,0.0517578125
696,1.996,IMU0,8.78048780487805,36.82926829268293,21.76829268292683,-0.8994140625,0.1142578125,-0.0205078125
697,1.996,IMU1,10.670731707317074,36.03658536585366,22.25609756097561,-0.8896484375,0.1123046875,-0.0078125
698,1.996,IMU2,9.756097560975611,37.31707317073171,21.707317073170735,-0.888671875,0.109375,-0.021484375
699,2.006,IMU0,12.195121951219512,45.487804878048784,28.84146341463415,-0.8701171875,0.0947265625,-0.0166015625
700,2.006,IMU1,14.085365853658537,44.81707317073171,29.26829268292683,-0.86328125,0.08984375,-0.009765625
701,2.006,IMU2,13.231707317073171,46.03658536585366,28.780487804878053,-0.865234375,0.0888671875,-0.0185546875
702,2.016,IMU0,13.109756097560977,52.37804878048781,30.487804878048784,-0.822265625,0.0517578125,-0.0166015625
703,2.016,IMU1,14.634146341463415,51.82926829268293,30.853658536585368,-0.822265625,0.0478515625,-0.0009765625
704,2.016,IMU2,13.963414634146343,53.04878048780488,30.365853658536587,-0.833984375,0.046875,-0.001953125
705,2.026,IMU0,12.378048780487806,62.19512195121952,25.914634146341466,-0.822265625,0.04296875,-0.06640625
706,2.026,IMU1,13.78048780487805,61.40243902439025,26.158536585365855,-0.82421875,0.03515625,-0.0595703125
707,2.026,IMU2,13.29268292682927,62.560975609756106,25.670731707317074,-0.8369140625,0.033203125,-0.0556640625
708,2.036,IMU0,10.548780487804878,66.70731707317074,22.682926829268293,-0.8212890625,0.0556640625,-0.037109375
709,2.036,IMU1,12.134146341463415,65.85365853658537,22.926829268292686,-0.826171875,0.0419921875,-0.037109375
710,2.036,IMU2,11.890243902439025,67.19512195121952,22.378048780487806,-0.83984375,0.0400390625,-0.0390625
711,2.046,IMU0,9.085365853658537,69.14634146341464,19.573170731707318,-0.796875,0.0654296875,-0.0654296875
712,2.046,IMU1,10.731707317073171,68.04878048780489,19.939024390243905,-0.796875,0.060546875,-0.0712890625
713,2.046,IMU2,10.487804878048781,69.39024390243902,19.451219512195124,-0.8076171875,0.0595703125,-0.078125
714,2.056,IMU0,12.073170731707318,70.91463414634147,18.170731707317074,-0.7255859375,0.09375,-0.076171875
715,2.056,IMU1,13.841463414634148,69.81707317073172,18.53658536585366,-0.72265625,0.0849609375,-0.1005859375
716,2.056,IMU2,13.658536585365855,71.03658536585367,18.04878048780488,-0.73046875,0.0830078125,-0.1181640625
717,2.066,IMU0,14.207317073170733,67.07317073170732,18.29268292682927,-0.5947265625,0.1162109375,-0.0693359375
718,2.066,IMU1,15.853658536585368,65.91463414634147,18.597560975609756,-0.591796875,0.11328125,-0.0712890625
719,2.066,IMU2,15.426829268292684,66.95121951219512,18.10975609756098,-0.59765625,0.107421875,-0.076171875
720,2.076,IMU0,14.390243902439027,59.69512195121952,15.060975609756099,-0.5,0.1025390625,-0.123046875
721,2.076,IMU1,16.097560975609756,58.65853658536586,15.426829268292684,-0.50390625,0.1064453125,-0.123046875
722,2.076,IMU2,15.54878048780488,59.75609756097562,15.000000000000002,-0.513671875,0.10546875,-0.1357421875
723,2.086,IMU0,15.426829268292684,52.926829268292686,14.02439024390244,-0.482421875,0.1279296875,-0.177734375
724,2.086,IMU1,17.195121951219512,52.19512195121952,14.390243902439027,-0.482421875,0.1220703125,-0.1796875
725,2.086,IMU2,16.646341463414636,53.47560975609757,13.902439024390246,-0.486328125,0.11328125,-0.1787109375
726,2.096,IMU0,18.10975609756098,48.29268292682927,16.52439024390244,-0.4697265625,0.12890625,-0.234375
727,2.096,IMU1,19.878048780487806,47.6829268292683,16.890243902439025,-0.4716796875,0.1201171875,-0.244140625
728,2.096,IMU2,19.451219512195124,48.963414634146346,16.463414634146343,-0.4755859375,0.111328125,-0.2373046875
729,2.106,IMU0,22.378048780487806,49.75609756097561,20.121951219512198,-0.46875,0.1279296875,-0.173828125
730,2.106,IMU1,24.146341463414636,48.78048780487805,20.670731707317074,-0.4619140625,0.126953125,-0.1845703125
731,2.106,IMU2,23.84146341463415,49.51219512195122,20.365853658536587,-0.4599609375,0.119140625,-0.1962890625
732,2.116,IMU0,27.134146341463417,48.65853658536586,24.878048780487806,-0.41796875,0.125,-0.2861328125
733,2.116,IMU1,29.08536585365854,48.04878048780488,25.365853658536587,-0.416015625,0.126953125,-0.2919921875
734,2.116,IMU2,28.84146341463415,49.268292682926834,24.939024390243905,-0.4169921875,0.1220703125,-0.3115234375
735,2.126,IMU0,30.853658536585368,51.82926829268293,26.89024390243903,-0.3681640625,0.1181640625,-0.333984375
736,2.126,IMU1,32.5609756097561,51.34146341463415,27.439024390243905,-0.3662109375,0.12109375,-0.3310546875
737,2.126,IMU2,32.07317073170732,52.50000000000001,27.073170731707318,-0.369140625,0.115234375,-0.3193359375
738,2.136,IMU0,33.71951219512196,56.03658536585366,27.073170731707318,-0.3310546875,0.05859375,-0.388671875
739,2.136,IMU1,35.487804878048784,55.97560975609757,27.621951219512198,-0.33984375,0.0576171875,-0.3818359375
740,2.136,IMU2,35.243902439024396,57.6829268292683,27.25609756097561,-0.353515625,0.05078125,-0.37890625
741,2.146,IMU0,37.19512195121951,60.426829268292686,26.463414634146343,-0.296875,0.0517578125,-0.35546875
742,2.146,IMU1,38.84146341463415,60.00000000000001,27.073170731707318,-0.30078125,0.0478515625,-0.3515625
743,2.146,IMU2,38.53658536585366,61.21951219512196,26.76829268292683,-0.3134765625,0.0341796875,-0.3408203125
744,2.156,IMU0,38.41463414634147,63.84146341463415,23.170731707317074,-0.251953125,0.0712890625,-0.3359375
745,2.156,IMU1,40.0,63.47560975609757,23.719512195121954,-0.2607421875,0.0673828125,-0.333984375
746,2.156,IMU2,39.69512195121951,64.69512195121952,23.29268292682927,-0.27734375,0.0498046875,-0.3095703125
747,2.166,IMU0,37.37804878048781,62.926829268292686,17.98780487804878,-0.232421875,0.0712890625,-0.2529296875
748,2.166,IMU1,38.84146341463415,62.19512195121952,18.475609756097562,-0.23828125,0.0703125,-0.2529296875
749,2.166,IMU2,38.47560975609756,62.804878048780495,17.98780487804878,-0.2490234375,0.052734375,-0.255859375
750,2.176,IMU0,38.47560975609756,64.08536585365854,16.34146341463415,-0.287109375,0.06640625,-0.2900390625
751,2.176,IMU1,40.0609756097561,63.84146341463415,16.82926829268293,-0.2939453125,0.0712890625,-0.2822265625
752,2.176,IMU2,39.75609756097561,65.1219512195122,16.463414634146343,-0.3046875,0.0654296875,-0.2744140625
753,2.186,IMU0,40.487804878048784,64.39024390243902,16.585365853658537,-0.30078125,0.1142578125,-0.2421875
754,2.186,IMU1,41.951219512195124,64.02439024390245,17.25609756097561,-0.2958984375,0.119140625,-0.2412109375
755,2.186,IMU2,41.646341463414636,64.87804878048782,17.012195121951223,-0.2939453125,0.1171875,-0.224609375
756,2.196,IMU0,42.743902439024396,60.1219512195122,20.365853658536587,-0.283203125,0.109375,-0.2490234375
757,2.196,IMU1,44.146341463414636,59.63414634146342,21.03658536585366,-0.2880859375,0.1103515625,-0.2529296875
758,2.196,IMU2,43.59756097560976,60.487804878048784,20.79268292682927,-0.2998046875,0.099609375,-0.265625
759,2.206,IMU0,40.79268292682927,58.47560975609757,20.0609756097561,-0.2861328125,0.1298828125,-0.228515625
760,2.206,IMU1,42.13414634146342,58.10975609756098,20.60975609756098,-0.291015625,0.13671875,-0.21875
761,2.206,IMU2,41.40243902439025,59.024390243902445,20.0609756097561,-0.298828125,0.1357421875,-0.220703125
762,2.216,IMU0,39.93902439024391,52.13414634146342,19.512195121951223,-0.333984375,0.1611328125,-0.25390625
763,2.216,IMU1,41.524390243902445,51.82926829268293,20.0609756097561,-0.337890625,0.154296875,-0.248046875
764,2.216,IMU2,41.09756097560976,53.29268292682927,19.695121951219512,-0.3505859375,0.1396484375,-0.2333984375
765,2.226,IMU0,41.03658536585366,50.304878048780495,24.02439024390244,-0.41796875,0.1787109375,-0.185546875
766,2.226,IMU1,42.743902439024396,49.63414634146342,24.634146341463417,-0.416015625,0.1796875,-0.1904296875
767,2.226,IMU2,42.50000000000001,50.1829268292683,24.695121951219516,-0.4248046875,0.189453125,-0.208984375
768,2.236,IMU0,44.69512195121952,43.84146341463415,33.78048780487805,-0.431640625,0.169921875,-0.1044921875
769,2.236,IMU1,46.463414634146346,42.926829268292686,34.390243902439025,-0.427734375,0.1748046875,-0.0986328125
770,2.236,IMU2,45.85365853658537,42.6219512195122,34.268292682926834,-0.421875,0.181640625,-0.1123046875
771,2.246,IMU0,45.85365853658537,38.47560975609756,40.1829268292683,-0.447265625,0.2099609375,-0.1611328125
772,2.246,IMU1,47.86585365853659,37.743902439024396,40.73170731707317,-0.4423828125,0.2119140625,-0.1669921875
773,2.246,IMU2,47.37804878048781,38.41463414634147,40.79268292682927,-0.43359375,0.2060546875,-0.177734375
774,2.256,IMU0,48.23170731707317,32.987804878048784,48.170731707317074,-0.466796875,0.18359375,-0.109375
775,2.256,IMU1,50.36585365853659,32.25609756097561,48.65853658536586,-0.4609375,0.18359375,-0.1142578125
776,2.256,IMU2,49.69512195121952,32.6219512195122,48.84146341463415,-0.455078125,0.1748046875,-0.138671875
777,2.266,IMU0,51.768292682926834,27.500000000000004,57.560975609756106,-0.4580078125,0.2001953125,-0.15625
778,2.266,IMU1,54.207317073170735,27.195121951219516,57.987804878048784,-0.45703125,0.19921875,-0.1572265625
779,2.266,IMU2,53.47560975609757,27.987804878048784,58.10975609756098,-0.4541015625,0.193359375,-0.1611328125
780,2.276,IMU0,52.86585365853659,21.585365853658537,65.54878048780489,-0.4453125,0.228515625,-0.140625
781,2.276,IMU1,55.365853658536594,21.097560975609756,65.91463414634147,-0.439453125,0.2255859375,-0.1435546875
782,2.276,IMU2,54.57317073170732,21.463414634146343,66.15853658536587,-0.4345703125,0.2099609375,-0.154296875
783,2.286,IMU0,54.024390243902445,15.731707317073171,76.09756097560977,-0.44140625,0.236328125,-0.171875
784,2.286,IMU1,56.34146341463415,15.731707317073171,75.54878048780489,-0.435546875,0.2333984375,-0.1728515625
785,2.286,IMU2,55.426829268292686,16.158536585365855,75.91463414634147,-0.4248046875,0.224609375,-0.1767578125
786,2.296,IMU0,55.91463414634147,12.01219512195122,86.03658536585367,-0.4150390625,0.1962890625,-0.169921875
787,2.296,IMU1,58.29268292682927,11.76829268292683,85.67073170731707,-0.4130859375,0.1982421875,-0.1689453125
788,2.296,IMU2,57.31707317073171,12.256097560975611,85.79268292682927,-0.4072265625,0.2021484375,-0.1708984375
789,2.306,IMU0,57.13414634146342,12.682926829268293,91.46341463414635,-0.345703125,0.1689453125,-0.2353515625
790,2.306,IMU1,59.69512195121952,11.890243902439025,91.46341463414635,-0.3544921875,0.1826171875,-0.2314453125
791,2.306,IMU2,58.59756097560976,12.926829268292684,91.28048780487806,-0.3525390625,0.171875,-0.234375
792,2.316,IMU0,56.03658536585366,12.439024390243903,91.82926829268294,-0.3173828125,0.1513671875,-0.2216796875
793,2.316,IMU1,58.84146341463415,12.865853658536587,91.70731707317074,-0.322265625,0.158203125,-0.1923828125
794,2.316,IMU2,57.560975609756106,12.865853658536587,91.58536585365854,-0.32421875,0.150390625,-0.20703125
795,2.326,IMU0,53.23170731707317,12.073170731707318,90.00000000000001,-0.2841796875,0.166015625,-0.2587890625
796,2.326,IMU1,56.40243902439025,11.585365853658537,90.48780487804879,-0.3017578125,0.16015625,-0.23828125
797,2.326,IMU2,54.87804878048781,12.378048780487806,89.81707317073172,-0.3095703125,0.166015625,-0.2587890625
798,2.336,IMU0,51.524390243902445,15.060975609756099,85.1219512195122,-0.240234375,0.1259765625,-0.2578125
799,2.336,IMU1,54.207317073170735,14.207317073170733,85.91463414634147,-0.2646484375,0.1376953125,-0.2587890625
800,2.336,IMU2,52.987804878048784,15.30487804878049,84.93902439024392,-0.2646484375,0.126953125,-0.2568359375
801,2.346,IMU0,47.25609756097561,15.914634146341465,78.04878048780489,-0.2099609375,0.119140625,-0.2578125
802,2.346,IMU1,49.63414634146342,15.426829268292684,78.04878048780489,-0.22265625,0.107421875,-0.263671875
803,2.346,IMU2,48.65853658536586,16.219512195121954,77.8658536585366,-0.236328125,0.119140625,-0.2412109375
804,2.356,IMU0,41.21951219512196,14.573170731707318,69.14634146341464,-0.2021484375,0.1640625,-0.251953125
805,2.356,IMU1,43.65853658536586,13.902439024390246,69.02439024390245,-0.2275390625,0.1552734375,-0.2392578125
806,2.356,IMU2,42.6829268292683,14.878048780487806,68.84146341463415,-0.2333984375,0.1611328125,-0.2451171875
807,2.366,IMU0,37.80487804878049,14.329268292682928,60.85365853658537,-0.177734375,0.12890625,-0.26171875
808,2.366,IMU1,40.243902439024396,13.719512195121952,60.79268292682927,-0.1923828125,0.126953125,-0.267578125
809,2.366,IMU2,39.024390243902445,14.634146341463415,60.60975609756098,-0.20703125,0.125,-0.26171875
810,2.376,IMU0,34.57317073170732,14.878048780487806,52.50000000000001,-0.169921875,0.138671875,-0.2353515625
811,2.376,IMU1,36.951219512195124,14.085365853658537,52.43902439024391,-0.181640625,0.146484375,-0.23046875
812,2.376,IMU2,35.85365853658537,15.182926829268293,52.25609756097561,-0.19921875,0.13671875,-0.23046875
813,2.386,IMU0,31.402439024390247,12.560975609756099,46.28048780487805,-0.1533203125,0.15625,-0.2333984375
814,2.386,IMU1,33.90243902439025,11.585365853658537,46.34146341463415,-0.166015625,0.1630859375,-0.2333984375
815,2.386,IMU2,32.80487804878049,12.74390243902439,46.09756097560976,-0.1787109375,0.1552734375,-0.2314453125
816,2.396,IMU0,27.987804878048784,8.048780487804878,40.1829268292683,-0.1083984375,0.16015625,-0.255859375
817,2.396,IMU1,30.487804878048784,7.195121951219513,40.1829268292683,-0.1220703125,0.1630859375,-0.2568359375
818,2.396,IMU2,29.39024390243903,8.414634146341465,39.81707317073171,-0.13671875,0.15625,-0.25390625
819,2.406,IMU0,22.5609756097561,5.182926829268293,33.109756097560975,-0.0908203125,0.1572265625,-0.2822265625
820,2.406,IMU1,25.000000000000004,4.390243902439025,33.170731707317074,-0.1044921875,0.1611328125,-0.2841796875
821,2.406,IMU2,23.902439024390247,5.609756097560976,32.80487804878049,-0.115234375,0.15234375,-0.2822265625
822,2.416,IMU0,18.04878048780488,3.1097560975609757,27.134146341463417,-0.1259765625,0.154296875,-0.2509765625
823,2.416,IMU1,20.426829268292686,2.1341463414634148,27.134146341463417,-0.1396484375,0.1591796875,-0.24609375
824,2.416,IMU2,19.207317073170735,3.414634146341464,26.76829268292683,-0.1494140625,0.150390625,-0.2451171875
825,2.426,IMU0,16.585365853658537,1.2195121951219514,24.634146341463417,-0.1611328125,0.1484375,-0.255859375
826,2.426,IMU1,18.963414634146343,0.1829268292682927,24.75609756097561,-0.1748046875,0.15625,-0.2451171875
827,2.426,IMU2,17.743902439024392,1.5853658536585367,24.32926829268293,-0.185546875,0.1474609375,-0.2431640625
828,2.436,IMU0,15.060975609756099,0.12195121951219513,22.134146341463417,-0.158203125,0.1806640625,-0.265625
829,2.436,IMU1,17.439024390243905,-0.9146341463414634,22.25609756097561,-0.1650390625,0.18359375,-0.2607421875
830,2.436,IMU2,16.158536585365855,0.5487804878048781,21.82926829268293,-0.169921875,0.17578125,-0.2587890625
831,2.446,IMU0,14.939024390243905,0.5487804878048781,21.158536585365855,-0.1875,0.2021484375,-0.2578125
832,2.446,IMU1,17.25609756097561,-0.48780487804878053,21.34146341463415,-0.193359375,0.20703125,-0.25390625
833,2.446,IMU2,16.03658536585366,0.853658536585366,20.853658536585368,-0.1953125,0.19921875,-0.2509765625
834,2.456,IMU0,17.25609756097561,2.682926829268293,23.59756097560976,-0.19921875,0.185546875,-0.2353515625
835,2.456,IMU1,19.634146341463417,1.524390243902439,23.84146341463415,-0.201171875,0.189453125,-0.2333984375
836,2.456,IMU2,18.414634146341466,2.804878048780488,23.353658536585368,-0.2001953125,0.181640625,-0.23046875
837,2.466,IMU0,19.75609756097561,3.963414634146342,26.707317073170735,-0.1669921875,0.1884765625,-0.255859375
838,2.466,IMU1,22.134146341463417,2.9268292682926833,26.89024390243903,-0.171875,0.1943359375,-0.2548828125
839,2.466,IMU2,20.975609756097562,4.146341463414634,26.34146341463415,-0.17578125,0.1875,-0.25390625
840,2.476,IMU0,20.0,5.2439024390243905,27.500000000000004,-0.138671875,0.193359375,-0.2607421875
841,2.476,IMU1,22.439024390243905,4.329268292682928,27.621951219512198,-0.1455078125,0.201171875,-0.255859375
842,2.476,IMU2,21.219512195121954,5.609756097560976,27.134146341463417,-0.15234375,0.1943359375,-0.255859375
843,2.486,IMU0,19.878048780487806,6.158536585365854,28.780487804878053,-0.125,0.2109375,-0.23828125
844,2.486,IMU1,22.31707317073171,5.182926829268293,28.963414634146343,-0.130859375,0.2177734375,-0.240234375
845,2.486,IMU2,21.158536585365855,6.402439024390245,28.414634146341466,-0.134765625,0.2099609375,-0.2431640625
846,2.496,IMU0,19.75609756097561,6.341463414634147,29.32926829268293,-0.13671875,0.2236328125,-0.2373046875
847,2.496,IMU1,22.073170731707318,5.426829268292684,29.573170731707318,-0.1416015625,0.23046875,-0.236328125
848,2.496,IMU2,20.975609756097562,6.585365853658537,29.02439024390244,-0.1435546875,0.2216796875,-0.2470703125
849,2.506,IMU0,21.463414634146343,6.585365853658537,30.30487804878049,-0.1484375,0.212890625,-0.2275390625
850,2.506,IMU1,23.84146341463415,5.670731707317073,30.487804878048784,-0.154296875,0.2158203125,-0.2294921875
851,2.506,IMU2,22.682926829268293,6.7682926829268295,30.0609756097561,-0.1552734375,0.203125,-0.2421875
852,2.516,IMU0,22.378048780487806,6.890243902439025,31.951219512195124,-0.16015625,0.224609375,-0.2607421875
853,2.516,IMU1,25.000000000000004,6.036585365853659,32.13414634146342,-0.1669921875,0.2255859375,-0.267578125
854,2.516,IMU2,23.84146341463415,7.317073170731708,31.707317073170735,-0.1689453125,0.2119140625,-0.27734375
855,2.526,IMU0,22.865853658536587,6.646341463414635,34.207317073170735,-0.1484375,0.2529296875,-0.2373046875
856,2.526,IMU1,25.426829268292686,5.7926829268292686,34.451219512195124,-0.154296875,0.255859375,-0.2490234375
857,2.526,IMU2,24.32926829268293,7.01219512195122,34.08536585365854,-0.154296875,0.2451171875,-0.2646484375
858,2.536,IMU0,24.390243902439025,7.378048780487806,37.31707317073171,-0.162109375,0.2294921875,-0.240234375
859,2.536,IMU1,26.76829268292683,6.646341463414635,37.5609756097561,-0.1650390625,0.232421875,-0.2470703125
860,2.536,IMU2,25.670731707317074,7.865853658536586,37.19512195121951,-0.1640625,0.22265625,-0.2529296875
861,2.546,IMU0,25.365853658536587,6.097560975609756,40.54878048780488,-0.1611328125,0.2001953125,-0.2275390625
862,2.546,IMU1,27.743902439024392,5.2439024390243905,40.670731707317074,-0.16796875,0.2041015625,-0.2255859375
863,2.546,IMU2,26.463414634146343,6.463414634146342,40.304878048780495,-0.1708984375,0.197265625,-0.21875
864,2.556,IMU0,25.670731707317074,4.634146341463415,43.90243902439025,-0.1689453125,0.2294921875,-0.2236328125
865,2.556,IMU1,28.10975609756098,3.780487804878049,44.146341463414636,-0.169921875,0.2333984375,-0.216796875
866,2.556,IMU2,26.82926829268293,4.939024390243903,43.963414634146346,-0.16796875,0.228515625,-0.2119140625
867,2.566,IMU0,27.865853658536587,3.536585365853659,48.23170731707317,-0.1240234375,0.2421875,-0.19921875
868,2.566,IMU1,30.426829268292686,2.6219512195121952,48.47560975609756,-0.1259765625,0.248046875,-0.197265625
869,2.566,IMU2,29.146341463414636,3.7195121951219514,48.170731707317074,-0.1279296875,0.2421875,-0.201171875
870,2.576,IMU0,30.000000000000004,1.6463414634146343,50.487804878048784,-0.0966796875,0.228515625,-0.2041015625
871,2.576,IMU1,32.5,0.7317073170731708,50.54878048780488,-0.1025390625,0.234375,-0.2060546875
872,2.576,IMU2,31.280487804878053,1.6463414634146343,50.1829268292683,-0.1044921875,0.2265625,-0.2158203125
873,2.586,IMU0,32.743902439024396,-0.3658536585365854,51.09756097560976,-0.0830078125,0.2177734375,-0.2236328125
874,2.586,IMU1,35.36585365853659,-1.1585365853658538,51.09756097560976,-0.087890625,0.2236328125,-0.224609375
875,2.586,IMU2,34.08536585365854,-0.1829268292682927,50.79268292682927,-0.0927734375,0.21484375,-0.23828125
876,2.596,IMU0,36.768292682926834,-1.1585365853658538,51.951219512195124,-0.0810546875,0.26171875,-0.2392578125
877,2.596,IMU1,39.451219512195124,-2.0121951219512195,52.01219512195122,-0.0859375,0.267578125,-0.2529296875
878,2.596,IMU2,38.53658536585366,-1.1585365853658538,51.524390243902445,-0.0869140625,0.2548828125,-0.271484375
879,2.606,IMU0,41.646341463414636,-0.9756097560975611,52.50000000000001,-0.0517578125,0.234375,-0.2529296875
880,2.606,IMU1,44.32926829268293,-1.6463414634146343,52.6219512195122,-0.056640625,0.244140625,-0.2548828125
881,2.606,IMU2,43.23170731707317,-0.6097560975609757,52.19512195121952,-0.0595703125,0.2373046875,-0.2734375
882,2.616,IMU0,46.463414634146346,-0.6097560975609757,52.07317073170732,-0.0322265625,0.1748046875,-0.271484375
883,2.616,IMU1,49.146341463414636,-1.0975609756097562,52.25609756097561,-0.041015625,0.18359375,-0.26953125
884,2.616,IMU2,47.86585365853659,-0.06097560975609757,51.82926829268293,-0.0478515625,0.181640625,-0.259765625
885,2.626,IMU0,48.65853658536586,-1.402439024390244,50.79268292682927,-0.0185546875,0.1806640625,-0.2587890625
886,2.626,IMU1,51.34146341463415,-2.1341463414634148,51.03658536585366,-0.02734375,0.19140625,-0.2578125
887,2.626,IMU2,50.1219512195122,-1.4634146341463417,50.54878048780488,-0.0302734375,0.1953125,-0.2529296875
888,2.636,IMU0,51.03658536585366,-2.3170731707317076,48.963414634146346,-0.017578125,0.1875,-0.2666015625
889,2.636,IMU1,53.65853658536586,-3.048780487804878,49.207317073170735,-0.0263671875,0.193359375,-0.2734375
890,2.636,IMU2,52.6219512195122,-2.439024390243903,48.78048780487805,-0.03125,0.1884765625,-0.2822265625
891,2.646,IMU0,53.71951219512196,-1.6463414634146343,47.37804878048781,-0.013671875,0.1494140625,-0.3017578125
892,2.646,IMU1,56.21951219512196,-2.0121951219512195,47.6829268292683,-0.0205078125,0.150390625,-0.302734375
893,2.646,IMU2,55.0609756097561,-0.6707317073170732,47.37804878048781,-0.0263671875,0.1298828125,-0.302734375
894,2.656,IMU0,54.32926829268293,0.5487804878048781,47.37804878048781,-0.013671875,0.1123046875,-0.2841796875
895,2.656,IMU1,56.768292682926834,0.1829268292682927,47.804878048780495,-0.0224609375,0.1181640625,-0.2802734375
896,2.656,IMU2,55.60975609756098,1.0365853658536586,47.37804878048781,-0.033203125,0.1123046875,-0.28125
897,2.666,IMU0,52.987804878048784,0.24390243902439027,45.426829268292686,0.0166015625,0.158203125,-0.2802734375
898,2.666,IMU1,55.54878048780488,-0.30487804878048785,45.670731707317074,0.0078125,0.1630859375,-0.287109375
899,2.666,IMU2,54.51219512195122,0.24390243902439027,44.93902439024391,0.0029296875,0.14453125,-0.3037109375
900,2.676,IMU0,51.524390243902445,-0.06097560975609757,42.19512195121951,0.044921875,0.12109375,-0.2880859375
901,2.676,IMU1,53.963414634146346,-0.426829268292683,42.50000000000001,0.03515625,0.1240234375,-0.2890625
902,2.676,IMU2,52.804878048780495,0.7317073170731708,41.82926829268293,0.025390625,0.1064453125,-0.306640625
903,2.686,IMU0,49.57317073170732,2.8658536585365857,37.743902439024396,0.05078125,0.0859375,-0.314453125
904,2.686,IMU1,51.82926829268293,2.378048780487805,37.987804878048784,0.037109375,0.091796875,-0.302734375
905,2.686,IMU2,50.243902439024396,3.353658536585366,37.13414634146342,0.0244140625,0.0869140625,-0.29296875
906,2.696,IMU0,46.463414634146346,2.25609756097561,29.573170731707318,0.0595703125,0.1083984375,-0.302734375
907,2.696,IMU1,48.65853658536586,1.707317073170732,29.75609756097561,0.046875,0.11328125,-0.294921875
908,2.696,IMU2,47.19512195121952,2.6219512195121952,28.84146341463415,0.0283203125,0.103515625,-0.287109375
909,2.706,IMU0,44.024390243902445,3.7195121951219514,21.463414634146343,0.0556640625,0.068359375,-0.3193359375
910,2.706,IMU1,46.15853658536586,3.2926829268292686,21.76829268292683,0.044921875,0.0693359375,-0.30859375
911,2.706,IMU2,44.75609756097561,4.573170731707317,21.28048780487805,0.0234375,0.0517578125,-0.291015625
912,2.716,IMU0,42.43902439024391,5.060975609756098,16.463414634146343,0.0556640625,0.0556640625,-0.29296875
913,2.716,IMU1,44.51219512195122,4.634146341463415,16.76829268292683,0.0439453125,0.0634765625,-0.287109375
914,2.716,IMU2,43.23170731707317,5.853658536585367,15.914634146341465,0.03125,0.0537109375,-0.287109375
915,2.726,IMU0,39.32926829268293,5.0,9.878048780487806,0.0927734375,0.0830078125,-0.2802734375
916,2.726,IMU1,41.40243902439025,4.207317073170732,10.060975609756099,0.0751953125,0.09375,-0.2763671875
917,2.726,IMU2,40.304878048780495,4.817073170731708,8.902439024390244,0.0576171875,0.08203125,-0.2802734375
918,2.736,IMU0,35.85365853658537,3.8414634146341466,2.0121951219512195,0.10546875,0.072265625,-0.2841796875
919,2.736,IMU1,37.926829268292686,3.1097560975609757,2.25609756097561,0.091796875,0.0771484375,-0.279296875
920,2.736,IMU2,36.707317073170735,4.2682926829268295,1.2195121951219514,0.076171875,0.0712890625,-0.2763671875
921,2.746,IMU0,33.59756097560976,2.8658536585365857,-4.451219512195122,0.0771484375,0.0205078125,-0.2919921875
922,2.746,IMU1,35.54878048780488,2.1341463414634148,-4.085365853658537,0.064453125,0.025390625,-0.283203125
923,2.746,IMU2,34.08536585365854,3.414634146341464,-4.939024390243903,0.0546875,0.0185546875,-0.2783203125
924,2.756,IMU0,30.365853658536587,2.1951219512195124,-11.219512195121952,0.05859375,0.0234375,-0.2861328125
925,2.756,IMU1,32.25609756097561,1.402439024390244,-10.853658536585368,0.044921875,0.0361328125,-0.2734375
926,2.756,IMU2,31.280487804878053,2.6219512195121952,-11.219512195121952,0.0322265625,0.0205078125,-0.2685546875
927,2.766,IMU0,24.573170731707318,0.30487804878048785,-17.073170731707318,0.044921875,0.078125,-0.2685546875
928,2.766,IMU1,26.463414634146343,-0.6097560975609757,-16.646341463414636,0.0361328125,0.0888671875,-0.2646484375
929,2.766,IMU2,25.243902439024392,0.7926829268292683,-17.5,0.025390625,0.0751953125,-0.2607421875
930,2.776,IMU0,22.378048780487806,0.9146341463414634,-19.146341463414636,0.0126953125,0.0888671875,-0.2451171875
931,2.776,IMU1,24.32926829268293,-0.06097560975609757,-18.719512195121954,0.0068359375,0.1015625,-0.2412109375
932,2.776,IMU2,23.29268292682927,1.402439024390244,-19.26829268292683,0.0,0.087890625,-0.240234375
933,2.786,IMU0,21.76829268292683,0.853658536585366,-20.0609756097561,0.0087890625,0.078125,-0.2451171875
934,2.786,IMU1,23.59756097560976,-0.06097560975609757,-19.634146341463417,0.001953125,0.0888671875,-0.2353515625
935,2.786,IMU2,22.621951219512198,1.3414634146341464,-20.182926829268293,-0.005859375,0.0771484375,-0.232421875
936,2.796,IMU0,20.121951219512198,1.402439024390244,-19.512195121951223,-0.015625,0.0888671875,-0.23046875
937,2.796,IMU1,22.012195121951223,0.48780487804878053,-19.085365853658537,-0.01953125,0.0966796875,-0.2255859375
938,2.796,IMU2,20.914634146341466,1.8902439024390245,-19.634146341463417,-0.0224609375,0.0859375,-0.2216796875
939,2.806,IMU0,19.146341463414636,2.682926829268293,-17.804878048780488,-0.0224609375,0.0830078125,-0.22265625
940,2.806,IMU1,21.097560975609756,1.707317073170732,-17.31707317073171,-0.025390625,0.0927734375,-0.216796875
941,2.806,IMU2,19.939024390243905,3.048780487804878,-17.865853658536587,-0.0263671875,0.0810546875,-0.2177734375
942,2.816,IMU0,18.78048780487805,2.682926829268293,-15.853658536585368,-0.005859375,0.0791015625,-0.228515625
943,2.816,IMU1,20.79268292682927,1.707317073170732,-15.426829268292684,-0.0107421875,0.0830078125,-0.224609375
944,2.816,IMU2,19.695121951219512,3.1097560975609757,-15.914634146341465,-0.0146484375,0.07421875,-0.2236328125
945,2.826,IMU0,18.231707317073173,3.658536585365854,-14.817073170731708,-0.0185546875,0.080078125,-0.201171875
946,2.826,IMU1,20.182926829268293,2.682926829268293,-14.390243902439027,-0.0205078125,0.0859375,-0.1962890625
947,2.826,IMU2,19.02439024390244,4.024390243902439,-14.878048780487806,-0.0234375,0.0771484375,-0.197265625
948,2.836,IMU0,15.853658536585368,3.536585365853659,-13.29268292682927,-0.009765625,0.080078125,-0.2119140625
949,2.836,IMU1,17.926829268292686,2.5609756097560976,-12.926829268292684,-0.0126953125,0.0859375,-0.208984375
950,2.836,IMU2,16.82926829268293,3.963414634146342,-13.414634146341465,-0.0185546875,0.076171875,-0.2080078125
951,2.846,IMU0,14.817073170731708,4.451219512195122,-12.195121951219512,-0.0205078125,0.0908203125,-0.1787109375
952,2.846,IMU1,16.82926829268293,3.7195121951219514,-11.890243902439025,-0.02734375,0.09765625,-0.173828125
953,2.846,IMU2,15.731707317073171,5.121951219512195,-12.378048780487806,-0.033203125,0.0869140625,-0.173828125
954,2.856,IMU0,14.146341463414636,5.0,-11.219512195121952,-0.0048828125,0.064453125,-0.177734375
955,2.856,IMU1,15.975609756097562,3.963414634146342,-10.853658536585368,-0.0087890625,0.0712890625,-0.169921875
956,2.856,IMU2,14.817073170731708,5.426829268292684,-11.341463414634147,-0.015625,0.060546875,-0.166015625
957,2.866,IMU0,13.719512195121952,6.036585365853659,-11.341463414634147,-0.0087890625,0.060546875,-0.1826171875
958,2.866,IMU1,15.670731707317074,5.2439024390243905,-11.036585365853659,-0.0126953125,0.0576171875,-0.1767578125
959,2.866,IMU2,14.634146341463415,6.707317073170732,-11.52439024390244,-0.017578125,0.0478515625,-0.1748046875
960,2.876,IMU0,11.951219512195124,6.158536585365854,-12.560975609756099,0.0126953125,0.046875,-0.2138671875
961,2.876,IMU1,14.146341463414636,4.878048780487806,-12.195121951219512,0.0107421875,0.05078125,-0.212890625
962,2.876,IMU2,13.109756097560977,6.402439024390245,-12.74390243902439,0.00390625,0.0400390625,-0.205078125
963,2.886,IMU0,9.634146341463415,7.195121951219513,-15.853658536585368,0.017578125,0.017578125,-0.205078125
964,2.886,IMU1,12.01219512195122,6.341463414634147,-15.30487804878049,0.0107421875,0.02734375,-0.1923828125
965,2.886,IMU2,10.914634146341465,7.8048780487804885,-15.79268292682927,0.0009765625,0.0166015625,-0.185546875
966,2.896,IMU0,7.378048780487806,8.048780487804878,-20.853658536585368,0.044921875,-0.01171875,-0.193359375
967,2.896,IMU1,9.695121951219512,6.829268292682928,-20.121951219512198,0.03125,0.0,-0.185546875
968,2.896,IMU2,8.536585365853659,8.414634146341465,-20.670731707317074,0.01953125,-0.0107421875,-0.177734375
969,2.906,IMU0,3.414634146341464,8.78048780487805,-28.10975609756098,0.068359375,-0.0146484375,-0.2080078125
970,2.906,IMU1,5.670731707317073,7.682926829268293,-27.195121951219516,0.056640625,-0.0078125,-0.2080078125
971,2.906,IMU2,4.51219512195122,9.26829268292683,-27.743902439024392,0.041015625,-0.0205078125,-0.203125
972,2.916,IMU0,-1.2195121951219514,8.414634146341465,-37.86585365853659,0.072265625,-0.0234375,-0.212890625
973,2.916,IMU1,1.0365853658536586,7.195121951219513,-36.768292682926834,0.0517578125,-0.0263671875,-0.1982421875
974,2.916,IMU2,-0.12195121951219513,8.902439024390244,-37.5,0.037109375,-0.0341796875,-0.1923828125
975,2.926,IMU0,-5.0,8.048780487804878,-47.19512195121952,0.0732421875,-0.0458984375,-0.205078125
976,2.926,IMU1,-3.536585365853659,6.707317073170732,-47.07317073170732,0.0556640625,-0.0517578125,-0.193359375
977,2.926,IMU2,-3.9024390243902443,8.597560975609756,-46.82926829268293,0.0390625,-0.0576171875,-0.185546875
978,2.936,IMU0,-10.487804878048781,7.621951219512196,-57.13414634146342,0.0703125,-0.0263671875,-0.2080078125
979,2.936,IMU1,-8.963414634146343,6.2804878048780495,-56.951219512195124,0.0517578125,-0.021484375,-0.2021484375
980,2.936,IMU2,-9.634146341463415,8.170731707317074,-56.82926829268293,0.0380859375,-0.029296875,-0.2021484375
981,2.946,IMU0,-15.000000000000002,8.353658536585366,-65.67073170731707,0.0751953125,-0.017578125,-0.2080078125
982,2.946,IMU1,-13.597560975609758,6.829268292682928,-65.48780487804879,0.0625,-0.0087890625,-0.1982421875
983,2.946,IMU2,-14.146341463414636,8.841463414634147,-65.54878048780489,0.046875,-0.0224609375,-0.1904296875
984,2.956,IMU0,-18.29268292682927,8.109756097560977,-74.32926829268294,0.0615234375,-0.0205078125,-0.2099609375
985,2.956,IMU1,-17.073170731707318,6.707317073170732,-74.14634146341464,0.048828125,-0.013671875,-0.201171875
986,2.956,IMU2,-17.5609756097561,8.719512195121952,-74.20731707317074,0.0341796875,-0.0185546875,-0.193359375
987,2.966,IMU0,-20.975609756097562,8.902439024390244,-80.2439024390244,0.0380859375,0.0107421875,-0.1953125
988,2.966,IMU1,-19.634146341463417,7.378048780487806,-80.0,0.0283203125,0.01953125,-0.19140625
989,2.966,IMU2,-20.426829268292686,9.26829268292683,-80.3658536585366,0.0205078125,0.01171875,-0.1845703125
990,2.976,IMU0,-22.926829268292686,9.756097560975611,-83.84146341463415,0.013671875,0.03125,-0.1845703125
991,2.976,IMU1,-21.646341463414636,8.109756097560977,-83.53658536585367,0.0048828125,0.0400390625,-0.181640625
992,2.976,IMU2,-22.378048780487806,10.30487804878049,-84.02439024390245,0.0009765625,0.029296875,-0.173828125
993,2.986,IMU0,-23.84146341463415,11.890243902439025,-85.48780487804879,0.015625,0.0302734375,-0.17578125
994,2.986,IMU1,-22.5609756097561,10.487804878048781,-85.1219512195122,0.0078125,0.0400390625,-0.1669921875
995,2.986,IMU2,-23.353658536585368,12.256097560975611,-85.60975609756099,0.0,0.0283203125,-0.171875
996,2.996,IMU0,-23.719512195121954,13.658536585365855,-85.48780487804879,-0.0087890625,0.0546875,-0.189453125
997,2.996,IMU1,-22.378048780487806,12.134146341463415,-85.0609756097561,-0.0107421875,0.0625,-0.1884765625
998,2.996,IMU2,-23.231707317073173,14.26829268292683,-85.85365853658537,-0.017578125,0.052734375,-0.1796875
999,3.006,IMU0,-23.59756097560976,16.03658536585366,-83.59756097560977,0.0068359375,0.068359375,-0.185546875
1000,3.006,IMU1,-22.31707317073171,14.634146341463415,-83.04878048780489,0.001953125,0.07421875,-0.1826171875
1001,3.006,IMU2,-23.170731707317074,16.34146341463415,-84.08536585365854,0.0078125,0.06640625,-0.185546875
1002,3.016,IMU0,-22.134146341463417,17.743902439024392,-80.48780487804879,0.0078125,0.0556640625,-0.1650390625
1003,3.016,IMU1,-20.914634146341466,16.402439024390244,-80.0,0.0048828125,0.064453125,-0.1611328125
1004,3.016,IMU2,-21.76829268292683,18.10975609756098,-80.79268292682927,0.00390625,0.0517578125,-0.1630859375
1005,3.026,IMU0,-21.52439024390244,18.902439024390244,-76.52439024390245,0.00390625,0.05078125,-0.1708984375
1006,3.026,IMU1,-20.182926829268293,17.378048780487806,-76.03658536585367,0.0078125,0.05859375,-0.1669921875
1007,3.026,IMU2,-21.03658536585366,19.32926829268293,-76.95121951219512,0.001953125,0.0478515625,-0.166015625
1008,3.036,IMU0,-22.926829268292686,20.426829268292686,-71.34146341463415,-0.005859375,0.0615234375,-0.1474609375
1009,3.036,IMU1,-21.646341463414636,18.84146341463415,-70.85365853658537,-0.0048828125,0.0693359375,-0.1484375
1010,3.036,IMU2,-22.439024390243905,20.914634146341466,-71.89024390243902,-0.00390625,0.056640625,-0.140625
1011,3.046,IMU0,-24.207317073170735,21.585365853658537,-66.89024390243902,-0.0009765625,0.0283203125,-0.154296875
1012,3.046,IMU1,-22.926829268292686,20.121951219512198,-66.46341463414635,-0.001953125,0.0361328125,-0.1494140625
1013,3.046,IMU2,-23.59756097560976,22.012195121951223,-67.25609756097562,0.0,0.029296875,-0.1455078125
1014,3.056,IMU0,-24.81707317073171,22.073170731707318,-63.963414634146346,0.0,0.0361328125,-0.166015625
1015,3.056,IMU1,-23.414634146341466,20.670731707317074,-63.65853658536586,-0.0009765625,0.044921875,-0.1591796875
1016,3.056,IMU2,-24.207317073170735,22.439024390243905,-64.32926829268293,-0.005859375,0.0361328125,-0.1611328125
1017,3.066,IMU0,-25.0609756097561,24.32926829268293,-61.95121951219513,-0.009765625,0.025390625,-0.1474609375
1018,3.066,IMU1,-23.78048780487805,22.743902439024392,-61.585365853658544,-0.0087890625,0.033203125,-0.14453125
1019,3.066,IMU2,-24.573170731707318,24.81707317073171,-62.25609756097562,-0.0185546875,0.0234375,-0.1396484375
1020,3.076,IMU0,-26.52439024390244,26.09756097560976,-61.09756097560976,0.0029296875,0.029296875,-0.158203125
1021,3.076,IMU1,-25.243902439024392,24.634146341463417,-60.79268292682927,0.0009765625,0.0361328125,-0.1552734375
1022,3.076,IMU2,-25.853658536585368,26.58536585365854,-61.40243902439025,-0.0087890625,0.02734375,-0.1484375
1023,3.086,IMU0,-27.621951219512198,28.963414634146343,-62.19512195121952,0.0009765625,0.013671875,-0.1484375
1024,3.086,IMU1,-26.402439024390247,27.500000000000004,-61.89024390243903,-0.0048828125,0.0224609375,-0.1435546875
1025,3.086,IMU2,-27.012195121951223,29.39024390243903,-62.50000000000001,-0.01171875,0.01171875,-0.140625
1026,3.096,IMU0,-28.658536585365855,32.01219512195122,-64.14634146341464,0.005859375,-0.0068359375,-0.154296875
1027,3.096,IMU1,-27.439024390243905,30.60975609756098,-63.84146341463415,0.0009765625,0.001953125,-0.1474609375
1028,3.096,IMU2,-28.10975609756098,32.37804878048781,-64.39024390243902,-0.0068359375,-0.0087890625,-0.1484375
1029,3.106,IMU0,-30.365853658536587,34.51219512195122,-67.13414634146342,0.0166015625,-0.001953125,-0.1650390625
1030,3.106,IMU1,-29.207317073170735,33.04878048780488,-66.95121951219512,0.0068359375,0.0068359375,-0.1611328125
1031,3.106,IMU2,-29.81707317073171,34.87804878048781,-67.43902439024392,0.0,-0.0029296875,-0.1552734375
1032,3.116,IMU0,-32.37804878048781,37.13414634146342,-71.82926829268294,0.0234375,-0.0234375,-0.154296875
1033,3.116,IMU1,-31.34146341463415,35.670731707317074,-71.64634146341464,0.013671875,-0.0146484375,-0.14453125
1034,3.116,IMU2,-31.76829268292683,37.5,-72.13414634146342,0.00390625,-0.0244140625,-0.1435546875
1035,3.126,IMU0,-35.91463414634147,37.926829268292686,-76.09756097560977,0.0302734375,-0.0361328125,-0.1533203125
1036,3.126,IMU1,-35.0,36.34146341463415,-75.91463414634147,0.0224609375,-0.029296875,-0.14453125
1037,3.126,IMU2,-35.487804878048784,38.41463414634147,-76.40243902439025,0.009765625,-0.037109375,-0.1435546875
1038,3.136,IMU0,-39.57317073170732,39.75609756097561,-79.45121951219512,0.0244140625,-0.0322265625,-0.162109375
1039,3.136,IMU1,-38.71951219512196,38.10975609756098,-79.14634146341464,0.0166015625,-0.0234375,-0.1533203125
1040,3.136,IMU2,-39.146341463414636,40.243902439024396,-79.69512195121952,0.0078125,-0.0341796875,-0.1484375
1041,3.146,IMU0,-44.32926829268293,39.93902439024391,-83.29268292682927,0.037109375,-0.0224609375,-0.150390625
1042,3.146,IMU1,-43.29268292682927,38.23170731707317,-83.10975609756099,0.0283203125,-0.0146484375,-0.14453125
1043,3.146,IMU2,-43.78048780487805,40.426829268292686,-83.65853658536587,0.0166015625,-0.0244140625,-0.13671875
1044,3.156,IMU0,-47.6219512195122,40.487804878048784,-86.64634146341464,0.046875,-0.01953125,-0.1396484375
1045,3.156,IMU1,-46.646341463414636,38.71951219512196,-86.46341463414635,0.0390625,-0.01171875,-0.1328125
1046,3.156,IMU2,-47.19512195121952,41.03658536585366,-87.07317073170732,0.025390625,-0.0205078125,-0.126953125
1047,3.166,IMU0,-52.50000000000001,41.524390243902445,-93.23170731707317,0.064453125,-0.05859375,-0.158203125
1048,3.166,IMU1,-51.82926829268293,39.57317073170732,-92.98780487804879,0.0517578125,-0.046875,-0.1416015625
1049,3.166,IMU2,-52.19512195121952,41.951219512195124,-93.59756097560977,0.037109375,-0.05859375,-0.1357421875
1050,3.176,IMU0,-58.17073170731708,40.670731707317074,-102.8048780487805,0.0546875,-0.0478515625,-0.1787109375
1051,3.176,IMU1,-57.43902439024391,38.78048780487805,-102.6829268292683,0.0439453125,-0.0419921875,-0.1640625
1052,3.176,IMU2,-57.743902439024396,41.21951219512196,-103.23170731707317,0.03125,-0.0458984375,-0.16015625
1053,3.186,IMU0,-62.37804878048781,41.82926829268293,-109.08536585365854,0.087890625,-0.0712890625,-0.158203125
1054,3.186,IMU1,-61.707317073170735,39.93902439024391,-108.84146341463416,0.0830078125,-0.0654296875,-0.1484375
1055,3.186,IMU2,-62.13414634146342,42.43902439024391,-109.51219512195122,0.0693359375,-0.0693359375,-0.142578125
1056,3.196,IMU0,-70.0609756097561,38.35365853658537,-119.26829268292684,0.185546875,-0.1396484375,-0.197265625
1057,3.196,IMU1,-69.45121951219512,36.28048780487805,-119.26829268292684,0.162109375,-0.1318359375,-0.18359375
1058,3.196,IMU2,-69.93902439024392,38.963414634146346,-119.81707317073172,0.1357421875,-0.138671875,-0.17578125
1059,3.206,IMU0,-81.89024390243902,35.91463414634147,-138.78048780487805,0.2021484375,-0.0966796875,-0.19921875
1060,3.206,IMU1,-81.46341463414635,33.53658536585366,-138.84146341463415,0.1787109375,-0.0810546875,-0.185546875
1061,3.206,IMU2,-81.82926829268294,36.40243902439025,-139.45121951219514,0.1533203125,-0.08984375,-0.1748046875
1062,3.216,IMU0,-90.3048780487805,34.69512195121951,-151.34146341463415,0.1474609375,-0.0830078125,-0.15625
1063,3.216,IMU1,-89.87804878048782,32.19512195121951,-151.28048780487805,0.1328125,-0.064453125,-0.1474609375
1064,3.216,IMU2,-90.3658536585366,35.1829268292683,-152.01219512195124,0.1142578125,-0.0703125,-0.1376953125
1065,3.226,IMU0,-94.45121951219512,31.52439024390244,-159.39024390243904,0.1298828125,-0.0625,-0.1669921875
1066,3.226,IMU1,-94.02439024390245,28.963414634146343,-159.26829268292684,0.1201171875,-0.048828125,-0.15234375
1067,3.226,IMU2,-94.51219512195122,32.07317073170732,-160.0609756097561,0.1083984375,-0.0537109375,-0.1435546875
1068,3.236,IMU0,-97.98780487804879,27.439024390243905,-165.7926829268293,0.1142578125,-0.0205078125,-0.158203125
1069,3.236,IMU1,-97.43902439024392,24.878048780487806,-165.609756097561,0.1064453125,-0.0068359375,-0.1513671875
1070,3.236,IMU2,-97.98780487804879,27.926829268292686,-166.46341463414635,0.095703125,-0.0126953125,-0.1455078125
1071,3.246,IMU0,-102.31707317073172,23.414634146341466,-170.2439024390244,0.1005859375,0.0087890625,-0.13671875
1072,3.246,IMU1,-101.76829268292684,20.60975609756098,-170.1219512195122,0.091796875,0.0234375,-0.130859375
1073,3.246,IMU2,-102.31707317073172,23.902439024390247,-171.03658536585368,0.0810546875,0.01953125,-0.1318359375
1074,3.256,IMU0,-104.45121951219514,20.975609756097562,-172.37804878048783,0.060546875,-0.0078125,-0.0966796875
1075,3.256,IMU1,-104.02439024390245,18.231707317073173,-172.25609756097563,0.0537109375,0.0078125,-0.0869140625
1076,3.256,IMU2,-104.63414634146342,21.463414634146343,-173.2317073170732,0.046875,0.0048828125,-0.087890625
1077,3.266,IMU0,-104.57317073170732,18.719512195121954,-172.6829268292683,0.041015625,0.00390625,-0.1162109375
1078,3.266,IMU1,-103.96341463414635,16.03658536585366,-172.5609756097561,0.037109375,0.0166015625,-0.107421875
1079,3.266,IMU2,-104.63414634146342,19.26829268292683,-173.53658536585368,0.033203125,0.0146484375,-0.1083984375
1080,3.276,IMU0,-105.67073170731709,16.28048780487805,-172.8048780487805,0.0263671875,0.01953125,-0.130859375
1081,3.276,IMU1,-104.93902439024392,13.475609756097562,-172.6219512195122,0.0263671875,0.03125,-0.1259765625
1082,3.276,IMU2,-105.60975609756099,16.76829268292683,-173.59756097560978,0.0234375,0.0283203125,-0.125
1083,3.286,IMU0,-106.58536585365854,14.26829268292683,-171.82926829268294,0.0283203125,0.0166015625,-0.1064453125
1084,3.286,IMU1,-105.85365853658537,11.463414634146343,-171.64634146341464,0.0263671875,0.029296875,-0.1044921875
1085,3.286,IMU2,-106.58536585365854,14.756097560975611,-172.6829268292683,0.021484375,0.0263671875,-0.1025390625
1086,3.296,IMU0,-106.58536585365854,12.317073170731708,-170.3048780487805,0.009765625,0.03125,-0.0947265625
1087,3.296,IMU1,-105.79268292682927,9.451219512195122,-170.1829268292683,0.0087890625,0.0498046875,-0.0966796875
1088,3.296,IMU2,-106.52439024390245,12.621951219512196,-171.21951219512198,0.005859375,0.0478515625,-0.0966796875
1089,3.306,IMU0,-106.89024390243904,9.939024390243903,-168.53658536585368,-0.0048828125,0.017578125,-0.0888671875
1090,3.306,IMU1,-106.03658536585367,7.134146341463415,-168.2926829268293,-0.005859375,0.0341796875,-0.0869140625
1091,3.306,IMU2,-106.95121951219514,10.365853658536587,-169.26829268292684,-0.009765625,0.03125,-0.0869140625
1092,3.316,IMU0,-107.6219512195122,8.353658536585366,-165.7317073170732,0.001953125,0.01953125,-0.0849609375
1093,3.316,IMU1,-106.76829268292684,5.548780487804878,-165.5487804878049,0.0,0.037109375,-0.0791015625
1094,3.316,IMU2,-107.6219512195122,8.658536585365855,-166.46341463414635,-0.0048828125,0.03515625,-0.0791015625
1095,3.326,IMU0,-108.59756097560977,5.609756097560976,-163.65853658536588,-0.0087890625,0.044921875,-0.10546875
1096,3.326,IMU1,-107.56097560975611,2.804878048780488,-163.53658536585368,-0.0087890625,0.0595703125,-0.099609375
1097,3.326,IMU2,-108.47560975609757,5.975609756097562,-164.45121951219514,-0.0126953125,0.0576171875,-0.1005859375
1098,3.336,IMU0,-109.39024390243904,5.060975609756098,-161.15853658536588,-0.0166015625,-0.0078125,-0.1005859375
1099,3.336,IMU1,-108.47560975609757,2.25609756097561,-161.09756097560978,-0.0205078125,0.0048828125,-0.0927734375
1100,3.336,IMU2,-109.39024390243904,5.548780487804878,-162.07317073170734,-0.0283203125,0.00390625,-0.087890625
1101,3.346,IMU0,-111.89024390243904,4.390243902439025,-161.34146341463415,-0.0029296875,0.0087890625,-0.125
