,ts,acc_x,acc_y,acc_z
0,-0.371,1,-1,0
1,-0.361,1,-1,0
2,-0.351,1,-1,0
3,-0.341,1,0,0
4,-0.331,1,0,0
5,-0.321,1,-1,0
6,-0.311,1,-1,0
7,-0.301,1,0,0
8,-0.291,1,-1,0
9,-0.281,1,0,0
10,-0.271,1,-1,0
11,-0.261,1,-1,0
12,-0.251,1,-1,0
13,-0.241,1,0,0
14,-0.231,1,0,0
15,-0.221,1,-1,0
16,-0.211,1,-1,0
17,-0.201,1,-1,0
18,-0.191,1,-1,0
19,-0.181,1,-1,0
20,-0.171,1,-1,0
21,-0.161,1,-1,0
22,-0.151,1,-1,0
23,-0.141,1,-1,0
24,-0.131,1,-1,0
25,-0.121,2,-1,0
26,-0.111,20,0,0
27,-0.101,27,-1,0
28,-0.091,26,-1,0
29,-0.081,24,0,0
30,-0.071,22,0,0
31,-0.061,22,0,0
32,-0.051,22,-1,0
33,-0.041,22,0,0
34,-0.031,22,-1,0
35,-0.021,21,0,0
36,-0.011,21,0,0
37,-0.001,21,-1,0
38,0.009,20,0,0
39,0.019,20,-1,0
40,0.029,20,0,0
41,0.039,20,0,0
42,0.049,20,-1,0
43,0.059,20,0,0
44,0.069,20,-1,0
45,0.079,20,-1,0
46,0.089,19,0,0
47,0.099,19,0,0
48,0.109,20,0,0
49,0.119,19,0,0
50,0.129,19,-1,0
51,0.139,20,0,0
52,0.149,20,-1,0
53,0.159,19,0,0
54,0.169,19,-1,0
55,0.179,20,0,0
56,0.189,19,0,0
57,0.199,19,0,0
58,0.209,18,-1,0
59,0.219,18,-1,0
60,0.229,19,-1,0
61,0.239,19,-1,0
62,0.249,19,-1,0
63,0.259,19,-1,0
64,0.269,19,-1,0
65,0.279,18,-1,0
66,0.289,19,-1,0
67,0.299,18,-1,0
68,0.309,18,-1,0
69,0.319,18,-1,0
70,0.329,19,-1,0
71,0.339,18,-1,0
72,0.349,18,-1,0
73,0.359,18,-1,0
74,0.369,18,-1,0
75,0.379,18,-1,0
76,0.389,19,-1,0
77,0.399,18,-1,0
78,0.409,18,-1,0
79,0.419,18,-2,0
80,0.429,18,-2,0
81,0.439,18,-1,0
82,0.449,18,-1,0
83,0.459,18,-1,0
84,0.469,18,-1,0
85,0.479,19,-1,0
86,0.489,18,-1,0
87,0.499,18,-1,0
88,0.509,18,-1,0
89,0.519,18,-1,0
90,0.529,18,-1,0
91,0.539,18,-1,0
92,0.549,18,-1,0
93,0.559,18,0,0
94,0.569,18,0,0
95,0.579,18,0,0
96,0.589,19,0,0
97,0.599,18,0,0
98,0.609,17,1,0
99,0.619,18,0,0
100,0.629,18,0,0
101,0.639,18,0,0
102,0.649,18,0,0
103,0.659,17,0,0
104,0.669,17,0,0
105,0.679,17,0,0
106,0.689,17,0,0
107,0.699,17,-1,0
108,0.709,17,-1,0
109,0.719,17,-1,0
110,0.729,17,0,0
111,0.739,17,-1,0
112,0.749,17,-1,0
113,0.759,17,-1,0
114,0.769,17,-1,0
115,0.779,18,-1,0
116,0.789,18,-2,0
117,0.799,17,-2,0
118,0.809,17,-2,0
119,0.819,17,-2,0
120,0.829,17,-2,0
121,0.839,16,-2,0
122,0.849,16,-1,0
123,0.859,16,-2,0
124,0.869,16,-1,0
125,0.879,16,-1,0
126,0.889,16,-1,0
127,0.899,16,-1,0
128,0.909,17,-2,0
129,0.919,16,-1,0
130,0.929,16,-1,0
131,0.939,16,-1,0
132,0.949,16,-1,0
133,0.959,16,-1,0
134,0.969,16,0,0
135,0.979,16,-1,0
136,0.989,15,-1,0
137,0.999,16,-1,0
138,1.009,15,-1,0
139,1.019,15,-1,0
140,1.029,15,-1,0
141,1.039,15,-1,0
142,1.049,15,-1,0
143,1.059,15,-1,0
144,1.069,15,-1,0
145,1.079,15,-1,0
146,1.089,14,-1,0
147,1.099,14,-2,0
148,1.109,14,-2,0
149,1.119,14,-2,0
150,1.129,14,-2,0
151,1.139,14,-1,0
152,1.149,14,-2,0
153,1.159,13,-2,0
154,1.169,13,-1,0
155,1.179,13,-1,0
156,1.189,13,-1,0
157,1.199,13,-1,0
158,1.209,13,-1,0
159,1.219,13,0,0
160,1.229,13,-1,0
161,1.239,13,-1,0
162,1.249,13,-1,0
163,1.259,13,-1,0
164,1.269,12,-1,0
165,1.279,13,-1,0
166,1.289,12,-1,0
167,1.299,12,-1,0
168,1.309,12,-1,0
169,1.319,12,-1,0
170,1.329,12,-1,0
171,1.339,12,-1,0
172,1.349,11,-1,0
173,1.359,11,-1,0
174,1.369,12,-1,0
175,1.379,16,-1,0
176,1.389,12,-1,0
177,1.399,12,-1,0
178,1.409,11,-1,0
179,1.419,11,-1,0
180,1.429,10,-1,0
181,1.439,10,-1,0
182,1.449,10,-1,0
183,1.459,9,-1,0
184,1.469,9,-1,0
185,1.479,8,0,0
186,1.489,8,-1,0
187,1.499,7,-1,0
188,1.509,6,-1,0
189,1.519,6,-1,0
190,1.529,6,-1,0
191,1.539,5,-1,0
192,1.549,5,-1,0
193,1.559,4,-1,0
194,1.569,4,-1,0
195,1.579,3,-1,0
196,1.589,3,-1,0
197,1.599,2,-1,0
198,1.609,1,-1,0
199,1.619,0,-1,0
200,1.629,0,-1,0
201,1.639,0,-1,0
202,1.649,0,-1,0
203,1.659,-1,-1,0
204,1.669,-1,-1,0
205,1.679,-1,-1,0
206,1.689,-2,-1,0
207,1.699,-2,-1,0
208,1.709,-2,-1,0
209,1.719,-2,-1,0
210,1.729,-2,-1,0
211,1.739,-2,-1,0
212,1.749,-2,-1,0
213,1.759,-2,-1,0
214,1.769,-3,-1,0
215,1.779,-3,-1,0
216,1.789,-3,-1,0
217,1.799,-3,-1,0
218,1.809,-3,-1,0
219,1.819,-3,-1,0
220,1.829,-3,-1,0
221,1.839,-3,-1,0
222,1.849,-3,-1,0
223,1.859,-3,-1,0
224,1.869,-3,-1,0
225,1.879,-3,-1,0
226,1.889,-3,-1,0
227,1.899,-4,-1,0
228,1.909,-4,-1,0
229,1.919,-4,-1,0
230,1.929,-4,-1,0
231,1.939,-4,-1,0
232,1.949,-4,-1,0
233,1.959,-3,-1,0
234,1.969,-3,-2,0
235,1.979,-4,-1,0
236,1.989,-4,-1,0
237,1.999,-3,-2,0
238,2.009,-4,-2,0
239,2.019,-4,-2,0
240,2.029,-4,-2,0
241,2.039,-4,-1,0
242,2.049,-4,-1,0
243,2.059,-4,-1,0
244,2.069,-4,-1,0
245,2.079,-4,-1,0
246,2.089,-4,-1,0
247,2.099,-4,-1,0
248,2.109,-4,-1,0
249,2.119,-4,-1,0
250,2.129,-4,-1,0
251,2.139,-4,-2,0
252,2.149,-4,-1,0
253,2.159,-3,-1,0
254,2.169,-3,-1,0
255,2.179,-4,-1,0
256,2.189,-4,-1,0
257,2.199,-4,-1,0
258,2.209,-4,-1,0
259,2.219,-4,-1,0
260,2.229,-4,-1,0
261,2.239,-4,-1,0
262,2.249,-4,-1,0
263,2.259,-3,-1,0
264,2.269,-4,-1,0
265,2.279,-4,-1,0
266,2.289,-4,-1,0
267,2.299,-4,-1,0
268,2.309,-4,-1,0
269,2.319,-4,-1,0
270,2.329,-4,-1,0
271,2.339,-4,-1,0
272,2.349,-4,-1,0
273,2.359,-4,-1,0
274,2.369,-4,-1,0
275,2.379,-4,-1,0
276,2.389,-4,-2,0
277,2.399,-4,-1,0
278,2.409,-4,-1,0
279,2.419,-4,-1,0
280,2.429,-4,-1,0
281,2.439,-4,-1,0
282,2.449,-4,-1,0
283,2.459,-4,-1,0
284,2.469,-4,-1,0
285,2.479,-4,-1,0
286,2.489,-4,-1,0
287,2.499,-4,-1,0
288,2.509,-4,-1,0
289,2.519,-4,-1,0
290,2.529,-4,-1,0
291,2.539,-3,-1,0
292,2.549,-3,-1,0
293,2.559,-4,-1,0
294,2.569,-4,-1,0
295,2.579,-4,-1,0
296,2.589,-3,-1,0
297,2.599,-3,-1,0
298,2.609,-4,-1,0
299,2.619,-4,-1,0
300,2.629,-3,-1,0
301,2.639,-3,-1,0
302,2.649,-3,-1,0
303,2.659,-3,-1,0
304,2.669,-3,-1,0
305,2.679,-3,-1,0
306,2.689,-3,-1,0
307,2.699,-3,-1,0
308,2.709,-3,-1,0
309,2.719,-3,-1,0
310,2.729,-3,-1,0
311,2.739,-3,-1,0
312,2.749,-4,-1,0
313,2.759,-4,-1,0
314,2.769,-3,-1,0
315,2.779,-3,-1,0
316,2.789,-3,-1,0
317,2.799,-3,-1,0
318,2.809,-4,-1,0
319,2.819,-3,-1,0
320,2.829,-4,-1,0
321,2.839,-3,-1,0
322,2.849,-3,-1,0
323,2.859,-3,-1,0
324,2.869,-3,-1,0
325,2.879,-3,-1,0
326,2.889,-3,-1,0
327,2.899,-3,-1,0
328,2.909,-3,-1,0
329,2.919,-3,-1,0
330,2.929,-3,-1,0
331,2.939,-3,-1,0
332,2.949,-3,-1,0
333,2.959,-3,-1,0
334,2.969,-3,-1,0
335,2.979,-3,-1,0
336,2.989,-3,-1,0
337,2.999,-3,-1,0
338,3.009,-3,-1,0
339,3.019,-3,-1,0
340,3.029,-3,-1,0
341,3.039,-3,-1,0
342,3.049,-3,-1,0
343,3.059,-3,-1,0
344,3.069,-3,-1,0
345,3.079,-3,-1,0
346,3.089,-3,-1,0
347,3.099,-3,-1,0
348,3.109,-3,-1,0
349,3.119,-3,-1,0
350,3.129,-3,-1,0
351,3.139,-3,-1,0
352,3.149,-3,-1,0
353,3.159,-3,-1,0
354,3.169,-3,-1,0
355,3.179,-3,-1,0
356,3.189,-3,-1,0
357,3.199,-3,-1,0
358,3.209,-3,-1,0
359,3.219,-3,-1,0
360,3.229,-3,-1,0
361,3.239,-3,-1,0
362,3.249,-3,-1,0
363,3.259,-3,-1,0
364,3.269,-3,-1,0
365,3.279,-3,-1,0
366,3.289,-3,-1,0
367,3.299,-3,-1,0
368,3.309,-3,-1,0
369,3.319,-3,-1,0
370,3.329,-3,-1,0
371,3.339,-3,-1,0
372,3.349,-3,-1,0
373,3.359,-3,-1,0
374,3.369,-3,-1,0
375,3.379,-3,-1,0
376,3.389,-3,-1,0
377,3.399,-3,-1,0
378,3.409,-3,-1,0
379,3.419,-3,-1,0
380,3.429,-3,-1,0
381,3.439,-3,-1,0
382,3.449,-3,-1,0
383,3.459,-3,-1,0
384,3.469,-3,-1,0
385,3.479,-3,-1,0
386,3.489,-3,-1,0
387,3.499,-3,-1,0
388,3.509,-3,-1,0
389,3.519,-3,-1,0
390,3.529,-3,-1,0
391,3.539,-3,-1,0
392,3.549,-3,-1,0
393,3.559,-3,-1,0
394,3.569,-2,-1,0
395,3.579,-3,-1,0
396,3.589,-3,-1,0
397,3.599,-2,-1,0
398,3.609,-3,-1,0
399,3.619,-3,-1,0
400,3.629,-3,-1,0
401,3.639,-3,-1,0
402,3.649,-3,-1,0
403,3.659,-3,-1,0
404,3.669,-3,-1,0
405,3.679,-3,-1,0
406,3.689,-3,-1,0
407,3.699,-3,-1,0
408,3.709,-2,-1,0
409,3.719,-3,-1,0
410,3.729,-2,-1,0
411,3.739,-2,-1,0
412,3.749,-3,-1,0
413,3.759,-2,-1,0
414,3.769,-3,-1,0
415,3.779,-2,-1,0
416,3.789,-3,-1,0
417,3.799,-3,-1,0
418,3.809,-2,-1,0
419,3.819,-3,-1,0
420,3.829,-3,-1,0
421,3.839,-3,-1,0
422,3.849,-2,-1,0
423,3.859,-3,-1,0
424,3.869,-2,-1,0
425,3.879,-3,-1,0
426,3.889,-2,-1,0
427,3.899,-3,-1,0
428,3.909,-2,-1,0
429,3.919,-2,-1,0
430,3.929,-2,-1,0
431,3.939,-2,-1,0
432,3.949,-2,-1,0
433,3.959,-2,-1,0
434,3.969,-2,-1,0
435,3.979,-2,-1,0
436,3.989,-2,-1,0
437,3.999,-2,-1,0
438,4.009,-2,-1,0
439,4.019,-2,-1,0
440,4.029,-2,-1,0
441,4.039,-2,-1,0
442,4.049,-2,-1,0
443,4.059,-2,-1,0
444,4.069,-2,-1,0
445,4.079,-2,-1,0
446,4.089,-2,-1,0
447,4.099,-2,-1,0
448,4.109,-2,-1,0
449,4.119,-2,-1,0
450,4.129,-2,-1,0
451,4.139,-2,-1,0
452,4.149,-2,-1,0
453,4.159,-2,-1,0
454,4.169,-2,-1,0
455,4.179,-2,-1,0
456,4.189,-2,-1,0
457,4.199,-2,-1,0
458,4.209,-2,-1,0
459,4.219,-2,-1,0
460,4.229,-2,-1,0
461,4.239,-2,-1,0
462,4.249,-2,-1,0
463,4.259,-2,-1,0
464,4.269,-2,-1,0
465,4.279,-2,-1,0
466,4.289,-2,-1,0
467,4.299,-2,-1,0
468,4.309,-2,-1,0
469,4.319,-2,-1,0
470,4.329,-2,-1,0
471,4.339,-2,-1,0
472,4.349,-2,-1,0
473,4.359,-2,-1,0
474,4.369,-2,-1,0
475,4.379,-2,0,0
476,4.389,-2,-1,0
477,4.399,-2,-1,0
478,4.409,-2,-1,0
479,4.419,-2,-1,0
480,4.429,-2,-1,0
481,4.439,-2,-1,0
482,4.449,-2,-1,0
483,4.459,-2,-1,0
484,4.469,-2,-1,0
485,4.479,-2,-1,0
486,4.489,-2,-1,0
487,4.499,-2,-1,0
488,4.509,-2,-1,0
489,4.519,-2,-1,0
490,4.529,-2,-1,0
491,4.539,-2,-1,0
492,4.549,-2,-1,0
493,4.559,-2,-1,0
494,4.569,-2,-1,0
495,4.579,-2,-1,0
496,4.589,-2,-1,0
497,4.599,-2,-1,0
498,4.609,-2,-1,0
499,4.619,-2,-1,0
500,4.629,-2,-1,0
501,4.639,-1,-1,0
502,4.649,-2,-1,0
503,4.659,-2,-1,0
504,4.669,-2,-1,0
505,4.679,-2,-1,0
506,4.689,-2,-1,0
507,4.699,-2,-1,0
508,4.709,-2,-1,0
509,4.719,-2,-1,0
510,4.729,-2,-1,0
511,4.739,-2,-1,0
512,4.749,-2,-1,0
513,4.759,-2,-1,0
514,4.769,-2,-1,0
515,4.779,-2,-1,0
516,4.789,-2,-1,0
517,4.799,-2,-1,0
518,4.809,-2,-1,0
519,4.819,-2,-1,0
520,4.829,-2,-1,0
521,4.839,-2,-1,0
522,4.849,-2,-1,0
523,4.859,-2,-1,0
524,4.869,-2,-1,0
525,4.879,-2,-1,0
526,4.889,-2,-1,0
527,4.899,-2,-1,0
528,4.909,-2,-1,0
529,4.919,-2,-1,0
530,4.929,-2,-1,0
531,4.939,-2,-1,0
532,4.949,-2,-1,0
533,4.959,-2,-1,0
534,4.969,-2,-1,0
535,4.979,-2,-1,0
536,4.989,-2,-1,0
537,4.999,-2,-1,0
538,5.009,-2,-1,0
539,5.019,-2,-1,0
540,5.029,-2,-1,0
541,5.039,-2,-1,0
542,5.049,-2,-1,0
543,5.059,-2,-1,0
544,5.069,-2,-1,0
545,5.079,-2,-1,0
546,5.089,-2,-1,0
547,5.099,-2,-1,0
548,5.109,-1,-1,0
549,5.119,-2,-1,0
550,5.129,-2,-1,0
551,5.139,-2,-1,0
552,5.149,-2,-1,0
553,5.159,-2,-1,0
554,5.169,-2,-1,0
555,5.179,-1,-1,0
556,5.189,-2,-1,0
557,5.199,-2,-1,0
558,5.209,-2,-1,0
559,5.219,-2,-1,0
560,5.229,-2,-1,0
561,5.239,-2,-1,0
562,5.249,-2,-1,0
563,5.259,-2,-1,0
564,5.269,-1,-1,0
565,5.279,-2,-1,0
566,5.289,-2,-1,0
567,5.299,-1,-1,0
568,5.309,-2,-1,0
569,5.319,-2,-1,0
570,5.329,-2,-1,0
571,5.339,-1,-1,0
572,5.349,-2,-1,0
573,5.359,-1,-1,0
574,5.369,-2,-1,0
575,5.379,-2,-1,0
576,5.389,-1,-1,0
577,5.399,-2,-1,0
578,5.409,-1,-1,0
579,5.419,-2,-1,0
580,5.429,-1,-1,0
581,5.439,-2,-1,0
582,5.449,-2,-1,0
583,5.459,-1,-1,0
584,5.469,-1,-1,0
585,5.479,-2,-1,0
586,5.489,-2,-1,0
587,5.499,-1,-1,0
588,5.509,-2,-1,0
589,5.519,-1,0,0
590,5.529,-1,-1,0
591,5.539,-1,-1,0
592,5.549,-1,-1,0
593,5.559,-2,-1,0
594,5.569,-1,-1,0
595,5.579,-1,-1,0
596,5.589,-1,-1,0
597,5.599,-1,-1,0
598,5.609,-2,-1,0
599,5.619,-1,-1,0
600,5.629,-2,-1,0
601,5.639,-2,-1,0
602,5.649,-1,-1,0
603,5.659,-2,-1,0
604,5.669,-1,-1,0
605,5.679,-1,-1,0
606,5.689,-2,-1,0
607,5.699,-1,-1,0
608,5.709,-1,-1,0
609,5.719,-1,-1,0
610,5.729,-1,-1,0
611,5.739,-2,-1,0
612,5.749,-1,-1,0
613,5.759,-1,-1,0
614,5.769,-1,-1,0
615,5.779,-1,-1,0
616,5.789,-1,-1,0
617,5.799,-1,-1,0
618,5.809,-1,-1,0
619,5.819,-1,-1,0
620,5.829,-1,-1,0
621,5.839,-1,-1,0
622,5.849,-1,-1,0
623,5.859,-1,-1,0
624,5.869,-1,-1,0
625,5.879,-1,-1,0
626,5.889,-1,-1,0
627,5.899,-2,-1,0
628,5.909,-1,-1,0
629,5.919,-1,-1,0
630,5.929,-1,-1,0
631,5.939,-1,-1,0
632,5.949,-1,-1,0
633,5.959,-1,-1,0
634,5.969,-1,-1,0
635,5.979,-1,-1,0
636,5.989,-1,-1,0
637,5.999,-2,-1,0
638,6.009,-1,-1,0
639,6.019,-1,-1,0
640,6.029,-1,-1,0
641,6.039,-1,-1,0
642,6.049,-1,-1,0
643,6.059,-1,-1,0
644,6.069,-1,-1,0
645,6.079,-1,-1,0
646,6.089,-1,-1,0
647,6.099,-1,-1,0
648,6.109,-1,-1,0
649,6.119,-2,-1,0
650,6.129,-1,-1,0
651,6.139,-1,-1,0
652,6.149,-2,-1,0
653,6.159,-1,-1,0
654,6.169,-1,-1,0
655,6.179,-1,-1,0
656,6.189,-1,-1,0
657,6.199,-1,-1,0
658,6.209,-1,-1,0
659,6.219,-1,-1,0
660,6.229,-1,-1,0
661,6.239,-1,-1,0
662,6.249,-1,-1,0
663,6.259,-1,-1,0
664,6.269,-1,-1,0
665,6.279,-1,-1,0
666,6.289,-1,-1,0
667,6.299,-1,-1,0
668,6.309,-1,-1,0
669,6.319,-1,-1,0
670,6.329,-1,-1,0
671,6.339,-1,-1,0
672,6.349,-1,-1,0
673,6.359,-1,-1,0
674,6.369,-1,-1,0
675,6.379,-1,-1,0
676,6.389,-1,-1,0
677,6.399,-1,-1,0
678,6.409,-1,-1,0
679,6.419,-1,-1,0
680,6.429,-1,-1,0
681,6.439,-1,-1,0
682,6.449,-1,-1,0
683,6.459,-1,-1,0
684,6.469,-1,-1,0
685,6.479,-1,-1,0
686,6.489,-1,-1,0
687,6.499,-1,-1,0
688,6.509,-1,-1,0
689,6.519,-1,-1,0
690,6.529,-1,-1,0
691,6.539,-1,-1,0
692,6.549,-1,-1,0
693,6.559,-1,-1,0
694,6.569,-1,-1,0
695,6.579,-1,-1,0
696,6.589,-1,0,0
697,6.599,-1,-1,0
698,6.609,-1,-1,0
699,6.619,-1,-1,0
700,6.629,-1,-1,0
701,6.639,-1,-1,0
702,6.649,-1,-1,0
703,6.659,-1,-1,0
704,6.669,-1,-1,0
705,6.679,-1,-1,0
706,6.689,-1,-1,0
707,6.699,-1,-1,0
708,6.709,-1,-1,0
709,6.719,-1,-1,0
710,6.729,-1,-1,0
711,6.739,-1,-1,0
712,6.749,-1,-1,0
713,6.759,-1,-1,0
714,6.769,-1,-1,0
715,6.779,-1,-1,0
716,6.789,-1,-1,0
717,6.799,-1,0,0
718,6.809,-1,-1,0
719,6.819,-1,-1,0
720,6.829,-1,-1,0
721,6.839,-1,-1,0
722,6.849,-1,-1,0
723,6.859,-1,0,0
724,6.869,-1,0,0
725,6.879,-1,-1,0
726,6.889,-1,-1,0
727,6.899,-1,-1,0
728,6.909,-1,-1,0
729,6.919,-1,-1,0
730,6.929,-1,-1,0
731,6.939,-1,-1,0
732,6.949,-1,-1,0
733,6.959,-1,-1,0
734,6.969,-1,-1,0
735,6.979,-1,-1,0
736,6.989,-1,-1,0
737,6.999,-1,-1,0
738,7.009,-1,-1,0
739,7.019,-1,-1,0
740,7.029,-1,-1,0
741,7.039,-1,-1,0
742,7.049,-1,-1,0
743,7.059,-1,-1,0
744,7.069,-1,0,0
745,7.079,-1,-1,0
746,7.089,-1,-1,0
747,7.099,-1,-1,0
748,7.109,-1,-1,0
749,7.119,-1,-1,0
750,7.129,-1,-1,0
751,7.139,-1,-1,0
752,7.149,-1,-1,0
753,7.159,-1,-1,0
754,7.169,-1,-1,0
755,7.179,-1,-1,0
756,7.189,-1,-1,0
757,7.199,-1,-1,0
758,7.209,-1,-1,0
759,7.219,-1,-1,0
760,7.229,-1,-1,0
761,7.239,-1,-1,0
762,7.249,-1,-1,0
763,7.259,-1,-1,0
764,7.269,-1,-1,0
765,7.279,-1,-1,0
766,7.289,-1,-1,0
767,7.299,-1,-1,0
768,7.309,-1,-1,0
769,7.319,-1,-1,0
770,7.329,-1,-1,0
771,7.339,-1,-1,0
772,7.349,-1,-1,0
773,7.359,-1,-1,0
774,7.369,-1,-1,0
775,7.379,-1,-1,0
776,7.389,-1,-1,0
777,7.399,-1,-1,0
778,7.409,-1,-1,0
779,7.419,-1,-1,0
780,7.429,-1,0,0
781,7.439,-1,0,0
782,7.449,-1,0,0
783,7.459,-1,0,0
784,7.469,-1,0,0
785,7.479,-1,-1,0
786,7.489,-1,-1,0
787,7.499,-1,0,0
788,7.509,-1,-1,0
789,7.519,-1,-1,0
790,7.529,-1,-1,0
791,7.539,-1,-1,0
792,7.549,-1,-1,0
793,7.559,-1,-1,0
794,7.569,-1,-1,0
795,7.579,-1,-1,0
796,7.589,-1,-1,0
797,7.599,-1,-1,0
798,7.609,-1,-1,0
799,7.619,-1,-1,0
800,7.629,-1,-1,0
801,7.639,-1,-1,0
802,7.649,-1,-1,0
803,7.659,-1,-1,0
804,7.669,-1,-1,0
805,7.679,-1,-1,0
806,7.689,-1,-1,0
807,7.699,-1,-1,0
808,7.709,-1,-1,0
809,7.719,-1,-1,0
810,7.729,-1,-1,0
811,7.739,-1,-1,0
812,7.749,-1,-1,0
813,7.759,-1,-1,0
814,7.769,-1,-1,0
815,7.779,-1,-1,0
816,7.789,-1,-1,0
817,7.799,-1,-1,0
818,7.809,-1,-1,0
819,7.819,-1,-1,0
820,7.829,-1,-1,0
821,7.839,-1,-1,0
822,7.849,-1,-1,0
823,7.859,-1,-1,0
824,7.869,-1,-1,0
825,7.879,-1,-1,0
826,7.889,-1,-1,0
827,7.899,-1,-1,0
828,7.909,-1,-1,0
829,7.919,-1,-1,0
830,7.929,-1,-1,0
831,7.939,-1,-1,0
832,7.949,-1,-1,0
833,7.959,-1,-1,0
834,7.969,-1,-1,0
835,7.979,-1,0,0
836,7.989,-1,-1,0
837,7.999,-1,-1,0
838,8.009,-1,-1,0
839,8.019,-1,-1,0
840,8.029,-1,-1,0
841,8.039,-1,-1,0
842,8.049,-1,-1,0
843,8.059,-1,-1,0
844,8.069,-1,-1,0
845,8.079,-1,-1,0
846,8.089,-1,-1,0
847,8.099,-1,0,0
848,8.109,-1,-1,0
849,8.119,-1,-1,0
850,8.129,-1,-1,0
851,8.139,-1,-1,0
852,8.149,-1,-1,0
853,8.159,-1,-1,0
854,8.169,-1,-1,0
855,8.179,-1,-1,0
856,8.189,-1,-1,0
857,8.199,-1,0,0
858,8.209,-1,-1,0
859,8.219,-1,0,0
860,8.229,-1,-1,0
861,8.239,-1,-1,0
862,8.249,-1,-1,0
863,8.259,-1,-1,0
864,8.269,-1,-1,0
865,8.279,-1,-1,0
866,8.289,-1,-1,0
867,8.299,-1,-1,0
868,8.309,-1,-1,0
869,8.319,-1,-1,0
870,8.329,-1,-1,0
871,8.339,-1,-1,0
872,8.349,-1,-1,0
873,8.359,-1,-1,0
874,8.369,-1,-1,0
875,8.379,-1,-1,0
876,8.389,-1,-1,0
877,8.399,-1,-1,0
878,8.409,-1,-1,0
879,8.419,-1,-1,0
880,8.429,-1,-1,0
881,8.439,-1,-1,0
882,8.449,-1,-1,0
883,8.459,-1,-1,0
884,8.469,-1,-1,0
885,8.479,-1,-1,0
886,8.489,-1,-1,0
887,8.499,-1,-1,0
888,8.509,-1,-1,0
889,8.519,-1,-1,0
890,8.529,-1,-1,0
891,8.539,-1,-1,0
892,8.549,-1,-1,0
893,8.559,-1,-1,0
894,8.569,-1,-1,0
895,8.579,-1,-1,0
896,8.589,-1,-1,0
897,8.599,-1,-1,0
898,8.609,-1,-1,0
899,8.619,-1,-1,0
900,8.629,-1,-1,0
901,8.639,-1,-1,0
902,8.649,-1,-1,0
903,8.659,-1,-1,0
904,8.669,-1,-1,0
905,8.679,-1,-1,0
906,8.689,-1,-1,0
907,8.699,-1,-1,0
908,8.709,-1,-1,0
909,8.719,-1,-1,0
910,8.729,-1,-1,0
911,8.739,-1,-1,0
912,8.749,-1,-1,0
913,8.759,-1,-1,0
914,8.769,-1,-1,0
915,8.779,-1,-1,0
916,8.789,-1,-1,0
917,8.799,-1,-1,0
918,8.809,-1,-1,0
919,8.819,-1,-1,0
920,8.829,-1,-1,0
921,8.839,-1,-1,0
922,8.849,-1,-1,0
923,8.859,-1,-1,0
924,8.869,-1,-1,0
925,8.879,-1,-1,0
926,8.889,-1,-1,0
927,8.899,-1,-1,0
928,8.909,-1,-1,0
929,8.919,-1,-1,0
930,8.929,-1,-1,0
931,8.939,-1,-1,0
932,8.949,-1,-1,0
933,8.959,-1,0,0
934,8.969,-1,-1,0
935,8.979,0,-1,0
936,8.989,-1,-1,0
937,8.999,-1,-1,0
938,9.009,-1,-1,0
939,9.019,-1,-1,0
940,9.029,-1,-1,0
941,9.039,-1,-1,0
942,9.049,-1,-1,0
943,9.059,-1,-1,0
944,9.069,-1,-1,0
945,9.079,-1,-1,0
946,9.089,-1,-1,0
947,9.099,-1,-1,0
948,9.109,-1,-1,0
949,9.119,-1,-1,0
950,9.129,-1,-1,0
951,9.139,-1,-1,0
952,9.149,-1,-1,0
953,9.159,-1,0,0
954,9.169,-1,-1,0
955,9.179,-1,-1,0
956,9.189,-1,-1,0
957,9.199,-1,-1,0
958,9.209,-1,-1,0
959,9.219,-1,-1,0
960,9.229,-1,-1,0
961,9.239,0,-1,0
962,9.249,-1,-1,0
963,9.259,-1,-1,0
964,9.269,-1,-1,0
965,9.279,-1,-1,0
966,9.289,-1,-1,0
967,9.299,-1,-1,0
968,9.309,-1,-1,0
969,9.319,-1,-1,0
970,9.329,0,-1,0
971,9.339,-1,-1,0
972,9.349,-1,-1,0
973,9.359,-1,-1,0
974,9.369,-1,-1,0
975,9.379,-1,-1,0
976,9.389,-1,-1,0
977,9.399,-1,-1,0
978,9.409,-1,-1,0
979,9.419,-1,-1,0
980,9.429,-1,-1,0
981,9.439,0,-1,0
982,9.449,-1,-1,0
983,9.459,-1,-1,0
984,9.469,-1,-1,0
985,9.479,-1,0,0
986,9.489,-1,-1,0
987,9.499,-1,-1,0
988,9.509,-1,-1,0
989,9.519,-1,-1,0
990,9.529,-1,-1,0
991,9.539,-1,-1,0
992,9.549,-1,-1,0
993,9.559,-1,-1,0
994,9.569,-1,-1,0
995,9.579,-1,-1,0
996,9.589,-1,-1,0
997,9.599,0,-1,0
998,9.609,-1,-1,0
999,9.619,-1,-1,0
1000,9.629,-1,-1,0
1001,9.639,-1,-1,0
1002,9.649,-1,-1,0
1003,9.659,-1,-1,0
1004,9.669,-1,-1,0
1005,9.679,0,-1,0
1006,9.689,-1,-1,0
1007,9.699,-1,-1,0
1008,9.709,0,-1,0
1009,9.719,-1,-1,0
1010,9.729,-1,-1,0
1011,9.739,-1,-1,0
1012,9.749,-1,-1,0
1013,9.759,-1,-1,0
1014,9.769,0,-1,0
1015,9.779,-1,-1,0
1016,9.789,-1,-1,0
1017,9.799,-1,-1,0
1018,9.809,-1,-1,0
1019,9.819,-1,-1,0
1020,9.829,-1,-1,0
1021,9.839,-1,-1,0
1022,9.849,-1,-1,0
1023,9.859,-1,-1,0
1024,9.869,0,-1,0
1025,9.879,-1,0,0
1026,9.889,-1,-1,0
1027,9.899,-1,0,0
1028,9.909,0,-1,0
1029,9.919,-1,-1,0
1030,9.929,-1,-1,0
1031,9.939,0,0,0
1032,9.949,0,-1,0
1033,9.959,-1,-1,0
1034,9.969,-1,-1,0
1035,9.979,-1,-1,0
1036,9.989,-1,-1,0
1037,9.999,-1,-1,0
1038,10.009,-1,-1,0
1039,10.019,-1,-1,0
1040,10.029,-1,-1,0
1041,10.039,-1,-1,0
1042,10.049,-1,-1,0
1043,10.059,-1,-1,0
1044,10.069,-1,-1,0
1045,10.079,-1,-1,0
1046,10.089,-1,-1,0
1047,10.099,0,-1,0
1048,10.109,-1,-1,0
1049,10.119,-1,-1,0
1050,10.129,-1,-1,0
1051,10.139,0,-1,0
1052,10.149,-1,-1,0
1053,10.159,-1,-1,0
1054,10.169,-1,-1,0
1055,10.179,0,-1,0
1056,10.189,0,-1,0
1057,10.199,-1,-1,0
1058,10.209,-1,-1,0
1059,10.219,-1,-1,0
1060,10.229,-1,-1,0
1061,10.239,0,-1,0
1062,10.249,-1,-1,0
1063,10.259,-1,-1,0
1064,10.269,-1,-1,0
1065,10.279,-1,-1,0
1066,10.289,-1,-1,0
1067,10.299,0,-1,0
1068,10.309,-1,-1,0
1069,10.319,-1,-1,0
1070,10.329,-1,-1,0
1071,10.339,-1,-1,0
1072,10.349,-1,-1,0
1073,10.359,-1,-1,0
1074,10.369,0,-1,0
1075,10.379,0,-1,0
1076,10.389,0,-1,0
1077,10.399,-1,-1,0
1078,10.409,0,-1,0
1079,10.419,0,-1,0
1080,10.429,0,-1,0
1081,10.439,-1,-1,0
1082,10.449,-1,-1,0
1083,10.459,-1,-1,0
1084,10.469,-1,0,0
1085,10.479,-1,-1,0
1086,10.489,-1,-1,0
1087,10.499,-1,-1,0
1088,10.509,-1,-1,0
1089,10.519,-1,-1,0
1090,10.529,-1,-1,0
1091,10.539,-1,-1,0
1092,10.549,-1,-1,0
1093,10.559,-1,0,0
1094,10.569,0,-1,0
1095,10.579,-1,-1,0
1096,10.589,-1,-1,0
1097,10.599,-1,-1,0
1098,10.609,0,-1,0
1099,10.619,-1,-1,0
1100,10.629,0,-1,0
1101,10.639,0,-1,0
1102,10.649,-1,0,0
1103,10.659,-1,-1,0
1104,10.669,-1,-1,0
1105,10.679,0,-1,0
1106,10.689,-1,-1,0
1107,10.699,-1,-1,0
1108,10.709,-1,-1,0
1109,10.719,-1,-1,0
1110,10.729,-1,-1,0
1111,10.739,-1,0,0
1112,10.749,0,-1,0
1113,10.759,-1,-1,0
1114,10.769,-1,-1,0
1115,10.779,-1,-1,0
1116,10.789,-1,-1,0
1117,10.799,-1,-1,0
1118,10.809,-1,-1,0
1119,10.819,-1,-1,0
1120,10.829,0,-1,0
1121,10.839,-1,-1,0
1122,10.849,0,-1,0
1123,10.859,-1,-1,0
1124,10.869,0,-1,0
1125,10.879,-1,-1,0
1126,10.889,-1,-1,0
1127,10.899,-1,-1,0
1128,10.909,-1,-1,0
1129,10.919,-1,-1,0
1130,10.929,0,-1,0
1131,10.939,0,-1,0
1132,10.949,-1,-1,0
1133,10.959,0,-1,0
1134,10.969,-1,-1,0
1135,10.979,-1,-1,0
1136,10.989,-1,-1,0
1137,10.999,-1,-1,0
1138,11.009,-1,-1,0
1139,11.019,-1,-1,0
1140,11.029,0,-1,0
1141,11.039,0,-1,0
1142,11.049,-1,-1,0
1143,11.059,-1,-1,0
1144,11.069,-1,-1,0
1145,11.079,0,-1,0
1146,11.089,0,-1,0
1147,11.099,-1,-1,0
1148,11.109,0,-1,0
1149,11.119,0,-1,0
1150,11.129,-1,-1,0
1151,11.139,-1,-1,0
1152,11.149,-1,-1,0
1153,11.159,-1,0,0
1154,11.169,-1,-1,0
1155,11.179,-1,-1,0
1156,11.189,0,-1,0
1157,11.199,-1,-1,0
1158,11.209,-1,-1,0
1159,11.219,0,-1,0
1160,11.229,0,-1,0
1161,11.239,0,-1,0
1162,11.249,0,-1,0
1163,11.259,-1,-1,0
1164,11.269,-1,-1,0
1165,11.279,-1,-1,0
1166,11.289,-1,-1,0
1167,11.299,0,-1,0
1168,11.309,-1,-1,0
1169,11.319,0,-1,0
1170,11.329,0,-1,0
1171,11.339,-1,-1,0
1172,11.349,-1,-1,0
1173,11.359,-1,-1,0
1174,11.369,0,-1,0
1175,11.379,-1,-1,0
1176,11.389,-1,-1,0
1177,11.399,-1,-1,0
1178,11.409,-1,-1,0
1179,11.419,-1,-1,0
1180,11.429,0,-1,0
1181,11.439,-1,-1,0
1182,11.449,0,-1,0
1183,11.459,0,-1,0
1184,11.469,-1,-1,0
1185,11.479,0,-1,0
1186,11.489,0,-1,0
1187,11.499,-1,-1,0
1188,11.509,0,-1,0
1189,11.519,-1,-1,0
1190,11.529,-1,-1,0
1191,11.539,0,-1,0
1192,11.549,-1,-1,0
1193,11.559,0,-1,0
1194,11.569,0,-1,0
1195,11.579,-1,-1,0
1196,11.589,-1,-1,0
1197,11.599,-1,-1,0
1198,11.609,0,-1,0
1199,11.619,-1,0,0
1200,11.629,-1,-1,0
1201,11.639,0,-1,0
1202,11.649,-1,0,0
1203,11.659,-1,-1,0
1204,11.669,0,-1,0
1205,11.679,-1,-1,0
1206,11.689,0,-1,0
1207,11.699,0,-1,0
1208,11.709,0,-1,0
1209,11.719,-1,-1,0
1210,11.729,0,0,0
1211,11.739,-1,-1,0
1212,11.749,-1,-1,0
1213,11.759,-1,-1,0
1214,11.769,0,-1,0
1215,11.779,-1,-1,0
1216,11.789,0,-1,0
1217,11.799,-1,-1,0
1218,11.809,-1,-1,0
1219,11.819,-1,-1,0
1220,11.829,-1,-1,0
1221,11.839,-1,-1,0
1222,11.849,0,-1,0
1223,11.859,0,-1,0
1224,11.869,0,-1,0
1225,11.879,0,-1,0
1226,11.889,-1,-1,0
1227,11.899,-1,-1,0
1228,11.909,-1,-1,0
1229,11.919,-1,-1,0
1230,11.929,0,0,0
1231,11.939,-1,-1,0
1232,11.949,-1,-1,0
1233,11.959,-1,-1,0
1234,11.969,0,-1,0
1235,11.979,-1,-1,0
1236,11.989,0,-1,0
1237,11.999,-1,0,0
1238,12.009,-1,-1,0
1239,12.019,-1,-1,0
1240,12.029,0,-1,0
1241,12.039,-1,-1,0
1242,12.049,0,-1,0
1243,12.059,0,-1,0
1244,12.069,-1,-1,0
1245,12.079,0,-1,0
1246,12.089,0,-1,0
1247,12.099,-1,-1,0
1248,12.109,-1,-1,0
1249,12.119,-1,-1,0
1250,12.129,0,-1,0
1251,12.139,-1,-1,0
1252,12.149,-1,-1,0
1253,12.159,-1,-1,0
1254,12.169,0,-1,0
1255,12.179,0,-1,0
1256,12.189,0,-1,0
1257,12.199,0,-1,0
1258,12.209,-1,-1,0
1259,12.219,-1,-1,0
1260,12.229,-1,-1,0
1261,12.239,0,-1,0
1262,12.249,0,-1,0
1263,12.259,-1,-1,0
1264,12.269,-1,-1,0
1265,12.279,-1,-1,0
1266,12.289,-1,-1,0
1267,12.299,0,-1,0
1268,12.309,-1,0,0
1269,12.319,-1,-1,0
1270,12.329,-1,-1,0
1271,12.339,-1,-1,0
1272,12.349,0,-1,0
1273,12.359,-1,-1,0
1274,12.369,-1,-1,0
1275,12.379,-1,-1,0
1276,12.389,0,-1,0
1277,12.399,0,-1,0
1278,12.409,-1,-1,0
1279,12.419,-1,-1,0
1280,12.429,-1,-1,0
1281,12.439,0,-1,0
1282,12.449,0,0,0
1283,12.459,0,-1,0
1284,12.469,0,-1,0
1285,12.479,-1,-1,0
1286,12.489,0,-1,0
1287,12.499,-1,-1,0
1288,12.509,-1,0,0
1289,12.519,-1,-1,0
1290,12.529,0,-1,0
1291,12.539,-1,-1,0
1292,12.549,-1,-1,0
1293,12.559,-1,-1,0
1294,12.569,-1,-1,0
1295,12.579,-1,-1,0
1296,12.589,-1,-1,0
1297,12.599,-1,-1,0
1298,12.609,0,-1,0
1299,12.619,0,-1,0
1300,12.629,-1,-1,0
1301,12.639,-1,-1,0
1302,12.649,-1,-1,0
1303,12.659,-1,0,0
1304,12.669,-1,-1,0
1305,12.679,-1,-1,0
1306,12.689,0,-1,0
1307,12.699,0,0,0
1308,12.709,0,-1,0
1309,12.719,-1,-1,0
1310,12.729,0,-1,0
1311,12.739,-1,-1,0
1312,12.749,0,-1,0
1313,12.759,0,-1,0
1314,12.769,-1,-1,0
1315,12.779,-1,-1,0
1316,12.789,-1,-1,0
1317,12.799,-1,0,0
1318,12.809,0,-1,0
1319,12.819,0,-1,0
1320,12.829,-1,0,0
1321,12.839,0,-1,0
1322,12.849,-1,-1,0
1323,12.859,0,-1,0
1324,12.869,-1,-1,0
1325,12.879,-1,-1,0
1326,12.889,0,-1,0
1327,12.899,-1,-1,0
1328,12.909,0,0,0
1329,12.919,-1,-1,0
1330,12.929,-1,-1,0
1331,12.939,0,-1,0
1332,12.949,-1,-1,0
1333,12.959,-1,-1,0
1334,12.969,-1,-1,0
1335,12.979,0,-1,0
1336,12.989,0,-1,0
1337,12.999,-1,0,0
1338,13.009,-1,0,0
1339,13.019,-1,-1,0
1340,13.029,0,-1,0
1341,13.039,-1,-1,0
1342,13.049,-1,-1,0
1343,13.059,0,-1,0
1344,13.069,0,-1,0
1345,13.079,-1,-1,0
1346,13.089,0,-1,0
1347,13.099,0,0,0
1348,13.109,0,-1,0
1349,13.119,-1,-1,0
1350,13.129,-1,0,0
1351,13.139,0,0,0
1352,13.149,-1,-1,0
1353,13.159,0,0,0
1354,13.169,-1,-1,0
1355,13.179,-1,-1,0
1356,13.189,-1,-1,0
1357,13.199,-1,0,0
1358,13.209,-1,-1,0
1359,13.219,0,-1,0
1360,13.229,-1,-1,0
1361,13.239,0,0,0
1362,13.249,0,0,0
1363,13.259,-1,0,0
1364,13.269,0,-1,0
1365,13.279,-1,-1,0
1366,13.289,-1,-1,0
1367,13.299,-1,-1,0
1368,13.309,0,-1,0
1369,13.319,-1,0,0
1370,13.329,0,-1,0
1371,13.339,0,0,0
1372,13.349,0,-1,0
1373,13.359,0,0,0
1374,13.369,0,0,0
1375,13.379,-1,0,0
1376,13.389,-1,0,0
1377,13.399,-1,-1,0
1378,13.409,-1,-1,0
1379,13.419,6,-1,0
1380,13.429,39,0,0
1381,13.439,76,0,0
1382,13.449,-18,3,0
1383,13.459,-10,0,0
1384,13.469,-3,-1,0
1385,13.479,-2,-1,0
1386,13.489,-1,-1,0
1387,13.499,0,-1,0
1388,13.509,0,-1,0
1389,13.519,-1,-1,0
1390,13.529,0,-1,0
1391,13.539,-1,-1,0
1392,13.549,-1,-1,0
1393,13.559,-1,0,0
1394,13.569,-1,-1,0
1395,13.579,-1,-1,0
1396,13.589,-1,-1,0
1397,13.599,-1,-1,0
1398,13.609,-1,0,0
1399,13.619,-1,0,0
1400,13.629,-1,-1,0
1401,13.639,-1,-1,0
1402,13.649,-1,0,0
1403,13.659,-2,0,0
1404,13.669,-2,0,0
1405,13.679,-1,0,0
1406,13.689,-1,0,0
1407,13.699,-1,-1,0
1408,13.709,-1,-1,0
1409,13.719,-1,-1,0
1410,13.729,-1,-1,0
1411,13.739,-18,7,0
1412,13.749,-38,16,0
1413,13.759,-44,10,0
1414,13.769,-30,1,0
1415,13.779,8,-1,0
1416,13.789,5,-1,0
1417,13.799,0,-1,0
1418,13.809,0,-1,0
1419,13.819,0,-1,0
1420,13.829,0,-1,0
1421,13.839,0,-1,0
1422,13.849,0,-1,0
1423,13.859,0,-1,0
1424,13.869,0,-1,0
1425,13.879,0,-1,0
1426,13.889,0,-1,0
1427,13.899,0,-1,0
1428,13.909,0,-1,0
1429,13.919,0,-1,0
1430,13.929,0,-1,0
1431,13.939,0,-1,0
1432,13.949,0,-1,0
1433,13.959,0,-1,0
1434,13.969,0,-1,0
1435,13.979,0,-1,0
1436,13.989,0,-1,0
1437,13.999,0,-1,0
1438,14.009,0,-1,0
1439,14.019,0,-1,0
1440,14.029,0,-1,0
1441,14.039,0,-1,0
1442,14.049,0,-1,0
1443,14.059,0,-1,0
1444,14.069,0,-1,0
1445,14.079,0,-1,0
1446,14.089,0,-1,0
1447,14.099,0,-1,0
1448,14.109,0,-1,0
1449,14.119,0,-1,0
1450,14.129,0,-1,0
1451,14.139,0,-1,0
1452,14.149,0,-1,0
1453,14.159,0,-1,0
1454,14.169,0,-1,0
1455,14.179,0,-1,0
1456,14.189,0,-1,0
1457,14.199,0,-1,0
1458,14.209,0,-1,0
1459,14.219,-1,-1,0
1460,14.229,-1,-1,0
1461,14.239,-1,-1,0
1462,14.249,0,-1,0
1463,14.259,-1,-1,0
1464,14.269,-1,-2,0
1465,14.279,0,-2,0
1466,14.289,-1,-1,0
1467,14.299,-1,-1,0
1468,14.309,0,-1,0
1469,14.319,-1,-1,0
1470,14.329,-1,-1,0
1471,14.339,-1,-2,0
1472,14.349,-1,-1,0
1473,14.359,0,-1,0
1474,14.369,-1,-1,0
1475,14.379,0,-1,0
1476,14.389,-1,-1,0
1477,14.399,-1,-1,0
1478,14.409,-1,-1,0
1479,14.419,-1,-1,0
1480,14.429,0,-1,0
1481,14.439,0,-1,0
1482,14.449,-1,-1,0
1483,14.459,-1,-1,0
1484,14.469,-1,-1,0
1485,14.479,-1,0,0
1486,14.489,-1,0,0
1487,14.499,-1,0,0
1488,14.509,-1,0,0
1489,14.519,-1,0,0
1490,14.529,-1,0,0
1491,14.539,-1,0,0
1492,14.549,-1,0,0
1493,14.559,-1,0,0
1494,14.569,-1,0,0
1495,14.579,-1,1,0
1496,14.589,-1,0,0
1497,14.599,-1,1,0
1498,14.609,-1,1,0
1499,14.619,-1,1,0
1500,14.629,-1,1,0
1501,14.639,-1,1,0
1502,14.649,-1,1,0
1503,14.659,-1,1,0
1504,14.669,-1,2,0
1505,14.679,-1,3,0
1506,14.689,-1,3,0
1507,14.699,-1,2,0
1508,14.709,-1,2,0
1509,14.719,-1,1,0
1510,14.729,-1,1,0
1511,14.739,-1,1,0
1512,14.749,-1,1,0
1513,14.759,-1,1,0
1514,14.769,-1,1,0
1515,14.779,-2,1,0
1516,14.789,-1,1,0
1517,14.799,-1,1,0
1518,14.809,-1,1,0
1519,14.819,-1,1,0
1520,14.829,-1,1,0
1521,14.839,-1,1,0
1522,14.849,-1,1,0
1523,14.859,-1,1,0
1524,14.869,-1,0,0
1525,14.879,-1,0,0
1526,14.889,-1,0,0
1527,14.899,-1,0,0
1528,14.909,-1,0,0
1529,14.919,-1,-1,0
1530,14.929,-1,0,0
1531,14.939,-1,0,0
1532,14.949,-1,0,0
1533,14.959,-1,0,0
1534,14.969,-2,0,0
1535,14.979,-2,0,0
1536,14.989,-2,0,0
1537,14.999,-1,0,0
1538,15.009,-1,0,0
1539,15.019,-1,0,0
1540,15.029,-1,0,0
1541,15.039,-1,0,0
1542,15.049,-1,0,0
1543,15.059,-1,0,0
1544,15.069,-1,0,0
1545,15.079,-1,0,0
1546,15.089,-1,0,0
1547,15.099,-1,1,0
1548,15.109,-1,1,0
1549,15.119,-2,1,0
1550,15.129,-1,1,0
1551,15.139,-1,1,0
1552,15.149,-1,1,0
1553,15.159,-1,1,0
1554,15.169,-1,1,0
1555,15.179,-1,1,0
1556,15.189,-1,1,0
1557,15.199,-1,1,0
1558,15.209,-1,1,0
1559,15.219,-1,1,0
1560,15.229,-1,1,0
1561,15.239,-1,0,0
1562,15.249,-1,1,0
1563,15.259,-1,0,0
1564,15.269,-1,0,0
1565,15.279,-1,0,0
1566,15.289,-1,0,0
1567,15.299,-1,0,0
1568,15.309,-1,0,0
1569,15.319,-1,0,0
1570,15.329,-1,0,0
1571,15.339,-1,0,0
1572,15.349,-1,0,0
1573,15.359,-1,0,0
1574,15.369,-1,-1,0
1575,15.379,-1,-1,0
1576,15.389,-1,-1,0
1577,15.399,-1,-1,0
1578,15.409,-1,-1,0
1579,15.419,-2,-1,0
1580,15.429,-2,-1,0
1581,15.439,-1,-1,0
1582,15.449,-2,-1,0
1583,15.459,-2,-1,0
1584,15.469,-2,-1,0
1585,15.479,-2,-1,0
1586,15.489,-2,-1,0
1587,15.499,-2,-1,0
1588,15.509,-2,-1,0
1589,15.519,-2,-1,0
1590,15.529,-2,0,0
1591,15.539,-2,0,0
1592,15.549,-2,0,0
1593,15.559,-2,0,0
1594,15.569,-2,1,0
1595,15.579,-2,0,0
1596,15.589,-2,0,0
1597,15.599,-2,0,0
1598,15.609,-2,0,0
1599,15.619,-1,0,0
1600,15.629,-1,0,0
1601,15.639,-1,0,0
1602,15.649,-1,-1,0
1603,15.659,-1,-1,0
1604,15.669,-1,-1,0
1605,15.679,-1,-1,0
1606,15.689,-1,-1,0
1607,15.699,-1,-1,0
1608,15.709,-1,-1,0
1609,15.719,-1,-1,0
1610,15.729,-1,-1,0
1611,15.739,-1,-1,0
1612,15.749,-1,-1,0
1613,15.759,-1,-1,0
1614,15.769,-1,-1,0
1615,15.779,-1,-1,0
1616,15.789,-1,-1,0
1617,15.799,-1,-1,0
1618,15.809,-1,-1,0
1619,15.819,-1,-1,0
1620,15.829,-1,-1,0
1621,15.839,-1,-1,0
1622,15.849,-1,-1,0
1623,15.859,-1,-2,0
1624,15.869,-1,-1,0
1625,15.879,-1,-2,0
1626,15.889,-1,-1,0
1627,15.899,-1,-1,0
1628,15.909,-1,-1,0
1629,15.919,-1,-1,0
1630,15.929,-1,-1,0
1631,15.939,-1,-1,0
1632,15.949,-1,-1,0
1633,15.959,-1,-1,0
1634,15.969,-1,-2,0
1635,15.979,-1,-1,0
1636,15.989,-1,-1,0
1637,15.999,-1,-1,0
1638,16.009,-1,-2,0
1639,16.019,-1,-1,0
1640,16.029,-1,-2,0
1641,16.039,-1,-2,0
1642,16.049,-1,-2,0
1643,16.059,0,-2,0
1644,16.069,-1,-2,0
1645,16.079,-1,-1,0
1646,16.089,-1,-2,0
1647,16.099,-1,-1,0
1648,16.109,-1,-1,0
1649,16.119,-1,-1,0
1650,16.129,-1,-1,0
1651,16.139,0,-1,0
1652,16.149,0,-2,0
1653,16.159,0,-1,0
1654,16.169,-1,-1,0
1655,16.179,-1,-1,0
1656,16.189,-1,-1,0
1657,16.199,-1,-2,0
1658,16.209,-1,-1,0
1659,16.219,0,-2,0
1660,16.229,-1,-1,0
1661,16.239,-1,-1,0
1662,16.249,-1,-1,0
1663,16.259,-1,-1,0
1664,16.269,-1,-1,0
1665,16.279,0,-1,0
1666,16.289,0,-1,0
1667,16.299,-1,-1,0
1668,16.309,0,-1,0
1669,16.319,-1,-1,0
1670,16.329,-1,-1,0
1671,16.339,0,-1,0
1672,16.349,0,-1,0
1673,16.359,-1,-1,0
1674,16.369,-1,-1,0
1675,16.379,-1,-1,0
1676,16.389,-1,-1,0
1677,16.399,-1,-1,0
1678,16.409,0,-1,0
1679,16.419,-1,-1,0
1680,16.429,-1,-1,0
1681,16.439,0,-1,0
1682,16.449,-1,-1,0
1683,16.459,0,-1,0
1684,16.469,-1,-1,0
1685,16.479,0,-1,0
1686,16.489,-1,-1,0
1687,16.499,-1,-1,0
1688,16.509,-1,-1,0
1689,16.519,-1,-1,0
1690,16.529,-1,-1,0
1691,16.539,-1,-1,0
1692,16.549,-1,-1,0
1693,16.559,-1,-1,0
1694,16.569,-1,-1,0
1695,16.579,-1,-1,0
1696,16.589,-1,-2,0
1697,16.599,-1,-2,0
1698,16.609,-1,-2,0
1699,16.619,-1,-2,0
1700,16.629,-1,-2,0
1701,16.639,-1,-2,0
1702,16.649,-1,-2,0
1703,16.659,-1,-1,0
1704,16.669,-1,-1,0
1705,16.679,-1,-1,0
1706,16.689,-1,-1,0
1707,16.699,-1,-1,0
1708,16.709,-1,-1,0
1709,16.719,-1,-1,0
1710,16.729,-1,-1,0
1711,16.739,-1,-1,0
1712,16.749,-1,-1,0
1713,16.759,-1,0,0
1714,16.769,-1,0,0
1715,16.779,-1,0,0
1716,16.789,-1,0,0
1717,16.799,-1,0,0
1718,16.809,-1,0,0
1719,16.819,-1,0,0
1720,16.829,-1,0,0
1721,16.839,-1,0,0
1722,16.849,-1,0,0
1723,16.859,-1,0,0
1724,16.869,-1,0,0
1725,16.879,-1,0,0
1726,16.889,-1,0,0
1727,16.899,-1,0,0
1728,16.909,-1,0,0
1729,16.919,-2,0,0
1730,16.929,-2,1,0
1731,16.939,-1,1,0
1732,16.949,-2,1,0
1733,16.959,-2,1,0
1734,16.969,-1,1,0
1735,16.979,-1,0,0
1736,16.989,-1,0,0
1737,16.999,-1,1,0
1738,17.009,-1,0,0
1739,17.019,-2,0,0
1740,17.029,-2,1,0
1741,17.039,-2,1,0
1742,17.049,-2,1,0
1743,17.059,-2,0,0
1744,17.069,-1,0,0
1745,17.079,-1,0,0
1746,17.089,-2,0,0
1747,17.099,-1,0,0
1748,17.109,-1,0,0
1749,17.119,-1,0,0
1750,17.129,-2,0,0
1751,17.139,-2,0,0
1752,17.149,-2,0,0
1753,17.159,-2,1,0
1754,17.169,-2,0,0
1755,17.179,-2,1,0
1756,17.189,-2,0,0
1757,17.199,-2,1,0
1758,17.209,-2,1,0
1759,17.219,-2,0,0
1760,17.229,-2,0,0
1761,17.239,-2,0,0
1762,17.249,-2,0,0
1763,17.259,-2,0,0
1764,17.269,-2,0,0
1765,17.279,-2,0,0
1766,17.289,-2,0,0
1767,17.299,-2,0,0
1768,17.309,-2,0,0
1769,17.319,-1,0,0
1770,17.329,-1,0,0
1771,17.339,-2,0,0
1772,17.349,-2,0,0
1773,17.359,-2,0,0
1774,17.369,-1,1,0
1775,17.379,-2,1,0
1776,17.389,-2,1,0
1777,17.399,-2,1,0
1778,17.409,-2,1,0
1779,17.419,-2,1,0
1780,17.429,-2,1,0
1781,17.439,-2,1,0
1782,17.449,-2,1,0
1783,17.459,-2,1,0
1784,17.469,-2,1,0
1785,17.479,-2,1,0
1786,17.489,-2,0,0
1787,17.499,-1,0,0
1788,17.509,-2,0,0
1789,17.519,-1,0,0
1790,17.529,-1,0,0
1791,17.539,-1,0,0
1792,17.549,-1,0,0
1793,17.559,-1,0,0
1794,17.569,-1,0,0
1795,17.579,-1,0,0
1796,17.589,-1,0,0
1797,17.599,-1,0,0
1798,17.609,-1,-1,0
1799,17.619,-1,0,0
1800,17.629,-1,-1,0
1801,17.639,-1,-1,0
1802,17.649,-1,-1,0
1803,17.659,-1,-1,0
1804,17.669,-1,-1,0
1805,17.679,-1,-1,0
1806,17.689,-1,-1,0
1807,17.699,-1,-1,0
1808,17.709,-1,-1,0
1809,17.719,-2,-1,0
1810,17.729,-1,-1,0
1811,17.739,-1,0,0
1812,17.749,-1,-1,0
1813,17.759,-1,0,0
1814,17.769,-1,-1,0
1815,17.779,-1,-1,0
1816,17.789,-1,-1,0
1817,17.799,-2,-1,0
1818,17.809,-1,-1,0
1819,17.819,-1,-1,0
1820,17.829,-1,-1,0
1821,17.839,-1,-1,0
1822,17.849,-1,-1,0
1823,17.859,-1,-1,0
1824,17.869,-1,-2,0
1825,17.879,-1,-2,0
1826,17.889,-1,-2,0
1827,17.899,-1,-2,0
1828,17.909,-1,-2,0
1829,17.919,-1,-2,0
1830,17.929,-1,-2,0
1831,17.939,-1,-2,0
1832,17.949,-1,-2,0
1833,17.959,-1,-2,0
1834,17.969,-1,-2,0
1835,17.979,-1,-2,0
1836,17.989,-1,-2,0
1837,17.999,-1,-2,0
1838,18.009,-1,-2,0
1839,18.019,-1,-2,0
1840,18.029,-1,-2,0
1841,18.039,-1,-2,0
1842,18.049,-1,-2,0
1843,18.059,-1,-1,0
1844,18.069,-1,-2,0
1845,18.079,-1,-2,0
1846,18.089,-1,-2,0
1847,18.099,-1,-2,0
1848,18.109,-1,-2,0
1849,18.119,-1,-2,0
1850,18.129,-1,-2,0
1851,18.139,-1,-1,0
1852,18.149,-1,-1,0
1853,18.159,-1,-1,0
1854,18.169,-1,-1,0
1855,18.179,-1,-1,0
1856,18.189,-1,-1,0
1857,18.199,-1,-1,0
1858,18.209,-1,-1,0
1859,18.219,-1,0,0
1860,18.229,-1,-1,0
1861,18.239,-1,0,0
1862,18.249,-1,0,0
1863,18.259,-1,0,0
1864,18.269,-1,0,0
1865,18.279,-1,0,0
1866,18.289,-1,0,0
1867,18.299,-1,0,0
1868,18.309,-1,0,0
1869,18.319,-1,0,0
1870,18.329,-1,0,0
1871,18.339,-1,0,0
1872,18.349,-1,0,0
1873,18.359,-1,0,0
1874,18.369,-1,0,0
1875,18.379,-1,1,0
1876,18.389,-1,0,0
1877,18.399,-1,1,0
1878,18.409,-1,0,0
1879,18.419,-1,0,0
1880,18.429,-1,0,0
1881,18.439,-1,0,0
1882,18.449,-1,0,0
1883,18.459,-1,1,0
1884,18.469,-1,1,0
1885,18.479,-1,1,0
1886,18.489,-1,1,0
1887,18.499,-1,1,0
1888,18.509,-1,1,0
1889,18.519,-1,1,0
1890,18.529,-1,1,0
1891,18.539,-1,1,0
1892,18.549,-1,1,0
1893,18.559,-1,1,0
1894,18.569,-1,1,0
1895,18.579,-1,1,0
1896,18.589,-1,1,0
1897,18.599,-1,1,0
1898,18.609,-1,1,0
1899,18.619,-1,1,0
1900,18.629,-1,1,0
1901,18.639,-1,1,0
1902,18.649,-1,1,0
1903,18.659,-1,1,0
1904,18.669,-1,1,0
1905,18.679,-1,1,0
1906,18.689,-1,1,0
1907,18.699,-1,0,0
1908,18.709,-1,0,0
1909,18.719,-1,0,0
1910,18.729,-1,1,0
1911,18.739,-1,0,0
1912,18.749,-1,1,0
1913,18.759,-1,0,0
1914,18.769,-1,1,0
1915,18.779,-1,1,0
1916,18.789,-2,0,0
1917,18.799,-1,0,0
1918,18.809,-1,0,0
1919,18.819,-2,1,0
1920,18.829,-1,0,0
1921,18.839,-1,0,0
1922,18.849,-2,0,0
1923,18.859,-2,0,0
1924,18.869,-2,1,0
1925,18.879,-2,1,0
1926,18.889,-2,1,0
1927,18.899,-2,1,0
1928,18.909,-2,1,0
1929,18.919,-2,0,0
1930,18.929,-2,0,0
1931,18.939,-2,0,0
1932,18.949,-2,0,0
1933,18.959,-2,0,0
1934,18.969,-2,0,0
1935,18.979,-2,0,0
1936,18.989,-2,0,0
1937,18.999,-2,0,0
1938,19.009,-2,0,0
1939,19.019,-2,0,0
1940,19.029,-2,0,0
1941,19.039,-2,0,0
1942,19.049,-2,0,0
1943,19.059,-2,0,0
1944,19.069,-2,0,0
1945,19.079,-2,0,0
1946,19.089,-2,0,0
1947,19.099,-2,0,0
1948,19.109,-2,0,0
1949,19.119,-1,0,0
1950,19.129,-2,0,0
1951,19.139,-2,0,0
1952,19.149,-2,0,0
1953,19.159,-2,0,0
1954,19.169,-2,-1,0
1955,19.179,-2,-1,0
1956,19.189,-2,-1,0
1957,19.199,-2,0,0
1958,19.209,-2,0,0
1959,19.219,-2,-1,0
1960,19.229,-2,0,0
1961,19.239,-1,-1,0
1962,19.249,-2,-1,0
1963,19.259,-2,-1,0
1964,19.269,-2,-1,0
1965,19.279,-2,-1,0
1966,19.289,-2,-1,0
1967,19.299,-2,-1,0
1968,19.309,-2,-1,0
1969,19.319,-2,-1,0
1970,19.329,-2,0,0
1971,19.339,-2,-1,0
1972,19.349,-2,0,0
1973,19.359,-2,0,0
1974,19.369,-2,0,0
1975,19.379,-2,0,0
1976,19.389,-2,0,0
1977,19.399,-2,0,0
1978,19.409,-2,-1,0
1979,19.419,-2,-1,0
1980,19.429,-2,0,0
1981,19.439,-2,0,0
1982,19.449,-2,0,0
1983,19.459,-2,0,0
1984,19.469,-2,0,0
1985,19.479,-2,0,0
1986,19.489,-2,0,0
1987,19.499,-2,0,0
1988,19.509,-2,0,0
1989,19.519,-2,-1,0
1990,19.529,-2,0,0
1991,19.539,-2,-1,0
1992,19.549,-2,0,0
1993,19.559,-2,0,0
1994,19.569,-2,-1,0
1995,19.579,-2,0,0
1996,19.589,-2,-1,0
1997,19.599,-2,-1,0
1998,19.609,-2,-1,0
1999,19.619,-2,-1,0
2000,19.629,-2,-1,0
2001,19.639,-2,-1,0
2002,19.649,-2,-1,0
2003,19.659,-2,-1,0
2004,19.669,-2,-1,0
2005,19.679,-2,-1,0
2006,19.689,-2,-1,0
2007,19.699,-2,-1,0
2008,19.709,-2,-1,0
2009,19.719,-2,-1,0
2010,19.729,-2,-1,0
2011,19.739,-2,-1,0
2012,19.749,-2,-1,0
2013,19.759,-2,-1,0
2014,19.769,-2,-1,0
2015,19.779,-2,-1,0
2016,19.789,-2,-1,0
2017,19.799,-2,-1,0
2018,19.809,-2,-1,0
2019,19.819,-2,-1,0
2020,19.829,-2,0,0
2021,19.839,-2,-1,0
2022,19.849,-2,-1,0
2023,19.859,-2,-1,0
2024,19.869,-2,-1,0
2025,19.879,-2,-1,0
2026,19.889,-2,-1,0
2027,19.899,-2,-1,0
2028,19.909,-2,-1,0
2029,19.919,-2,-1,0
2030,19.929,-2,-1,0
2031,19.939,-2,-1,0
2032,19.949,-2,-1,0
2033,19.959,-1,-1,0
2034,19.969,-2,-1,0
2035,19.979,-2,-1,0
2036,19.989,-2,-1,0
2037,19.999,-2,-1,0
2038,20.009,-2,-1,0
2039,20.019,-2,-1,0
2040,20.029,-2,-1,0
2041,20.039,-2,-1,0
2042,20.049,-2,-1,0
2043,20.059,-2,-1,0
2044,20.069,-2,-1,0
2045,20.079,-2,-1,0
2046,20.089,-2,-1,0
2047,20.099,-2,-1,0
2048,20.109,-2,-1,0
2049,20.119,-2,-1,0
2050,20.129,-2,-1,0
2051,20.139,-2,-1,0
2052,20.149,-2,-1,0
2053,20.159,-2,-1,0
2054,20.169,-2,-1,0
2055,20.179,-2,-1,0
2056,20.189,-2,-1,0
2057,20.199,-2,-1,0
2058,20.209,-2,-1,0
2059,20.219,-2,-1,0
2060,20.229,-2,-1,0
2061,20.239,-2,-1,0
2062,20.249,-2,-1,0
2063,20.259,-2,-1,0
2064,20.269,-2,-1,0
2065,20.279,-2,-1,0
2066,20.289,-2,-1,0
2067,20.299,-1,-1,0
2068,20.309,-1,-1,0
2069,20.319,-1,-1,0
2070,20.329,-1,-1,0
2071,20.339,-2,-1,0
2072,20.349,-2,-1,0
2073,20.359,-2,-1,0
2074,20.369,-2,-1,0
2075,20.379,-2,-1,0
2076,20.389,-2,-1,0
2077,20.399,-2,-1,0
2078,20.409,-2,-1,0
2079,20.419,-2,-1,0
2080,20.429,-1,-1,0
2081,20.439,-2,-1,0
2082,20.449,-2,-1,0
2083,20.459,-2,-1,0
2084,20.469,-1,-1,0
2085,20.479,-1,-1,0
2086,20.489,-2,-1,0
2087,20.499,-2,-1,0
2088,20.509,-2,-1,0
2089,20.519,-2,-1,0
2090,20.529,-2,-1,0
2091,20.539,-2,-1,0
2092,20.549,-2,-1,0
2093,20.559,-2,-1,0
2094,20.569,-2,-1,0
2095,20.579,-2,-1,0
2096,20.589,-2,-1,0
2097,20.599,-2,-1,0
2098,20.609,-2,-1,0
2099,20.619,-2,-1,0
2100,20.629,-2,-1,0
2101,20.639,-2,-1,0
2102,20.649,-2,-1,0
2103,20.659,-2,-1,0
2104,20.669,-2,0,0
2105,20.679,-2,-1,0
2106,20.689,-2,-1,0
2107,20.699,-2,-1,0
2108,20.709,-2,0,0
2109,20.719,-2,-1,0
2110,20.729,-1,-1,0
2111,20.739,-1,-1,0
2112,20.749,-2,0,0
2113,20.759,-1,0,0
2114,20.769,-2,0,0
2115,20.779,-1,0,0
2116,20.789,-1,0,0
2117,20.799,-2,0,0
2118,20.809,-1,0,0
2119,20.819,-1,0,0
2120,20.829,-1,0,0
2121,20.839,-1,0,0
2122,20.849,-1,0,0
2123,20.859,-1,0,0
2124,20.869,-1,0,0
2125,20.879,-1,0,0
2126,20.889,-1,0,0
2127,20.899,-1,0,0
2128,20.909,-1,0,0
2129,20.919,-1,0,0
2130,20.929,-1,0,0
2131,20.939,-1,0,0
2132,20.949,-1,0,0
2133,20.959,-1,0,0
2134,20.969,-1,0,0
2135,20.979,-1,0,0
2136,20.989,-1,0,0
2137,20.999,-1,0,0
2138,21.009,-1,1,0
2139,21.019,-1,0,0
2140,21.029,-1,1,0
2141,21.039,-1,0,0
2142,21.049,-1,0,0
2143,21.059,-1,1,0
2144,21.069,-1,1,0
2145,21.079,-1,0,0
2146,21.089,-1,0,0
2147,21.099,-1,0,0
2148,21.109,-1,0,0
2149,21.119,-1,0,0
2150,21.129,-1,0,0
2151,21.139,-1,0,0
2152,21.149,-1,1,0
2153,21.159,-1,0,0
2154,21.169,-1,0,0
2155,21.179,-1,0,0
2156,21.189,-1,1,0
2157,21.199,-1,0,0
2158,21.209,-1,1,0
2159,21.219,-1,0,0
2160,21.229,-1,0,0
2161,21.239,-1,0,0
2162,21.249,-1,0,0
2163,21.259,-1,0,0
2164,21.269,-1,1,0
2165,21.279,-1,0,0
2166,21.289,-1,1,0
2167,21.299,-1,1,0
2168,21.309,-1,1,0
2169,21.319,-1,1,0
2170,21.329,-2,1,0
2171,21.339,-2,1,0
2172,21.349,-1,1,0
2173,21.359,-1,0,0
2174,21.369,-1,0,0
2175,21.379,-1,0,0
2176,21.389,-1,0,0
2177,21.399,-1,0,0
2178,21.409,-1,0,0
2179,21.419,-2,0,0
2180,21.429,-1,0,0
2181,21.439,-1,0,0
2182,21.449,-1,0,0
2183,21.459,-1,0,0
2184,21.469,-1,0,0
2185,21.479,-1,-1,0
2186,21.489,-1,-1,0
2187,21.499,-1,-1,0
2188,21.509,-2,-1,0
2189,21.519,-1,-1,0
2190,21.529,-1,-1,0
2191,21.539,-2,-1,0
2192,21.549,-2,-1,0
2193,21.559,-2,-1,0
2194,21.569,-2,-1,0
2195,21.579,-2,-1,0
2196,21.589,-2,-1,0
2197,21.599,-2,-1,0
2198,21.609,-1,-1,0
2199,21.619,-2,-1,0
2200,21.629,-1,-1,0
2201,21.639,-1,-1,0
2202,21.649,-1,-1,0
2203,21.659,-1,-1,0
2204,21.669,-1,-1,0
2205,21.679,-1,-1,0
2206,21.689,-1,-1,0
2207,21.699,-1,-1,0
2208,21.709,-1,-1,0
2209,21.719,-1,-1,0
2210,21.729,-1,0,0
2211,21.739,-1,0,0
2212,21.749,-1,0,0
2213,21.759,-1,0,0
2214,21.769,-1,0,0
2215,21.779,-1,0,0
2216,21.789,-1,0,0
2217,21.799,-1,0,0
2218,21.809,-1,0,0
2219,21.819,-1,0,0
2220,21.829,-1,0,0
2221,21.839,-1,0,0
2222,21.849,-1,0,0
2223,21.859,-1,0,0
2224,21.869,-1,0,0
2225,21.879,-1,0,0
2226,21.889,-1,0,0
2227,21.899,-1,0,0
2228,21.909,-1,0,0
2229,21.919,-1,0,0
2230,21.929,-1,0,0
2231,21.939,-1,0,0
2232,21.949,-2,0,0
2233,21.959,-2,1,0
2234,21.969,-1,0,0
2235,21.979,-1,0,0
2236,21.989,-2,0,0
2237,21.999,-1,0,0
2238,22.009,-1,0,0
2239,22.019,-1,0,0
2240,22.029,-1,0,0
2241,22.039,-1,0,0
2242,22.049,-1,0,0
2243,22.059,-1,0,0
2244,22.069,-1,0,0
2245,22.079,-1,0,0
2246,22.089,-1,0,0
2247,22.099,-1,0,0
2248,22.109,-1,0,0
2249,22.119,-1,0,0
2250,22.129,-1,0,0
2251,22.139,-1,0,0
2252,22.149,-1,0,0
2253,22.159,-1,0,0
2254,22.169,-1,0,0
2255,22.179,-2,0,0
2256,22.189,-1,0,0
2257,22.199,-1,0,0
2258,22.209,-2,0,0
2259,22.219,-1,0,0
2260,22.229,-1,0,0
2261,22.239,-1,0,0
2262,22.249,-1,0,0
2263,22.259,-1,0,0
2264,22.269,-1,0,0
2265,22.279,-2,0,0
2266,22.289,-1,0,0
2267,22.299,-1,-1,0
2268,22.309,-1,0,0
2269,22.319,-1,0,0
2270,22.329,-1,0,0
2271,22.339,-1,0,0
2272,22.349,-1,0,0
2273,22.359,-1,0,0
2274,22.369,-1,0,0
2275,22.379,-1,0,0
2276,22.389,-1,0,0
2277,22.399,-1,0,0
2278,22.409,-1,1,0
2279,22.419,-1,1,0
2280,22.429,-1,1,0
2281,22.439,-1,0,0
2282,22.449,-1,1,0
2283,22.459,-1,1,0
2284,22.469,-1,0,0
2285,22.479,-1,1,0
2286,22.489,-1,0,0
2287,22.499,-1,1,0
2288,22.509,-1,1,0
2289,22.519,-1,1,0
2290,22.529,-1,1,0
2291,22.539,-1,1,0
2292,22.549,-1,0,0
2293,22.559,-1,1,0
2294,22.569,-1,1,0
2295,22.579,-1,1,0
2296,22.589,-1,1,0
2297,22.599,-1,1,0
2298,22.609,-1,1,0
2299,22.619,-1,1,0
2300,22.629,-1,1,0
2301,22.639,-1,1,0
2302,22.649,-1,1,0
2303,22.659,-1,1,0
2304,22.669,-1,1,0
2305,22.679,-1,1,0
2306,22.689,-1,1,0
2307,22.699,-1,0,0
2308,22.709,-1,0,0
2309,22.719,-1,0,0
2310,22.729,-1,1,0
2311,22.739,-1,0,0
2312,22.749,-1,1,0
2313,22.759,-1,0,0
2314,22.769,-1,0,0
2315,22.779,-1,0,0
2316,22.789,-1,0,0
2317,22.799,-1,0,0
2318,22.809,-1,0,0
2319,22.819,-1,1,0
2320,22.829,-1,0,0
2321,22.839,-1,1,0
2322,22.849,-1,0,0
2323,22.859,-1,0,0
2324,22.869,-1,1,0
2325,22.879,-1,0,0
2326,22.889,-1,0,0
2327,22.899,-1,0,0
2328,22.909,-1,0,0
2329,22.919,-1,0,0
2330,22.929,-1,0,0
2331,22.939,-1,0,0
2332,22.949,-1,0,0
2333,22.959,-1,0,0
2334,22.969,-1,0,0
2335,22.979,-1,0,0
2336,22.989,-1,0,0
2337,22.999,-1,0,0
2338,23.009,-1,0,0
2339,23.019,-2,0,0
2340,23.029,-1,0,0
2341,23.039,-2,0,0
2342,23.049,-1,0,0
2343,23.059,-1,0,0
2344,23.069,-1,0,0
2345,23.079,-1,0,0
2346,23.089,-2,-1,0
2347,23.099,-2,0,0
2348,23.109,-1,0,0
2349,23.119,-1,0,0
2350,23.129,-1,0,0
2351,23.139,-1,0,0
2352,23.149,-2,0,0
2353,23.159,-2,0,0
2354,23.169,-2,-1,0
2355,23.179,-2,-1,0
2356,23.189,-2,0,0
2357,23.199,-2,-1,0
2358,23.209,-2,-1,0
2359,23.219,-2,-1,0
2360,23.229,-2,-1,0
2361,23.239,-2,-1,0
2362,23.249,-2,-1,0
2363,23.259,-1,-1,0
2364,23.269,-2,-1,0
2365,23.279,-2,-1,0
2366,23.289,-2,-1,0
2367,23.299,-2,0,0
2368,23.309,-1,-1,0
2369,23.319,-2,-1,0
2370,23.329,-2,-1,0
2371,23.339,-2,-1,0
2372,23.349,-2,-1,0
2373,23.359,-2,-1,0
2374,23.369,-2,-1,0
2375,23.379,-2,-1,0
2376,23.389,-2,-1,0
2377,23.399,-2,-1,0
2378,23.409,-2,-1,0
2379,23.419,-3,0,0
2380,23.429,-3,0,0
2381,23.439,-2,-1,0
2382,23.449,-2,-1,0
2383,23.459,-2,0,0
2384,23.469,-2,-1,0
2385,23.479,-3,0,0
2386,23.489,-2,-1,0
2387,23.499,-2,-1,0
2388,23.509,-2,-1,0
2389,23.519,-3,-1,0
2390,23.529,-2,-1,0
2391,23.539,-2,-1,0
2392,23.549,-3,-1,0
2393,23.559,-3,-1,0
2394,23.569,-2,-1,0
2395,23.579,-2,-1,0
2396,23.589,-2,-1,0
2397,23.599,-2,-1,0
2398,23.609,-2,-1,0
2399,23.619,-2,-1,0
2400,23.629,-2,0,0
2401,23.639,-2,0,0
2402,23.649,-2,0,0
2403,23.659,-2,0,0
2404,23.669,-2,1,0
2405,23.679,-2,0,0
2406,23.689,-2,0,0
2407,23.699,-2,0,0
2408,23.709,-2,0,0
2409,23.719,-2,0,0
2410,23.729,-2,0,0
2411,23.739,-2,0,0
2412,23.749,-2,0,0
2413,23.759,-2,0,0
2414,23.769,-2,1,0
2415,23.779,-2,1,0
2416,23.789,-2,0,0
2417,23.799,-2,0,0
2418,23.809,-2,0,0
2419,23.819,-2,0,0
2420,23.829,-2,0,0
2421,23.839,-2,0,0
2422,23.849,-2,-1,0
2423,23.859,-2,-1,0
2424,23.869,-2,-1,0
2425,23.879,-2,-1,0
2426,23.889,-1,-1,0
2427,23.899,-1,-1,0
2428,23.909,-1,-1,0
2429,23.919,-1,-1,0
2430,23.929,-1,-1,0
2431,23.939,-1,-1,0
2432,23.949,-1,-1,0
2433,23.959,-1,-1,0
2434,23.969,-1,-1,0
2435,23.979,-1,-1,0
2436,23.989,-1,-1,0
2437,23.999,-1,-1,0
2438,24.009,-1,0,0
2439,24.019,-1,0,0
2440,24.029,-1,0,0
2441,24.039,-1,0,0
2442,24.049,-1,0,0
2443,24.059,-1,0,0
2444,24.069,-1,0,0
2445,24.079,-1,0,0
2446,24.089,-1,0,0
2447,24.099,-1,0,0
2448,24.109,-1,0,0
2449,24.119,-2,0,0
2450,24.129,-2,0,0
2451,24.139,-2,-1,0
2452,24.149,-2,-1,0
2453,24.159,-2,-1,0
2454,24.169,-2,0,0
2455,24.179,-2,0,0
2456,24.189,-2,0,0
2457,24.199,-2,0,0
2458,24.209,-2,0,0
2459,24.219,-2,0,0
2460,24.229,-2,-1,0
2461,24.239,-2,-1,0
2462,24.249,-2,-1,0
2463,24.259,-2,-1,0
2464,24.269,-2,-1,0
2465,24.279,-2,-1,0
2466,24.289,-2,-1,0
2467,24.299,-2,-1,0
2468,24.309,-2,-1,0
2469,24.319,-2,-1,0
2470,24.329,-2,-1,0
2471,24.339,-2,-1,0
2472,24.349,-2,-1,0
2473,24.359,-2,-1,0
2474,24.369,-1,-1,0
2475,24.379,-2,0,0
2476,24.389,-2,-1,0
2477,24.399,-2,0,0
2478,24.409,-2,0,0
2479,24.419,-1,0,0
2480,24.429,-2,0,0
2481,24.439,-2,0,0
2482,24.449,-2,0,0
2483,24.459,-1,1,0
2484,24.469,-1,1,0
2485,24.479,-1,1,0
2486,24.489,-1,0,0
2487,24.499,-1,0,0
2488,24.509,-1,1,0
2489,24.519,-1,0,0
2490,24.529,-1,0,0
2491,24.539,-1,0,0
2492,24.549,-1,0,0
2493,24.559,-1,0,0
2494,24.569,-1,0,0
2495,24.579,-1,0,0
2496,24.589,-1,0,0
2497,24.599,-1,0,0
2498,24.609,-1,0,0
2499,24.619,-1,0,0
2500,24.629,-1,0,0
2501,24.639,-1,0,0
2502,24.649,-1,0,0
2503,24.659,-1,0,0
2504,24.669,-1,0,0
2505,24.679,-1,0,0
2506,24.689,-1,0,0
2507,24.699,-1,-1,0
2508,24.709,-1,-1,0
2509,24.719,-1,-1,0
2510,24.729,-1,-1,0
2511,24.739,-1,-1,0
2512,24.749,-1,-1,0
2513,24.759,-1,-1,0
2514,24.769,-1,-1,0
2515,24.779,-1,-1,0
2516,24.789,-1,-1,0
2517,24.799,-1,-2,0
2518,24.809,-1,-2,0
2519,24.819,-1,-2,0
2520,24.829,-1,-2,0
2521,24.839,-1,-2,0
2522,24.849,-1,-2,0
2523,24.859,-1,-2,0
2524,24.869,-1,-2,0
2525,24.879,-1,-2,0
2526,24.889,-1,-2,0
2527,24.899,-1,-2,0
2528,24.909,-1,-2,0
2529,24.919,-1,-2,0
2530,24.929,-1,-2,0
2531,24.939,-1,-2,0
2532,24.949,-1,-2,0
2533,24.959,0,-2,0
2534,24.969,0,-1,0
2535,24.979,-1,-1,0
2536,24.989,-1,-2,0
2537,24.999,-1,-1,0
2538,25.009,0,-1,0
2539,25.019,-1,-1,0
2540,25.029,0,-2,0
2541,25.039,-1,-2,0
2542,25.049,0,-2,0
2543,25.059,-1,-2,0
2544,25.069,-1,-2,0
2545,25.079,-1,-2,0
2546,25.089,-1,-2,0
2547,25.099,-1,-1,0
2548,25.109,0,-2,0
2549,25.119,-1,-2,0
2550,25.129,-1,-1,0
2551,25.139,0,-1,0
2552,25.149,-1,-1,0
2553,25.159,-1,-1,0
2554,25.169,-1,-1,0
2555,25.179,0,-1,0
2556,25.189,0,-1,0
2557,25.199,0,-1,0
2558,25.209,-1,-1,0
2559,25.219,-1,-1,0
2560,25.229,0,-1,0
2561,25.239,-1,-1,0
2562,25.249,0,-1,0
2563,25.259,-1,0,0
2564,25.269,0,0,0
2565,25.279,-1,0,0
2566,25.289,-1,0,0
2567,25.299,-1,-1,0
2568,25.309,0,0,0
2569,25.319,-1,-1,0
2570,25.329,-1,0,0
2571,25.339,-1,0,0
2572,25.349,-1,0,0
2573,25.359,-1,0,0
2574,25.369,-1,0,0
2575,25.379,-1,0,0
2576,25.389,-1,1,0
2577,25.399,-1,1,0
2578,25.409,-1,1,0
2579,25.419,-1,1,0
2580,25.429,-1,1,0
2581,25.439,-1,1,0
2582,25.449,-1,1,0
2583,25.459,-1,1,0
2584,25.469,-1,1,0
2585,25.479,-1,1,0
2586,25.489,-1,1,0
2587,25.499,-1,1,0
2588,25.509,-1,1,0
2589,25.519,-1,1,0
2590,25.529,-1,1,0
2591,25.539,-1,1,0
2592,25.549,-1,1,0
2593,25.559,-1,1,0
2594,25.569,-1,1,0
2595,25.579,-1,1,0
2596,25.589,-1,1,0
2597,25.599,-1,1,0
2598,25.609,-1,1,0
2599,25.619,-1,0,0
2600,25.629,-1,0,0
2601,25.639,-1,0,0
2602,25.649,-1,0,0
2603,25.659,-1,0,0
2604,25.669,-1,0,0
2605,25.679,-1,0,0
2606,25.689,-1,0,0
2607,25.699,-1,-1,0
2608,25.709,-1,-1,0
2609,25.719,-1,-1,0
2610,25.729,-1,-1,0
2611,25.739,-1,-1,0
2612,25.749,-1,-1,0
2613,25.759,-1,-1,0
2614,25.769,-1,-1,0
2615,25.779,-1,-1,0
2616,25.789,-1,-2,0
2617,25.799,-1,-1,0
2618,25.809,-1,-1,0
2619,25.819,-1,-2,0
2620,25.829,-1,-2,0
2621,25.839,-1,-2,0
2622,25.849,-1,-2,0
2623,25.859,-1,-2,0
2624,25.869,-1,-2,0
2625,25.879,-1,-2,0
2626,25.889,-1,-2,0
2627,25.899,-1,-2,0
2628,25.909,-1,-2,0
2629,25.919,-1,-2,0
2630,25.929,-2,-2,0
2631,25.939,-2,-2,0
2632,25.949,-2,-2,0
2633,25.959,-1,-2,0
2634,25.969,-2,-2,0
2635,25.979,-1,-2,0
2636,25.989,-1,-2,0
2637,25.999,-2,-2,0
2638,26.009,-1,-2,0
2639,26.019,-1,-2,0
2640,26.029,-2,-2,0
2641,26.039,-1,-1,0
2642,26.049,-2,-1,0
2643,26.059,-2,-1,0
2644,26.069,-1,-2,0
2645,26.079,-1,-2,0
2646,26.089,-2,-1,0
2647,26.099,-2,-1,0
2648,26.109,-2,-1,0
2649,26.119,-2,-1,0
2650,26.129,-2,-1,0
2651,26.139,-2,-1,0
2652,26.149,-2,-1,0
2653,26.159,-2,0,0
2654,26.169,-2,0,0
2655,26.179,-2,0,0
2656,26.189,-1,0,0
2657,26.199,-2,0,0
2658,26.209,-2,0,0
2659,26.219,-2,0,0
2660,26.229,-2,0,0
2661,26.239,-1,0,0
2662,26.249,-2,0,0
2663,26.259,-2,0,0
2664,26.269,-2,0,0
2665,26.279,-1,0,0
2666,26.289,-2,0,0
2667,26.299,-2,0,0
2668,26.309,-2,0,0
2669,26.319,-2,0,0
2670,26.329,-2,0,0
2671,26.339,-2,0,0
2672,26.349,-1,-1,0
2673,26.359,-2,-1,0
2674,26.369,-2,-1,0
2675,26.379,-2,-1,0
2676,26.389,-2,-1,0
2677,26.399,-2,-1,0
2678,26.409,-2,-1,0
2679,26.419,-1,-1,0
2680,26.429,-1,-1,0
2681,26.439,-2,-1,0
2682,26.449,-2,-1,0
2683,26.459,-1,-1,0
2684,26.469,-2,-1,0
2685,26.479,-1,-1,0
2686,26.489,-2,-1,0
2687,26.499,-2,-1,0
2688,26.509,-2,-1,0
2689,26.519,-2,-1,0
2690,26.529,-2,-1,0
2691,26.539,-2,-1,0
2692,26.549,-2,-1,0
2693,26.559,-2,-1,0
2694,26.569,-2,-1,0
2695,26.579,-2,0,0
2696,26.589,-2,0,0
2697,26.599,-2,0,0
2698,26.609,-2,0,0
2699,26.619,-2,0,0
2700,26.629,-2,0,0
2701,26.639,-2,0,0
2702,26.649,-2,-1,0
2703,26.659,-2,0,0
2704,26.669,-2,-1,0
2705,26.679,-2,0,0
2706,26.689,-2,0,0
2707,26.699,-2,0,0
2708,26.709,-2,0,0
2709,26.719,-2,0,0
2710,26.729,-2,0,0
2711,26.739,-2,0,0
2712,26.749,-2,-1,0
2713,26.759,-2,-1,0
2714,26.769,-2,-1,0
2715,26.779,-2,-1,0
2716,26.789,-1,-1,0
2717,26.799,-2,-1,0
2718,26.809,-2,-1,0
2719,26.819,-1,-1,0
2720,26.829,-2,-1,0
2721,26.839,-1,-2,0
2722,26.849,-1,-1,0
2723,26.859,-1,-1,0
2724,26.869,-1,-1,0
2725,26.879,-1,-1,0
2726,26.889,-1,-1,0
2727,26.899,-1,-1,0
2728,26.909,-1,-1,0
2729,26.919,-1,-1,0
2730,26.929,-1,-1,0
2731,26.939,-1,-1,0
2732,26.949,-1,-1,0
2733,26.959,-2,0,0
2734,26.969,-1,0,0
2735,26.979,-1,0,0
2736,26.989,-1,1,0
2737,26.999,-1,1,0
2738,27.009,-1,1,0
2739,27.019,-1,1,0
2740,27.029,-1,0,0
2741,27.039,-1,0,0
2742,27.049,-1,0,0
2743,27.059,-1,0,0
2744,27.069,-1,0,0
2745,27.079,-1,-1,0
2746,27.089,-1,-1,0
2747,27.099,-1,-1,0
2748,27.109,-1,-1,0
2749,27.119,-1,-1,0
2750,27.129,-1,-1,0
2751,27.139,-1,-2,0
2752,27.149,-1,-1,0
2753,27.159,-1,-2,0
2754,27.169,-1,-2,0
2755,27.179,-1,-2,0
2756,27.189,-1,-2,0
2757,27.199,-1,-1,0
2758,27.209,-1,-1,0
2759,27.219,-1,-1,0
2760,27.229,-1,-1,0
2761,27.239,-1,-1,0
2762,27.249,-1,-1,0
2763,27.259,-1,0,0
2764,27.269,-1,0,0
2765,27.279,-1,0,0
2766,27.289,-1,1,0
2767,27.299,-1,1,0
2768,27.309,-1,1,0
2769,27.319,-1,1,0
2770,27.329,-1,0,0
2771,27.339,-1,0,0
2772,27.349,-1,0,0
2773,27.359,-1,0,0
2774,27.369,0,0,0
2775,27.379,-1,0,0
2776,27.389,-1,-1,0
2777,27.399,-1,-1,0
2778,27.409,-1,-1,0
2779,27.419,-1,-1,0
2780,27.429,-1,-1,0
2781,27.439,-1,-2,0
2782,27.449,-1,-2,0
2783,27.459,-1,-2,0
2784,27.469,-1,-2,0
2785,27.479,0,-2,0
2786,27.489,-1,-2,0
2787,27.499,-1,-2,0
2788,27.509,0,-1,0
2789,27.519,-1,-1,0
2790,27.529,-1,-1,0
2791,27.539,-1,-1,0
2792,27.549,-1,0,0
2793,27.559,-1,0,0
2794,27.569,-1,1,0
2795,27.579,-1,1,0
2796,27.589,-1,1,0
2797,27.599,-1,1,0
2798,27.609,-1,1,0
2799,27.619,-1,1,0
2800,27.629,-1,1,0
2801,27.639,0,1,0
2802,27.649,-1,0,0
2803,27.659,-1,0,0
2804,27.669,-1,0,0
2805,27.679,-1,0,0
2806,27.689,-1,0,0
2807,27.699,-1,0,0
2808,27.709,-1,-1,0
2809,27.719,-1,-1,0
2810,27.729,-1,-1,0
2811,27.739,-1,-1,0
2812,27.749,-1,-1,0
2813,27.759,-1,-1,0
2814,27.769,-1,-2,0
2815,27.779,-1,-2,0
2816,27.789,-1,-1,0
2817,27.799,-1,-1,0
2818,27.809,-1,-2,0
2819,27.819,-1,-1,0
2820,27.829,-1,-1,0
2821,27.839,-1,-1,0
2822,27.849,-1,-1,0
2823,27.859,-1,-1,0
2824,27.869,-1,-1,0
2825,27.879,-1,0,0
2826,27.889,-1,0,0
2827,27.899,-1,0,0
2828,27.909,-1,0,0
2829,27.919,-1,0,0
2830,27.929,-1,0,0
2831,27.939,-1,0,0
2832,27.949,-1,0,0
2833,27.959,-1,0,0
2834,27.969,-1,0,0
2835,27.979,-1,0,0
2836,27.989,-1,0,0
2837,27.999,-2,0,0
2838,28.009,-2,0,0
2839,28.019,-1,-1,0
2840,28.029,-1,-1,0
2841,28.039,-1,-1,0
2842,28.049,-1,-1,0
2843,28.059,-2,-2,0
2844,28.069,-2,-1,0
2845,28.079,-1,-2,0
2846,28.089,-2,-2,0
2847,28.099,-2,-2,0
2848,28.109,-1,-2,0
2849,28.119,-2,-2,0
2850,28.129,-1,-2,0
2851,28.139,-2,-1,0
2852,28.149,-2,-1,0
2853,28.159,-2,-1,0
2854,28.169,-2,-1,0
2855,28.179,-1,-1,0
2856,28.189,-2,-1,0
2857,28.199,-2,0,0
2858,28.209,-2,0,0
2859,28.219,-1,0,0
2860,28.229,-2,0,0
2861,28.239,-2,0,0
2862,28.249,-2,1,0
2863,28.259,-1,1,0
2864,28.269,-1,1,0
2865,28.279,-1,1,0
2866,28.289,-1,0,0
2867,28.299,-1,0,0
2868,28.309,-1,0,0
2869,28.319,-1,0,0
2870,28.329,-1,0,0
2871,28.339,-1,0,0
2872,28.349,-2,0,0
2873,28.359,-2,-1,0
2874,28.369,-1,0,0
2875,28.379,-1,-1,0
2876,28.389,-1,-1,0
2877,28.399,-1,-1,0
2878,28.409,-1,-1,0
2879,28.419,-1,-1,0
2880,28.429,-1,-1,0
2881,28.439,-1,-1,0
2882,28.449,-1,-1,0
2883,28.459,-1,-1,0
2884,28.469,-1,-1,0
2885,28.479,-1,-2,0
2886,28.489,-1,-2,0
2887,28.499,-1,-2,0
2888,28.509,-1,-2,0
2889,28.519,-1,-2,0
2890,28.529,-1,-2,0
2891,28.539,-1,-2,0
2892,28.549,-1,-2,0
2893,28.559,-1,-3,0
2894,28.569,-1,-3,0
2895,28.579,-1,-3,0
2896,28.589,-1,-3,0
2897,28.599,-1,-3,0
2898,28.609,-1,-3,0
2899,28.619,-1,-2,0
2900,28.629,-1,-2,0
2901,28.639,-1,-2,0
2902,28.649,-1,-2,0
2903,28.659,-1,-2,0
2904,28.669,-1,-2,0
2905,28.679,-1,-2,0
2906,28.689,-1,-1,0
2907,28.699,-1,-1,0
2908,28.709,-1,-1,0
2909,28.719,-1,-1,0
2910,28.729,-1,-1,0
2911,28.739,-1,-1,0
2912,28.749,-1,-1,0
2913,28.759,-1,-1,0
2914,28.769,-1,-1,0
2915,28.779,-1,-1,0
2916,28.789,-1,-1,0
2917,28.799,-1,-1,0
2918,28.809,-1,-1,0
2919,28.819,-1,-1,0
2920,28.829,-1,-1,0
2921,28.839,-1,-1,0
2922,28.849,-2,-1,0
2923,28.859,-2,-2,0
2924,28.869,-2,-1,0
2925,28.879,-2,-1,0
2926,28.889,-2,-1,0
2927,28.899,-2,-1,0
2928,28.909,-2,-1,0
2929,28.919,-2,-1,0
2930,28.929,-2,-1,0
2931,28.939,-2,-1,0
2932,28.949,-2,-1,0
2933,28.959,-2,-1,0
2934,28.969,-2,-1,0
2935,28.979,-2,-2,0
2936,28.989,-2,-2,0
2937,28.999,-2,-1,0
2938,29.009,-2,-2,0
2939,29.019,-2,-1,0
2940,29.029,-2,-1,0
2941,29.039,-2,-1,0
2942,29.049,-2,-1,0
2943,29.059,-2,-1,0
2944,29.069,-2,-1,0
2945,29.079,-2,-1,0
2946,29.089,-2,-2,0
2947,29.099,-1,-1,0
2948,29.109,-2,-1,0
2949,29.119,-1,-1,0
2950,29.129,-1,-1,0
2951,29.139,-2,-1,0
2952,29.149,-1,-1,0
2953,29.159,-2,-2,0
2954,29.169,-1,-1,0
2955,29.179,-1,-1,0
2956,29.189,-1,-1,0
2957,29.199,-1,-1,0
2958,29.209,-1,-1,0
2959,29.219,-1,-1,0
2960,29.229,-1,-1,0
2961,29.239,-1,-1,0
2962,29.249,-1,-1,0
2963,29.259,-1,-1,0
2964,29.269,-1,-1,0
2965,29.279,-1,-1,0
2966,29.289,-1,-1,0
2967,29.299,-1,-1,0
2968,29.309,-1,-1,0
2969,29.319,-1,0,0
2970,29.329,-2,0,0
2971,29.339,-1,0,0
2972,29.349,-2,0,0
2973,29.359,-1,0,0
2974,29.369,-1,0,0
2975,29.379,-1,0,0
2976,29.389,-1,0,0
2977,29.399,-1,0,0
2978,29.409,-1,0,0
2979,29.419,-1,0,0
2980,29.429,-1,1,0
2981,29.439,-1,1,0
2982,29.449,-1,0,0
2983,29.459,-1,1,0
2984,29.469,-2,0,0
2985,29.479,-2,1,0
2986,29.489,-2,1,0
2987,29.499,-2,1,0
2988,29.509,-2,1,0
2989,29.519,-1,1,0
2990,29.529,-2,1,0
2991,29.539,-1,0,0
2992,29.549,-2,1,0
2993,29.559,-2,1,0
2994,29.569,-1,1,0
2995,29.579,-2,1,0
2996,29.589,-1,1,0
2997,29.599,-2,1,0
2998,29.609,-2,1,0
2999,29.619,-1,1,0
3000,29.629,-1,1,0
3001,29.639,-1,0,0
3002,29.649,-2,0,0
3003,29.659,-2,0,0
3004,29.669,-2,0,0
3005,29.679,-2,0,0
3006,29.689,-2,0,0
3007,29.699,-2,0,0
3008,29.709,-2,0,0
3009,29.719,-2,0,0
3010,29.729,-2,0,0
3011,29.739,-2,0,0
3012,29.749,-2,0,0
3013,29.759,-2,0,0
3014,29.769,-2,0,0
3015,29.779,-2,0,0
3016,29.789,-2,0,0
3017,29.799,-2,0,0
3018,29.809,-2,0,0
3019,29.819,-2,0,0
3020,29.829,-2,0,0
3021,29.839,-2,0,0
3022,29.849,-2,1,0
3023,29.859,-2,1,0
3024,29.869,-2,1,0
3025,29.879,-1,1,0
3026,29.889,-2,1,0
3027,29.899,-2,0,0
3028,29.909,-2,1,0
3029,29.919,-2,0,0
3030,29.929,-2,0,0
3031,29.939,-2,0,0
3032,29.949,-2,0,0
3033,29.959,-2,0,0
3034,29.969,-2,0,0
3035,29.979,-2,0,0
3036,29.989,-2,0,0
3037,29.999,-2,0,0
3038,30.009,-1,0,0
3039,30.019,-1,0,0
3040,30.029,-1,-1,0
3041,30.039,-2,-1,0
3042,30.049,-2,0,0
3043,30.059,-2,-1,0
3044,30.069,-2,-1,0
3045,30.079,-1,-1,0
3046,30.089,-2,-1,0
3047,30.099,-2,0,0
3048,30.109,-2,-1,0
3049,30.119,-2,-1,0
3050,30.129,-1,-1,0
3051,30.139,-1,-1,0
3052,30.149,-2,-1,0
3053,30.159,-1,-1,0
3054,30.169,-1,-1,0
3055,30.179,-1,-1,0
3056,30.189,-2,-1,0
3057,30.199,-1,-1,0
3058,30.209,-1,-1,0
3059,30.219,-1,-1,0
3060,30.229,-1,-2,0
3061,30.239,-2,-1,0
3062,30.249,-1,-1,0
3063,30.259,-1,-1,0
3064,30.269,-2,-2,0
3065,30.279,-2,-1,0
3066,30.289,-2,-2,0
3067,30.299,-2,-1,0
3068,30.309,-1,-1,0
3069,30.319,-1,-1,0
3070,30.329,-2,-1,0
3071,30.339,-2,-2,0
3072,30.349,-2,-2,0
3073,30.359,-2,-1,0
3074,30.369,-1,-2,0
3075,30.379,-1,-2,0
3076,30.389,-2,-2,0
3077,30.399,-2,-2,0
3078,30.409,-2,-2,0
3079,30.419,-1,-2,0
3080,30.429,-1,-1,0
3081,30.439,-2,-1,0
3082,30.449,-2,-1,0
3083,30.459,-1,-1,0
3084,30.469,-2,-1,0
3085,30.479,-2,-1,0
3086,30.489,-1,-1,0
3087,30.499,-1,-1,0
3088,30.509,-2,-1,0
3089,30.519,-1,-1,0
3090,30.529,-1,-1,0
3091,30.539,-2,-1,0
3092,30.549,-1,-2,0
3093,30.559,-1,-2,0
3094,30.569,-1,-2,0
3095,30.579,-1,-2,0
3096,30.589,-1,-2,0
3097,30.599,-1,-2,0
3098,30.609,-1,-2,0
3099,30.619,-1,-2,0
3100,30.629,-1,-2,0
3101,30.639,-1,-2,0
3102,30.649,-1,-2,0
3103,30.659,-1,-2,0
3104,30.669,-1,-2,0
3105,30.679,-1,-2,0
3106,30.689,-1,-2,0
3107,30.699,-1,-2,0
3108,30.709,-1,-2,0
3109,30.719,-1,-2,0
3110,30.729,-1,-2,0
3111,30.739,-1,-2,0
3112,30.749,-1,-2,0
3113,30.759,-1,-2,0
3114,30.769,-1,-2,0
3115,30.779,-1,-2,0
3116,30.789,-1,-2,0
3117,30.799,-1,-2,0
3118,30.809,-1,-2,0
3119,30.819,-1,-2,0
3120,30.829,-1,-2,0
3121,30.839,-1,-2,0
3122,30.849,-1,-2,0
3123,30.859,-1,-2,0
3124,30.869,-1,-1,0
3125,30.879,-1,-2,0
3126,30.889,-1,-1,0
3127,30.899,-1,-1,0
3128,30.909,-1,-1,0
3129,30.919,-1,-1,0
3130,30.929,-1,-1,0
3131,30.939,-1,-1,0
3132,30.949,-1,-1,0
3133,30.959,-1,-1,0
3134,30.969,-1,-1,0
3135,30.979,-1,-1,0
3136,30.989,-1,-1,0
3137,30.999,-1,-1,0
3138,31.009,-1,-1,0
3139,31.019,-1,-1,0
3140,31.029,-1,-1,0
3141,31.039,-1,-1,0
3142,31.049,-1,-1,0
3143,31.059,-1,-1,0
3144,31.069,-1,-1,0
3145,31.079,-1,-1,0
3146,31.089,-1,-1,0
3147,31.099,-1,-1,0
3148,31.109,-1,-1,0
3149,31.119,-1,-1,0
3150,31.129,-1,-1,0
3151,31.139,-1,-1,0
3152,31.149,-1,-1,0
3153,31.159,-1,-1,0
3154,31.169,-1,-1,0
3155,31.179,-1,-1,0
3156,31.189,-1,-1,0
3157,31.199,-1,-1,0
3158,31.209,-1,-1,0
3159,31.219,-1,-2,0
3160,31.229,-1,-1,0
3161,31.239,-1,-1,0
3162,31.249,-1,-1,0
3163,31.259,-1,-1,0
3164,31.269,-1,-1,0
3165,31.279,-1,-1,0
3166,31.289,-1,-1,0
3167,31.299,-1,-2,0
3168,31.309,-1,-1,0
3169,31.319,-1,-1,0
3170,31.329,-1,-1,0
3171,31.339,-1,-1,0
3172,31.349,-1,-1,0
3173,31.359,-1,-1,0
3174,31.369,-1,-1,0
3175,31.379,-1,-1,0
3176,31.389,-1,-1,0
3177,31.399,-1,-1,0
3178,31.409,-1,-1,0
3179,31.419,-1,-1,0
3180,31.429,-1,-1,0
3181,31.439,-1,-1,0
3182,31.449,-1,-1,0
3183,31.459,-1,-1,0
3184,31.469,-1,-1,0
3185,31.479,-1,-1,0
3186,31.489,-1,-1,0
3187,31.499,-1,-1,0
3188,31.509,-1,-1,0
3189,31.519,-1,-1,0
3190,31.529,-1,-1,0
3191,31.539,-1,-1,0
3192,31.549,-1,-1,0
3193,31.559,-1,-1,0
3194,31.569,-1,0,0
3195,31.579,-1,-1,0
3196,31.589,-1,-1,0
3197,31.599,-1,-1,0
3198,31.609,-1,0,0
3199,31.619,-1,0,0
3200,31.629,-1,0,0
3201,31.639,-1,-1,0
3202,31.649,-1,0,0
3203,31.659,-1,0,0
3204,31.669,-1,0,0
3205,31.679,-1,0,0
3206,31.689,-1,0,0
3207,31.699,-1,0,0
3208,31.709,-1,0,0
3209,31.719,-1,0,0
3210,31.729,-1,-1,0
3211,31.739,-1,0,0
3212,31.749,-1,0,0
3213,31.759,-1,0,0
3214,31.769,-1,0,0
3215,31.779,-1,0,0
3216,31.789,-1,0,0
3217,31.799,-1,0,0
3218,31.809,-1,0,0
3219,31.819,-1,0,0
3220,31.829,-1,0,0
3221,31.839,-1,0,0
3222,31.849,-2,0,0
3223,31.859,-1,0,0
3224,31.869,-2,0,0
3225,31.879,-2,0,0
3226,31.889,-2,0,0
3227,31.899,-1,0,0
3228,31.909,-1,0,0
3229,31.919,-2,0,0
3230,31.929,-1,0,0
3231,31.939,-1,1,0
3232,31.949,-1,1,0
3233,31.959,-1,0,0
3234,31.969,-1,0,0
3235,31.979,-1,0,0
3236,31.989,-1,1,0
3237,31.999,-1,0,0
3238,32.009,-1,0,0
3239,32.019,-1,0,0
3240,32.029,-1,0,0
3241,32.039,-2,0,0
3242,32.049,-1,0,0
3243,32.059,-1,0,0
3244,32.069,-1,0,0
3245,32.079,-1,0,0
3246,32.089,-1,0,0
3247,32.099,-1,0,0
3248,32.109,-1,-1,0
3249,32.119,-1,0,0
3250,32.129,-1,-1,0
3251,32.139,-1,0,0
3252,32.149,-2,-1,0
3253,32.159,-1,-1,0
3254,32.169,-2,0,0
3255,32.179,-2,-1,0
3256,32.189,-1,-1,0
3257,32.199,-2,-1,0
3258,32.209,-2,-1,0
3259,32.219,-1,-1,0
3260,32.229,-2,-1,0
3261,32.239,-2,-1,0
3262,32.249,-1,-1,0
3263,32.259,-2,-1,0
3264,32.269,-2,-1,0
3265,32.279,-2,-1,0
3266,32.289,-2,-1,0
3267,32.299,-2,-1,0
3268,32.309,-2,-1,0
3269,32.319,-2,-1,0
3270,32.329,-2,-1,0
3271,32.339,-2,-1,0
3272,32.349,-2,-1,0
3273,32.359,-2,-1,0
3274,32.369,-2,-1,0
3275,32.379,-2,-1,0
3276,32.389,-2,-1,0
3277,32.399,-2,-1,0
3278,32.409,-2,-1,0
3279,32.419,-2,-1,0
3280,32.429,-2,-1,0
3281,32.439,-2,-1,0
3282,32.449,-2,-1,0
3283,32.459,-2,-1,0
3284,32.469,-2,-1,0
3285,32.479,-2,-1,0
3286,32.489,-2,-1,0
3287,32.499,-2,-1,0
3288,32.509,-2,-1,0
3289,32.519,-2,-1,0
3290,32.529,-1,-1,0
3291,32.539,-1,-1,0
3292,32.549,-2,-1,0
3293,32.559,-1,-1,0
3294,32.569,-1,-1,0
3295,32.579,-2,-1,0
3296,32.589,-2,-1,0
3297,32.599,-2,-1,0
3298,32.609,-1,-1,0
3299,32.619,-2,-1,0
3300,32.629,-2,-1,0
3301,32.639,-2,-1,0
3302,32.649,-2,-1,0
3303,32.659,-2,-2,0
3304,32.669,-1,-2,0
3305,32.679,-2,-1,0
3306,32.689,-2,-1,0
3307,32.699,-2,-2,0
3308,32.709,-1,-1,0
3309,32.719,-1,-2,0
3310,32.729,-1,-1,0
3311,32.739,-1,-1,0
3312,32.749,-1,-1,0
3313,32.759,-1,-1,0
3314,32.769,-1,-1,0
3315,32.779,-1,-1,0
3316,32.789,-1,-2,0
3317,32.799,-1,-2,0
3318,32.809,-1,-1,0
3319,32.819,-1,-2,0
3320,32.829,-1,-1,0
3321,32.839,-1,-2,0
3322,32.849,-1,-2,0
3323,32.859,-1,-2,0
3324,32.869,-1,-2,0
3325,32.879,-1,-1,0
3326,32.889,-1,-2,0
3327,32.899,-1,-2,0
3328,32.909,-1,-2,0
3329,32.919,-1,-2,0
3330,32.929,-1,-1,0
3331,32.939,-1,-2,0
3332,32.949,-1,-2,0
3333,32.959,-1,-1,0
3334,32.969,-1,-2,0
3335,32.979,-1,-2,0
3336,32.989,-1,-2,0
3337,32.999,-1,-2,0
3338,33.009,-1,-2,0
3339,33.019,-1,-2,0
3340,33.029,-1,-2,0
3341,33.039,-1,-2,0
3342,33.049,-1,-2,0
3343,33.059,-1,-2,0
3344,33.069,-1,-2,0
3345,33.079,-1,-2,0
3346,33.089,-1,-2,0
3347,33.099,-1,-2,0
3348,33.109,-1,-2,0
3349,33.119,-1,-2,0
3350,33.129,-1,-2,0
3351,33.139,-1,-2,0
3352,33.149,-1,-2,0
3353,33.159,-1,-2,0
3354,33.169,-1,-2,0
3355,33.179,-1,-2,0
3356,33.189,-1,-2,0
3357,33.199,-1,-2,0
3358,33.209,-1,-2,0
3359,33.219,-1,-2,0
3360,33.229,-1,-1,0
3361,33.239,-1,-2,0
3362,33.249,-1,-2,0
3363,33.259,-1,-2,0
3364,33.269,-1,-2,0
3365,33.279,-1,-1,0
3366,33.289,-1,-1,0
3367,33.299,-1,-1,0
3368,33.309,-1,-2,0
3369,33.319,-1,-1,0
3370,33.329,-1,-2,0
3371,33.339,-1,-1,0
3372,33.349,-1,-2,0
3373,33.359,-1,-2,0
3374,33.369,-1,-2,0
3375,33.379,-1,-1,0
3376,33.389,-1,-1,0
3377,33.399,-1,-1,0
3378,33.409,-1,-2,0
3379,33.419,-1,-1,0
3380,33.429,-1,-1,0
3381,33.439,-1,-1,0
3382,33.449,-2,-1,0
3383,33.459,-1,-1,0
3384,33.469,-2,-1,0
3385,33.479,-1,-1,0
3386,33.489,-1,-1,0
3387,33.499,-1,-1,0
3388,33.509,-2,-1,0
3389,33.519,-1,-1,0
3390,33.529,-2,0,0
3391,33.539,-1,-1,0
3392,33.549,-1,-1,0
3393,33.559,-1,-1,0
3394,33.569,-1,0,0
3395,33.579,-1,-1,0
3396,33.589,-1,-1,0
3397,33.599,-1,0,0
3398,33.609,-1,0,0
3399,33.619,-1,0,0
3400,33.629,-2,0,0
3401,33.639,-1,0,0
3402,33.649,-1,0,0
3403,33.659,-1,-1,0
3404,33.669,-1,-1,0
3405,33.679,-1,-1,0
3406,33.689,-1,0,0
3407,33.699,-1,0,0
3408,33.709,-1,0,0
3409,33.719,-1,0,0
3410,33.729,-1,-1,0
3411,33.739,-1,0,0
3412,33.749,-1,-1,0
3413,33.759,-1,-1,0
3414,33.769,-1,-1,0
3415,33.779,-1,-1,0
3416,33.789,-1,-1,0
3417,33.799,-1,-1,0
3418,33.809,-1,-1,0
3419,33.819,-1,-1,0
3420,33.829,-1,-1,0
3421,33.839,-1,-1,0
3422,33.849,-1,-1,0
3423,33.859,-1,-1,0
3424,33.869,-1,-1,0
3425,33.879,-1,0,0
3426,33.889,-1,0,0
3427,33.899,-1,0,0
3428,33.909,-1,0,0
3429,33.919,-1,0,0
3430,33.929,-1,0,0
3431,33.939,-1,0,0
3432,33.949,-1,0,0
3433,33.959,-1,0,0
3434,33.969,-1,0,0
3435,33.979,-1,0,0
3436,33.989,-1,0,0
3437,33.999,-1,0,0
3438,34.009,-1,0,0
3439,34.019,-1,1,0
3440,34.029,-1,1,0
3441,34.039,-1,1,0
3442,34.049,-1,1,0
3443,34.059,-1,1,0
3444,34.069,-1,1,0
3445,34.079,-1,1,0
3446,34.089,-1,1,0
3447,34.099,-1,1,0
3448,34.109,-1,1,0
3449,34.119,-1,1,0
3450,34.129,-1,1,0
3451,34.139,-1,1,0
3452,34.149,-1,1,0
3453,34.159,-1,1,0
3454,34.169,-1,1,0
3455,34.179,-1,0,0
3456,34.189,-1,0,0
3457,34.199,-1,1,0
3458,34.209,-1,0,0
3459,34.219,-1,0,0
3460,34.229,-1,0,0
3461,34.239,-1,0,0
3462,34.249,-1,0,0
3463,34.259,-1,1,0
3464,34.269,-1,0,0
3465,34.279,-1,0,0
3466,34.289,-1,0,0
3467,34.299,-1,0,0
3468,34.309,-1,0,0
3469,34.319,-1,0,0
3470,34.329,-1,0,0
3471,34.339,-1,0,0
3472,34.349,-1,0,0
3473,34.359,-1,0,0
3474,34.369,-1,0,0
3475,34.379,-1,0,0
3476,34.389,-1,0,0
3477,34.399,-1,0,0
3478,34.409,-1,0,0
3479,34.419,-1,0,0
3480,34.429,-2,0,0
3481,34.439,-2,0,0
3482,34.449,-1,0,0
3483,34.459,-2,0,0
3484,34.469,-2,0,0
3485,34.479,-2,0,0
3486,34.489,-1,0,0
3487,34.499,-2,0,0
3488,34.509,-2,0,0
3489,34.519,-2,0,0
3490,34.529,-2,0,0
3491,34.539,-2,0,0
3492,34.549,-2,0,0
3493,34.559,-2,0,0
3494,34.569,-2,0,0
3495,34.579,-1,0,0
3496,34.589,-2,0,0
3497,34.599,-2,0,0
3498,34.609,-2,0,0
3499,34.619,-1,0,0
3500,34.629,-2,0,0
3501,34.639,-2,0,0
3502,34.649,-2,0,0
3503,34.659,-2,0,0
3504,34.669,-1,0,0
3505,34.679,-2,0,0
3506,34.689,-2,1,0
3507,34.699,-2,0,0
3508,34.709,-2,1,0
3509,34.719,-1,0,0
3510,34.729,-1,0,0
3511,34.739,-2,0,0
3512,34.749,-1,0,0
3513,34.759,-1,1,0
3514,34.769,-1,0,0
3515,34.779,-1,1,0
3516,34.789,-1,0,0
3517,34.799,-1,1,0
3518,34.809,-1,1,0
3519,34.819,-1,0,0
3520,34.829,-1,0,0
3521,34.839,-1,0,0
3522,34.849,-1,0,0
3523,34.859,-1,0,0
3524,34.869,-1,0,0
3525,34.879,-1,0,0
3526,34.889,-1,0,0
3527,34.899,-1,0,0
3528,34.909,-1,0,0
3529,34.919,-1,0,0
3530,34.929,-1,0,0
3531,34.939,-1,0,0
3532,34.949,-1,0,0
3533,34.959,-1,0,0
3534,34.969,-1,0,0
3535,34.979,-1,0,0
3536,34.989,-1,0,0
3537,34.999,-1,0,0
3538,35.009,-1,0,0
3539,35.019,-2,-1,0
3540,35.029,-2,-1,0
3541,35.039,-2,-1,0
3542,35.049,-2,-1,0
3543,35.059,-2,-1,0
3544,35.069,-2,-1,0
3545,35.079,-2,-1,0
3546,35.089,-1,-1,0
3547,35.099,-2,-1,0
3548,35.109,-2,-1,0
3549,35.119,-2,0,0
3550,35.129,-2,-1,0
3551,35.139,-2,-1,0
3552,35.149,-2,0,0
3553,35.159,-2,0,0
3554,35.169,-2,0,0
3555,35.179,-2,0,0
3556,35.189,-1,0,0
3557,35.199,-1,-1,0
3558,35.209,-1,-1,0
3559,35.219,-1,0,0
3560,35.229,-1,0,0
3561,35.239,-1,0,0
3562,35.249,-1,0,0
3563,35.259,-1,-1,0
3564,35.269,-1,0,0
3565,35.279,-1,0,0
3566,35.289,-1,0,0
3567,35.299,-1,0,0
3568,35.309,-1,0,0
3569,35.319,-2,0,0
3570,35.329,-1,0,0
3571,35.339,-1,0,0
3572,35.349,-1,0,0
3573,35.359,-1,0,0
3574,35.369,-1,0,0
3575,35.379,-1,0,0
3576,35.389,-1,0,0
3577,35.399,-1,0,0
3578,35.409,-1,0,0
3579,35.419,-1,0,0
3580,35.429,-2,0,0
3581,35.439,-1,0,0
3582,35.449,-2,0,0
3583,35.459,-2,0,0
3584,35.469,-1,0,0
3585,35.479,-2,-1,0
3586,35.489,-2,-1,0
3587,35.499,-2,-1,0
3588,35.509,-2,-1,0
3589,35.519,-2,-1,0
3590,35.529,-2,-1,0
3591,35.539,-2,-1,0
3592,35.549,-2,-1,0
3593,35.559,-2,-1,0
3594,35.569,-2,-1,0
3595,35.579,-2,-1,0
3596,35.589,-2,-1,0
3597,35.599,-2,-2,0
3598,35.609,-2,-1,0
3599,35.619,-2,-1,0
3600,35.629,-2,-1,0
3601,35.639,-2,-1,0
3602,35.649,-2,-1,0
3603,35.659,-2,-1,0
3604,35.669,-2,-1,0
3605,35.679,-2,-1,0
3606,35.689,-2,-1,0
3607,35.699,-2,-1,0
3608,35.709,-2,-1,0
3609,35.719,-2,0,0
3610,35.729,-2,0,0
3611,35.739,-2,0,0
3612,35.749,-2,0,0
3613,35.759,-2,0,0
3614,35.769,-2,0,0
3615,35.779,-2,0,0
3616,35.789,-2,0,0
3617,35.799,-2,0,0
3618,35.809,-2,0,0
3619,35.819,-2,0,0
3620,35.829,-2,0,0
3621,35.839,-1,0,0
3622,35.849,-2,0,0
3623,35.859,-2,0,0
3624,35.869,-2,0,0
3625,35.879,-2,0,0
3626,35.889,-2,0,0
3627,35.899,-1,0,0
3628,35.909,-1,0,0
3629,35.919,-1,0,0
3630,35.929,-2,0,0
3631,35.939,-1,0,0
3632,35.949,-1,0,0
3633,35.959,-1,0,0
3634,35.969,-1,0,0
3635,35.979,-2,0,0
3636,35.989,-1,-1,0
3637,35.999,-1,0,0
3638,36.009,-1,0,0
3639,36.019,-1,0,0
3640,36.029,-1,0,0
3641,36.039,-1,0,0
3642,36.049,-1,0,0
3643,36.059,-1,0,0
3644,36.069,-1,0,0
3645,36.079,-1,0,0
3646,36.089,-1,0,0
3647,36.099,-2,0,0
3648,36.109,-1,0,0
3649,36.119,-1,0,0
3650,36.129,-1,0,0
3651,36.139,-1,0,0
3652,36.149,-2,0,0
3653,36.159,-1,0,0
3654,36.169,-1,0,0
3655,36.179,-2,0,0
3656,36.189,-1,0,0
3657,36.199,-2,0,0
3658,36.209,-1,0,0
3659,36.219,-2,0,0
3660,36.229,-2,0,0
3661,36.239,-1,0,0
3662,36.249,-1,0,0
3663,36.259,-1,0,0
3664,36.269,-1,1,0
3665,36.279,-1,1,0
3666,36.289,-1,1,0
3667,36.299,-1,1,0
3668,36.309,-2,1,0
3669,36.319,-1,0,0
3670,36.329,-2,0,0
3671,36.339,-2,0,0
3672,36.349,-1,0,0
3673,36.359,-1,0,0
3674,36.369,-1,0,0
3675,36.379,-1,0,0
3676,36.389,-1,0,0
3677,36.399,-1,0,0
3678,36.409,-1,0,0
3679,36.419,-1,0,0
3680,36.429,-1,0,0
3681,36.439,-1,0,0
3682,36.449,-1,0,0
3683,36.459,-1,0,0
3684,36.469,-1,0,0
3685,36.479,-1,0,0
3686,36.489,-1,0,0
3687,36.499,-1,0,0
3688,36.509,-1,0,0
3689,36.519,-1,0,0
3690,36.529,-1,0,0
3691,36.539,-1,0,0
3692,36.549,-1,0,0
3693,36.559,-1,0,0
3694,36.569,-1,0,0
3695,36.579,-1,0,0
3696,36.589,-1,0,0
3697,36.599,-1,0,0
3698,36.609,-1,0,0
3699,36.619,-1,0,0
3700,36.629,-1,0,0
3701,36.639,-1,0,0
3702,36.649,-1,0,0
3703,36.659,-1,1,0
3704,36.669,-1,0,0
3705,36.679,-1,1,0
3706,36.689,-1,1,0
3707,36.699,-1,1,0
3708,36.709,-1,0,0
3709,36.719,-1,0,0
3710,36.729,-1,0,0
3711,36.739,-1,0,0
3712,36.749,-1,0,0
3713,36.759,-1,0,0
3714,36.769,-1,0,0
3715,36.779,-1,0,0
3716,36.789,-1,0,0
3717,36.799,-1,0,0
3718,36.809,-1,0,0
3719,36.819,-1,1,0
3720,36.829,-1,1,0
3721,36.839,-1,0,0
3722,36.849,-1,0,0
3723,36.859,-1,0,0
3724,36.869,-1,0,0
3725,36.879,0,0,0
3726,36.889,-1,0,0
3727,36.899,-1,0,0
3728,36.909,-1,0,0
3729,36.919,-1,0,0
3730,36.929,0,0,0
3731,36.939,0,0,0
3732,36.949,-1,0,0
3733,36.959,-1,0,0
3734,36.969,-1,0,0
3735,36.979,-1,0,0
3736,36.989,-1,0,0
3737,36.999,-1,0,0
3738,37.009,-1,0,0
3739,37.019,-1,0,0
3740,37.029,-1,1,0
3741,37.039,-1,0,0
3742,37.049,-1,1,0
3743,37.059,-1,1,0
3744,37.069,-1,1,0
3745,37.079,-1,1,0
3746,37.089,-1,1,0
3747,37.099,-1,1,0
3748,37.109,-1,1,0
3749,37.119,-1,1,0
3750,37.129,-1,1,0
3751,37.139,-1,1,0
3752,37.149,0,1,0
3753,37.159,-1,1,0
3754,37.169,-1,0,0
3755,37.179,-1,1,0
3756,37.189,0,1,0
3757,37.199,-1,1,0
3758,37.209,-1,1,0
3759,37.219,0,1,0
3760,37.229,0,1,0
3761,37.239,0,1,0
3762,37.249,0,1,0
3763,37.259,0,1,0
3764,37.269,-1,1,0
3765,37.279,0,1,0
3766,37.289,0,1,0
3767,37.299,0,1,0
3768,37.309,-1,1,0
3769,37.319,-1,1,0
3770,37.329,-1,1,0
3771,37.339,-1,1,0
3772,37.349,0,1,0
3773,37.359,0,1,0
3774,37.369,0,1,0
3775,37.379,0,1,0
3776,37.389,0,1,0
3777,37.399,0,1,0
3778,37.409,0,0,0
3779,37.419,-1,0,0
3780,37.429,-1,0,0
3781,37.439,-1,1,0
3782,37.449,-1,1,0
3783,37.459,-1,1,0
3784,37.469,-1,1,0
3785,37.479,-1,0,0
3786,37.489,-1,1,0
3787,37.499,-1,1,0
3788,37.509,-1,1,0
3789,37.519,-1,1,0
3790,37.529,-1,1,0
3791,37.539,-1,1,0
3792,37.549,-1,1,0
3793,37.559,-1,1,0
3794,37.569,-1,0,0
3795,37.579,-1,1,0
3796,37.589,-1,1,0
3797,37.599,-1,1,0
3798,37.609,-1,1,0
3799,37.619,-1,1,0
3800,37.629,-1,1,0
3801,37.639,-1,1,0
3802,37.649,-1,0,0
3803,37.659,-1,0,0
3804,37.669,-1,0,0
3805,37.679,-1,0,0
3806,37.689,-1,0,0
3807,37.699,-1,0,0
3808,37.709,-2,0,0
3809,37.719,-2,0,0
3810,37.729,-2,0,0
3811,37.739,-2,0,0
3812,37.749,-2,0,0
3813,37.759,-2,0,0
3814,37.769,-2,0,0
3815,37.779,-2,0,0
3816,37.789,-2,0,0
3817,37.799,-2,0,0
3818,37.809,-1,0,0
3819,37.819,-1,0,0
3820,37.829,-1,0,0
3821,37.839,-1,0,0
3822,37.849,-2,0,0
3823,37.859,-2,0,0
3824,37.869,-1,0,0
3825,37.879,-2,0,0
3826,37.889,-1,0,0
3827,37.899,-2,0,0
3828,37.909,-2,0,0
3829,37.919,-2,0,0
3830,37.929,-2,0,0
3831,37.939,-2,0,0
3832,37.949,-1,1,0
3833,37.959,-2,1,0
3834,37.969,-1,1,0
3835,37.979,-1,1,0
3836,37.989,-1,1,0
3837,37.999,-1,1,0
3838,38.009,-1,1,0
3839,38.019,-1,1,0
3840,38.029,-1,1,0
3841,38.039,-1,1,0
3842,38.049,-1,1,0
3843,38.059,-1,1,0
3844,38.069,-1,1,0
3845,38.079,-1,1,0
3846,38.089,-1,1,0
3847,38.099,-1,1,0
3848,38.109,-1,1,0
3849,38.119,-1,1,0
3850,38.129,-1,1,0
3851,38.139,-1,1,0
3852,38.149,-1,1,0
3853,38.159,-1,1,0
3854,38.169,-1,1,0
3855,38.179,-1,1,0
3856,38.189,-1,0,0
3857,38.199,-1,1,0
3858,38.209,-1,1,0
3859,38.219,-1,1,0
3860,38.229,-1,1,0
3861,38.239,-1,1,0
3862,38.249,-1,0,0
3863,38.259,-1,1,0
3864,38.269,-1,1,0
3865,38.279,-1,0,0
3866,38.289,-1,0,0
3867,38.299,-1,0,0
3868,38.309,-1,0,0
3869,38.319,-1,0,0
3870,38.329,-1,0,0
3871,38.339,-1,0,0
3872,38.349,-1,0,0
3873,38.359,-1,0,0
3874,38.369,-1,0,0
3875,38.379,-1,0,0
3876,38.389,-1,0,0
3877,38.399,-1,0,0
3878,38.409,-1,0,0
3879,38.419,-1,0,0
3880,38.429,-1,0,0
3881,38.439,-1,0,0
3882,38.449,0,0,0
3883,38.459,-1,0,0
3884,38.469,-1,0,0
3885,38.479,-1,0,0
3886,38.489,-1,0,0
3887,38.499,-1,0,0
3888,38.509,-1,0,0
3889,38.519,-1,0,0
3890,38.529,-1,0,0
3891,38.539,-1,1,0
3892,38.549,-1,1,0
3893,38.559,-1,1,0
3894,38.569,-1,1,0
3895,38.579,-1,1,0
3896,38.589,-1,1,0
3897,38.599,-1,1,0
3898,38.609,-1,1,0
3899,38.619,-1,1,0
3900,38.629,-1,2,0
3901,38.639,-1,1,0
3902,38.649,-1,1,0
3903,38.659,-1,1,0
3904,38.669,-1,1,0
3905,38.679,-1,1,0
3906,38.689,-1,1,0
3907,38.699,-1,1,0
3908,38.709,-1,1,0
3909,38.719,-1,1,0
3910,38.729,-1,1,0
3911,38.739,-1,1,0
3912,38.749,-1,1,0
3913,38.759,-1,1,0
3914,38.769,-1,1,0
3915,38.779,-1,1,0
3916,38.789,-1,0,0
3917,38.799,-1,1,0
3918,38.809,-1,1,0
3919,38.819,-1,0,0
3920,38.829,-1,0,0
3921,38.839,-1,0,0
3922,38.849,-1,0,0
3923,38.859,-1,1,0
3924,38.869,-1,1,0
3925,38.879,-1,1,0
3926,38.889,-1,0,0
3927,38.899,-1,0,0
3928,38.909,-1,0,0
3929,38.919,-1,0,0
3930,38.929,-1,0,0
3931,38.939,-1,0,0
3932,38.949,-1,0,0
3933,38.959,-1,0,0
3934,38.969,-1,0,0
3935,38.979,-1,0,0
3936,38.989,-1,0,0
3937,38.999,-1,0,0
3938,39.009,-2,0,0
3939,39.019,-2,0,0
3940,39.029,-1,0,0
3941,39.039,-1,1,0
3942,39.049,-2,0,0
3943,39.059,-2,0,0
3944,39.069,-2,0,0
3945,39.079,-2,0,0
3946,39.089,-2,0,0
3947,39.099,-2,0,0
3948,39.109,-2,0,0
3949,39.119,-2,0,0
3950,39.129,-2,0,0
3951,39.139,-2,0,0
3952,39.149,-2,0,0
3953,39.159,-2,0,0
3954,39.169,-2,0,0
3955,39.179,-2,0,0
3956,39.189,-2,0,0
3957,39.199,-2,0,0
3958,39.209,-2,0,0
3959,39.219,-2,0,0
3960,39.229,-2,0,0
3961,39.239,-2,0,0
3962,39.249,-2,0,0
3963,39.259,-1,0,0
3964,39.269,-1,0,0
3965,39.279,-1,0,0
3966,39.289,-1,0,0
3967,39.299,-1,0,0
3968,39.309,-1,0,0
3969,39.319,-1,0,0
3970,39.329,-1,0,0
3971,39.339,-1,0,0
3972,39.349,-1,0,0
3973,39.359,-1,0,0
3974,39.369,-1,0,0
3975,39.379,-1,0,0
3976,39.389,-1,0,0
3977,39.399,-1,0,0
3978,39.409,-1,0,0
3979,39.419,-1,0,0
3980,39.429,-1,1,0
3981,39.439,-1,0,0
3982,39.449,-1,1,0
3983,39.459,-1,0,0
3984,39.469,-1,1,0
3985,39.479,-1,1,0
3986,39.489,-1,1,0
3987,39.499,-1,1,0
3988,39.509,-1,1,0
3989,39.519,-1,1,0
3990,39.529,-1,0,0
3991,39.539,-1,1,0
3992,39.549,-1,0,0
3993,39.559,-1,1,0
3994,39.569,-1,1,0
3995,39.579,-1,1,0
3996,39.589,-1,1,0
3997,39.599,-1,1,0
3998,39.609,-1,1,0
3999,39.619,-1,1,0
4000,39.629,-1,1,0
4001,39.639,-1,0,0
4002,39.649,-1,1,0
4003,39.659,-1,1,0
4004,39.669,-1,0,0
4005,39.679,-1,0,0
4006,39.689,-1,0,0
4007,39.699,-1,0,0
4008,39.709,-1,0,0
4009,39.719,-1,0,0
4010,39.729,-1,0,0
4011,39.739,-1,0,0
4012,39.749,-1,0,0
4013,39.759,-1,0,0
4014,39.769,-1,0,0
4015,39.779,-1,-1,0
4016,39.789,-1,-1,0
4017,39.799,-1,-1,0
4018,39.809,-1,-1,0
4019,39.819,-1,-1,0
4020,39.829,-1,-1,0
4021,39.839,-1,-1,0
4022,39.849,-1,-1,0
4023,39.859,-1,-1,0
4024,39.869,-1,-1,0
4025,39.879,-1,-1,0
4026,39.889,-1,-1,0
4027,39.899,-1,-1,0
4028,39.909,-1,-1,0
4029,39.919,-1,-1,0
4030,39.929,-1,-1,0
4031,39.939,-1,-1,0
4032,39.949,-1,-1,0
4033,39.959,-1,-1,0
4034,39.969,-1,-1,0
4035,39.979,-1,-1,0
4036,39.989,-1,-1,0
4037,39.999,-1,-1,0
4038,40.009,-2,-1,0
4039,40.019,-2,-2,0
4040,40.029,-2,-1,0
4041,40.039,-2,-2,0
4042,40.049,-2,-2,0
4043,40.059,-2,-1,0
4044,40.069,-2,-1,0
4045,40.079,-2,-1,0
4046,40.089,-2,-1,0
4047,40.099,-2,-2,0
4048,40.109,-2,-2,0
4049,40.119,-2,-2,0
4050,40.129,-2,-1,0
4051,40.139,-2,-1,0
4052,40.149,-2,-1,0
4053,40.159,-2,-2,0
4054,40.169,-2,-1,0
4055,40.179,-2,-1,0
4056,40.189,-2,-1,0
4057,40.199,-2,-1,0
4058,40.209,-2,-1,0
4059,40.219,-2,-2,0
4060,40.229,-1,-2,0
4061,40.239,-2,-2,0
4062,40.249,-2,-2,0
4063,40.259,-2,-2,0
4064,40.269,-1,-2,0
4065,40.279,-1,-2,0
4066,40.289,-1,-2,0
4067,40.299,-2,-2,0
4068,40.309,-2,-2,0
4069,40.319,-2,-2,0
4070,40.329,-2,-1,0
4071,40.339,-1,-1,0
4072,40.349,-2,-1,0
4073,40.359,-1,-1,0
4074,40.369,-1,-1,0
4075,40.379,-1,-1,0
4076,40.389,-2,-1,0
4077,40.399,-1,-1,0
4078,40.409,-2,0,0
4079,40.419,-2,0,0
4080,40.429,-1,0,0
4081,40.439,-2,0,0
4082,40.449,-2,0,0
4083,40.459,-1,0,0
4084,40.469,-2,0,0
4085,40.479,-2,0,0
4086,40.489,-1,0,0
4087,40.499,-2,0,0
4088,40.509,-1,0,0
4089,40.519,-2,0,0
4090,40.529,-1,0,0
4091,40.539,-2,0,0
4092,40.549,-1,0,0
4093,40.559,-1,0,0
4094,40.569,-1,0,0
4095,40.579,-1,-1,0
4096,40.589,-2,-1,0
4097,40.599,-1,-1,0
4098,40.609,-2,-1,0
4099,40.619,-1,-1,0
4100,40.629,-2,-1,0
4101,40.639,-2,-2,0
4102,40.649,-1,-1,0
4103,40.659,-1,-2,0
4104,40.669,-1,-2,0
4105,40.679,-2,-2,0
4106,40.689,-2,-2,0
4107,40.699,-2,-2,0
4108,40.709,-2,-2,0
4109,40.719,-2,-2,0
4110,40.729,-2,-2,0
4111,40.739,-2,-2,0
4112,40.749,-2,-2,0
4113,40.759,-2,-2,0
4114,40.769,-2,-1,0
4115,40.779,-2,-2,0
4116,40.789,-2,-1,0
4117,40.799,-2,-1,0
4118,40.809,-2,-1,0
4119,40.819,-1,-1,0
4120,40.829,-2,-1,0
4121,40.839,-1,-1,0
4122,40.849,-1,-1,0
4123,40.859,-1,-1,0
4124,40.869,-2,-1,0
4125,40.879,-1,-1,0
4126,40.889,-2,-1,0
4127,40.899,-1,-1,0
4128,40.909,-1,-1,0
4129,40.919,-1,-1,0
4130,40.929,-1,-1,0
4131,40.939,-2,-1,0
4132,40.949,-1,-1,0
4133,40.959,-2,-1,0
4134,40.969,-1,-1,0
4135,40.979,-1,-1,0
4136,40.989,-1,-1,0
4137,40.999,-1,-1,0
4138,41.009,-1,-1,0
4139,41.019,-1,-1,0
4140,41.029,-1,-2,0
4141,41.039,-2,-1,0
4142,41.049,-1,-1,0
4143,41.059,-1,-2,0
4144,41.069,-2,-1,0
4145,41.079,-1,-1,0
4146,41.089,-1,-2,0
4147,41.099,-1,-1,0
4148,41.109,-1,-1,0
4149,41.119,-1,-2,0
4150,41.129,-1,-2,0
4151,41.139,-1,-2,0
4152,41.149,-1,-2,0
4153,41.159,-1,-2,0
4154,41.169,-1,-2,0
4155,41.179,-1,-2,0
4156,41.189,-1,-2,0
4157,41.199,-1,-2,0
4158,41.209,-1,-2,0
4159,41.219,-1,-2,0
4160,41.229,-1,-2,0
4161,41.239,-1,-2,0
4162,41.249,-1,-2,0
4163,41.259,-1,-2,0
4164,41.269,-1,-2,0
4165,41.279,-1,-2,0
4166,41.289,-1,-2,0
4167,41.299,-1,-2,0
4168,41.309,-1,-2,0
4169,41.319,-1,-2,0
4170,41.329,-1,-2,0
4171,41.339,-1,-2,0
4172,41.349,-1,-2,0
4173,41.359,-1,-1,0
4174,41.369,-1,-2,0
4175,41.379,-1,-1,0
4176,41.389,-1,-1,0
4177,41.399,-1,-1,0
4178,41.409,-1,-1,0
4179,41.419,-1,-1,0
4180,41.429,-1,-1,0
4181,41.439,-1,-1,0
4182,41.449,-1,-1,0
4183,41.459,-1,-2,0
4184,41.469,-2,-1,0
4185,41.479,-2,-1,0
4186,41.489,-2,-1,0
4187,41.499,-2,-1,0
4188,41.509,-2,-1,0
4189,41.519,-2,-2,0
4190,41.529,-2,-1,0
4191,41.539,-2,-1,0
4192,41.549,-2,-1,0
4193,41.559,-2,-1,0
4194,41.569,-2,-1,0
4195,41.579,-2,-2,0
4196,41.589,-2,-1,0
4197,41.599,-2,-1,0
4198,41.609,-2,-1,0
4199,41.619,-2,-1,0
4200,41.629,-2,-1,0
4201,41.639,-2,-1,0
4202,41.649,-2,-1,0
4203,41.659,-2,-1,0
4204,41.669,-2,-1,0
4205,41.679,-2,-1,0
4206,41.689,-1,-1,0
4207,41.699,-2,-1,0
4208,41.709,-2,-1,0
4209,41.719,-1,-1,0
4210,41.729,-1,-1,0
4211,41.739,-2,-1,0
4212,41.749,-1,-1,0
4213,41.759,-1,-1,0
4214,41.769,-1,-1,0
4215,41.779,-1,-1,0
4216,41.789,-2,0,0
4217,41.799,-2,-1,0
4218,41.809,-1,-1,0
4219,41.819,-1,-1,0
4220,41.829,-2,-1,0
4221,41.839,-1,-1,0
4222,41.849,-2,-1,0
4223,41.859,-1,-1,0
4224,41.869,-2,-1,0
4225,41.879,-1,-1,0
4226,41.889,-2,-1,0
4227,41.899,-1,-1,0
4228,41.909,-1,-1,0
4229,41.919,-2,-1,0
4230,41.929,-2,-1,0
4231,41.939,-2,-1,0
4232,41.949,-2,-1,0
4233,41.959,-2,-2,0
4234,41.969,-2,-2,0
4235,41.979,-2,-1,0
4236,41.989,-2,-2,0
4237,41.999,-2,-2,0
4238,42.009,-2,-1,0
4239,42.019,-2,-1,0
4240,42.029,-2,-1,0
4241,42.039,-2,-1,0
4242,42.049,-2,-1,0
4243,42.059,-2,-1,0
4244,42.069,-2,-1,0
4245,42.079,-2,-1,0
4246,42.089,-2,-1,0
4247,42.099,-2,-2,0
4248,42.109,-2,-1,0
4249,42.119,-2,-1,0
4250,42.129,-2,-1,0
4251,42.139,-2,-1,0
4252,42.149,-2,-2,0
4253,42.159,-2,-2,0
4254,42.169,-2,-1,0
4255,42.179,-2,-2,0
4256,42.189,-2,-1,0
4257,42.199,-2,-1,0
4258,42.209,-2,-1,0
4259,42.219,-2,-1,0
4260,42.229,-2,-1,0
4261,42.239,-2,-1,0
4262,42.249,-2,-1,0
4263,42.259,-1,-1,0
4264,42.269,-1,-1,0
4265,42.279,-1,-1,0
4266,42.289,-2,-1,0
4267,42.299,-1,-1,0
4268,42.309,-1,-1,0
4269,42.319,-2,-1,0
4270,42.329,-2,-1,0
4271,42.339,-2,-1,0
4272,42.349,-2,-1,0
4273,42.359,-2,0,0
4274,42.369,-2,0,0
4275,42.379,-1,-1,0
4276,42.389,-1,0,0
4277,42.399,-1,0,0
4278,42.409,-1,0,0
4279,42.419,-1,0,0
4280,42.429,-1,0,0
4281,42.439,-1,0,0
4282,42.449,-1,0,0
4283,42.459,-1,0,0
4284,42.469,-1,0,0
4285,42.479,-1,0,0
4286,42.489,-1,-1,0
4287,42.499,-1,0,0
4288,42.509,-1,0,0
4289,42.519,-1,0,0
4290,42.529,-1,0,0
4291,42.539,-1,0,0
4292,42.549,-1,0,0
4293,42.559,-1,0,0
4294,42.569,-1,0,0
4295,42.579,-1,0,0
4296,42.589,-1,0,0
4297,42.599,-1,0,0
4298,42.609,-1,0,0
4299,42.619,-1,0,0
4300,42.629,-1,0,0
4301,42.639,-1,0,0
4302,42.649,-1,0,0
4303,42.659,-1,0,0
4304,42.669,-1,0,0
4305,42.679,-1,1,0
4306,42.689,-1,1,0
4307,42.699,-1,1,0
4308,42.709,-1,1,0
4309,42.719,-1,1,0
4310,42.729,-1,1,0
4311,42.739,-1,1,0
4312,42.749,-1,1,0
4313,42.759,-1,1,0
4314,42.769,-1,2,0
4315,42.779,-1,1,0
4316,42.789,-1,1,0
4317,42.799,-1,1,0
4318,42.809,-1,1,0
4319,42.819,-1,1,0
4320,42.829,-1,1,0
4321,42.839,-1,1,0
4322,42.849,-1,1,0
4323,42.859,-1,0,0
4324,42.869,-1,0,0
4325,42.879,-1,0,0
4326,42.889,-1,0,0
4327,42.899,-1,0,0
4328,42.909,-1,0,0
4329,42.919,-1,0,0
4330,42.929,-1,0,0
4331,42.939,-1,0,0
4332,42.949,-1,0,0
4333,42.959,-1,0,0
4334,42.969,-1,0,0
4335,42.979,-1,-1,0
4336,42.989,-1,0,0
4337,42.999,-1,0,0
4338,43.009,-1,0,0
4339,43.019,-1,-1,0
4340,43.029,-1,-1,0
4341,43.039,-1,-1,0
4342,43.049,-2,-1,0
4343,43.059,-1,-1,0
4344,43.069,-1,-1,0
4345,43.079,-1,-1,0
4346,43.089,-1,-1,0
4347,43.099,-1,-1,0
4348,43.109,-2,-1,0
4349,43.119,-2,-1,0
4350,43.129,-1,-1,0
4351,43.139,-1,-1,0
4352,43.149,-1,-1,0
4353,43.159,-2,-1,0
4354,43.169,-1,-1,0
4355,43.179,-1,-1,0
4356,43.189,-1,-1,0
4357,43.199,-1,-1,0
4358,43.209,-1,-1,0
4359,43.219,-1,-1,0
4360,43.229,-2,-1,0
4361,43.239,-1,-1,0
4362,43.249,-2,-1,0
4363,43.259,-2,0,0
4364,43.269,-1,-1,0
4365,43.279,-2,0,0
4366,43.289,-1,0,0
4367,43.299,-1,0,0
4368,43.309,-2,0,0
4369,43.319,-2,0,0
4370,43.329,-2,0,0
4371,43.339,-2,0,0
4372,43.349,-2,0,0
4373,43.359,-1,0,0
4374,43.369,-2,0,0
4375,43.379,-2,0,0
4376,43.389,-1,0,0
4377,43.399,-1,1,0
4378,43.409,-1,1,0
4379,43.419,-1,1,0
4380,43.429,-1,0,0
4381,43.439,-1,0,0
4382,43.449,-1,0,0
4383,43.459,-1,0,0
4384,43.469,-1,0,0
4385,43.479,-1,0,0
4386,43.489,-1,0,0
4387,43.499,-1,0,0
4388,43.509,-1,0,0
4389,43.519,-1,0,0
4390,43.529,-2,0,0
4391,43.539,-1,0,0
4392,43.549,-1,0,0
4393,43.559,-1,0,0
4394,43.569,-1,-1,0
4395,43.579,-1,-1,0
4396,43.589,-1,-1,0
4397,43.599,-1,-1,0
4398,43.609,-1,-1,0
4399,43.619,-1,-1,0
4400,43.629,-1,-1,0
4401,43.639,-2,-1,0
4402,43.649,-1,-1,0
4403,43.659,-1,0,0
4404,43.669,-1,0,0
4405,43.679,-1,0,0
4406,43.689,-1,0,0
4407,43.699,-1,0,0
4408,43.709,-1,0,0
4409,43.719,-1,0,0
4410,43.729,-1,0,0
4411,43.739,-1,0,0
4412,43.749,-1,0,0
4413,43.759,-1,0,0
4414,43.769,-1,0,0
4415,43.779,-1,0,0
4416,43.789,-1,0,0
4417,43.799,-1,0,0
4418,43.809,-1,0,0
4419,43.819,-1,0,0
4420,43.829,-1,0,0
4421,43.839,-1,0,0
4422,43.849,-1,0,0
4423,43.859,-1,0,0
4424,43.869,-1,-1,0
4425,43.879,-1,0,0
4426,43.889,-1,0,0
4427,43.899,-1,0,0
4428,43.909,-1,0,0
4429,43.919,-1,-1,0
4430,43.929,-1,-1,0
4431,43.939,-1,0,0
4432,43.949,-1,-1,0
4433,43.959,-1,-1,0
4434,43.969,-1,-1,0
4435,43.979,-1,-1,0
4436,43.989,-1,-1,0
4437,43.999,-1,-1,0
4438,44.009,0,-1,0
4439,44.019,-1,-1,0
4440,44.029,-1,-1,0
4441,44.039,-1,-1,0
4442,44.049,-1,-1,0
4443,44.059,-1,-1,0
4444,44.069,-1,-1,0
4445,44.079,-1,-2,0
4446,44.089,-1,-1,0
4447,44.099,-1,-2,0
4448,44.109,-1,-1,0
4449,44.119,-1,-1,0
4450,44.129,-1,-1,0
4451,44.139,-1,-1,0
4452,44.149,-1,-1,0
4453,44.159,-1,-1,0
4454,44.169,-1,-1,0
4455,44.179,-1,-1,0
4456,44.189,-1,-1,0
4457,44.199,-1,-1,0
4458,44.209,-1,-1,0
4459,44.219,-1,-1,0
4460,44.229,0,-1,0
4461,44.239,-1,-1,0
4462,44.249,-1,-1,0
4463,44.259,-1,0,0
4464,44.269,-1,0,0
4465,44.279,-1,0,0
4466,44.289,-1,0,0
4467,44.299,-1,0,0
4468,44.309,-1,0,0
4469,44.319,-1,0,0
4470,44.329,-1,0,0
4471,44.339,-1,0,0
4472,44.349,-1,0,0
4473,44.359,-1,0,0
4474,44.369,-1,0,0
4475,44.379,0,0,0
4476,44.389,-1,0,0
4477,44.399,-1,1,0
4478,44.409,-1,0,0
4479,44.419,-1,0,0
4480,44.429,-1,0,0
4481,44.439,-1,1,0
4482,44.449,-1,1,0
4483,44.459,-1,1,0
4484,44.469,-1,1,0
4485,44.479,-1,0,0
4486,44.489,0,0,0
4487,44.499,-1,0,0
4488,44.509,-1,0,0
4489,44.519,-1,0,0
4490,44.529,-1,0,0
4491,44.539,-1,0,0
4492,44.549,-1,0,0
4493,44.559,-1,0,0
4494,44.569,-1,0,0
4495,44.579,-1,0,0
4496,44.589,-1,0,0
4497,44.599,-1,0,0
4498,44.609,-1,0,0
4499,44.619,-2,-1,0
4500,44.629,-2,-1,0
4501,44.639,-1,-1,0
4502,44.649,-2,-1,0
4503,44.659,-1,-1,0
4504,44.669,-2,-1,0
4505,44.679,-2,-1,0
4506,44.689,-2,-1,0
4507,44.699,-2,-1,0
4508,44.709,-2,-1,0
4509,44.719,-2,-1,0
4510,44.729,-2,-2,0
4511,44.739,-2,-2,0
4512,44.749,-2,-2,0
4513,44.759,-2,-2,0
4514,44.769,-2,-2,0
4515,44.779,-2,-2,0
4516,44.789,-2,-2,0
4517,44.799,-2,-2,0
4518,44.809,-2,-2,0
4519,44.819,-2,-1,0
4520,44.829,-1,-1,0
4521,44.839,-2,-1,0
4522,44.849,-1,-1,0
4523,44.859,-1,-1,0
4524,44.869,-1,-1,0
4525,44.879,-1,-1,0
4526,44.889,-1,-1,0
4527,44.899,-1,-1,0
4528,44.909,-1,0,0
4529,44.919,-1,0,0
4530,44.929,-1,0,0
4531,44.939,-1,0,0
4532,44.949,-1,0,0
4533,44.959,-1,0,0
4534,44.969,-1,0,0
4535,44.979,-1,0,0
4536,44.989,-2,0,0
4537,44.999,-1,0,0
4538,45.009,-1,0,0
4539,45.019,-1,1,0
4540,45.029,-1,1,0
4541,45.039,-1,0,0
4542,45.049,-1,1,0
4543,45.059,-1,1,0
4544,45.069,-1,0,0
4545,45.079,-2,0,0
4546,45.089,-2,0,0
4547,45.099,-1,0,0
4548,45.109,-1,0,0
4549,45.119,-1,0,0
4550,45.129,-2,0,0
4551,45.139,-1,0,0
4552,45.149,-2,-1,0
4553,45.159,-2,0,0
4554,45.169,-2,-1,0
4555,45.179,-1,-1,0
4556,45.189,-1,-1,0
4557,45.199,-1,-1,0
4558,45.209,-1,-1,0
4559,45.219,-1,-1,0
4560,45.229,-1,-1,0
4561,45.239,-2,-1,0
4562,45.249,-1,-1,0
4563,45.259,-1,-1,0
4564,45.269,-1,-1,0
4565,45.279,-1,-1,0
4566,45.289,-1,-1,0
4567,45.299,-1,-1,0
4568,45.309,-1,-1,0
4569,45.319,-1,-1,0
4570,45.329,-1,-1,0
4571,45.339,-1,-1,0
4572,45.349,-1,-1,0
4573,45.359,-1,-1,0
4574,45.369,-1,-1,0
4575,45.379,-1,-1,0
4576,45.389,-1,0,0
4577,45.399,-1,-1,0
4578,45.409,-1,-1,0
4579,45.419,-1,-1,0
4580,45.429,-1,0,0
4581,45.439,-1,0,0
4582,45.449,-1,0,0
4583,45.459,-1,0,0
4584,45.469,-1,0,0
4585,45.479,-1,0,0
4586,45.489,-1,0,0
4587,45.499,-1,0,0
4588,45.509,-1,0,0
4589,45.519,-1,0,0
4590,45.529,-1,0,0
4591,45.539,-1,1,0
4592,45.549,-1,0,0
4593,45.559,-1,0,0
4594,45.569,-1,1,0
4595,45.579,-1,0,0
4596,45.589,-1,1,0
4597,45.599,-1,1,0
4598,45.609,-2,1,0
4599,45.619,-2,1,0
4600,45.629,-1,1,0
4601,45.639,-1,1,0
4602,45.649,-2,1,0
4603,45.659,-2,1,0
4604,45.669,-1,1,0
4605,45.679,-1,1,0
4606,45.689,-1,1,0
4607,45.699,-1,1,0
4608,45.709,-2,1,0
4609,45.719,-1,1,0
4610,45.729,-2,1,0
4611,45.739,-1,1,0
4612,45.749,-1,1,0
4613,45.759,-1,0,0
4614,45.769,-1,0,0
4615,45.779,-1,0,0
4616,45.789,-1,0,0
4617,45.799,-1,0,0
4618,45.809,-1,0,0
4619,45.819,-1,0,0
4620,45.829,-1,0,0
4621,45.839,-1,0,0
4622,45.849,-1,0,0
4623,45.859,-1,0,0
4624,45.869,-2,0,0
4625,45.879,-1,0,0
4626,45.889,-1,0,0
4627,45.899,-1,0,0
4628,45.909,-1,0,0
4629,45.919,-1,0,0
4630,45.929,-1,0,0
4631,45.939,-1,0,0
4632,45.949,-1,0,0
4633,45.959,-1,0,0
4634,45.969,-1,0,0
4635,45.979,-1,0,0
4636,45.989,-1,0,0
4637,45.999,-1,0,0
4638,46.009,-1,0,0
4639,46.019,-1,0,0
4640,46.029,-1,0,0
4641,46.039,-1,1,0
4642,46.049,-1,1,0
4643,46.059,-1,1,0
4644,46.069,-1,1,0
4645,46.079,-1,0,0
4646,46.089,-1,0,0
4647,46.099,-1,0,0
4648,46.109,-1,0,0
4649,46.119,-1,0,0
4650,46.129,-1,0,0
4651,46.139,-1,0,0
4652,46.149,-1,0,0
4653,46.159,-1,0,0
4654,46.169,-1,0,0
4655,46.179,-1,0,0
4656,46.189,-1,0,0
4657,46.199,-1,0,0
4658,46.209,-1,0,0
4659,46.219,-1,1,0
4660,46.229,-1,0,0
4661,46.239,-1,0,0
4662,46.249,-1,0,0
4663,46.259,-1,1,0
4664,46.269,-1,0,0
4665,46.279,-1,1,0
4666,46.289,-1,1,0
4667,46.299,-1,1,0
4668,46.309,-1,1,0
4669,46.319,-1,1,0
4670,46.329,-1,1,0
4671,46.339,-1,1,0
4672,46.349,-1,1,0
4673,46.359,-1,1,0
4674,46.369,-1,1,0
4675,46.379,-1,1,0
4676,46.389,-1,1,0
4677,46.399,-1,1,0
4678,46.409,-1,1,0
4679,46.419,-1,0,0
4680,46.429,-1,0,0
4681,46.439,-1,1,0
4682,46.449,-1,0,0
4683,46.459,-1,0,0
4684,46.469,-1,0,0
4685,46.479,-1,0,0
4686,46.489,-1,0,0
4687,46.499,-1,0,0
4688,46.509,-1,0,0
4689,46.519,-1,0,0
4690,46.529,-1,0,0
4691,46.539,-1,0,0
4692,46.549,-1,0,0
4693,46.559,-1,0,0
4694,46.569,-1,-1,0
4695,46.579,-1,0,0
4696,46.589,-1,-1,0
4697,46.599,-1,-1,0
4698,46.609,-1,-1,0
4699,46.619,-1,-1,0
4700,46.629,-1,-1,0
4701,46.639,-1,-1,0
4702,46.649,-1,-1,0
4703,46.659,-2,-1,0
4704,46.669,-1,-1,0
4705,46.679,-2,-1,0
4706,46.689,-1,-1,0
4707,46.699,-2,-1,0
4708,46.709,-1,-1,0
4709,46.719,-2,0,0
4710,46.729,-2,-1,0
4711,46.739,-1,0,0
4712,46.749,-1,0,0
4713,46.759,-2,0,0
4714,46.769,-1,-1,0
4715,46.779,-1,0,0
4716,46.789,-1,0,0
4717,46.799,-1,0,0
4718,46.809,-1,0,0
4719,46.819,-1,0,0
4720,46.829,-1,0,0
4721,46.839,-1,0,0
4722,46.849,-1,0,0
4723,46.859,-1,0,0
4724,46.869,-1,0,0
4725,46.879,-1,1,0
4726,46.889,-1,0,0
4727,46.899,-1,0,0
4728,46.909,-1,0,0
4729,46.919,-1,0,0
4730,46.929,-1,0,0
4731,46.939,-1,0,0
4732,46.949,-1,0,0
4733,46.959,-1,0,0
4734,46.969,-1,0,0
4735,46.979,-1,0,0
4736,46.989,-1,0,0
4737,46.999,-1,0,0
4738,47.009,-1,0,0
4739,47.019,-1,0,0
4740,47.029,-1,0,0
4741,47.039,-1,0,0
4742,47.049,-1,0,0
4743,47.059,-1,0,0
4744,47.069,-1,0,0
4745,47.079,-1,0,0
4746,47.089,-1,0,0
4747,47.099,-1,-1,0
4748,47.109,-1,-1,0
4749,47.119,-1,-1,0
4750,47.129,-1,-1,0
4751,47.139,-1,-1,0
4752,47.149,-1,-1,0
4753,47.159,-1,-1,0
4754,47.169,-1,-1,0
4755,47.179,-1,-1,0
4756,47.189,-1,-1,0
4757,47.199,-1,-1,0
4758,47.209,-1,-1,0
4759,47.219,-1,-1,0
4760,47.229,-1,-1,0
4761,47.239,-1,-1,0
4762,47.249,-1,-1,0
4763,47.259,-1,-1,0
4764,47.269,-1,-1,0
4765,47.279,-1,-1,0
4766,47.289,-1,-1,0
4767,47.299,-1,-1,0
4768,47.309,-1,-1,0
4769,47.319,-1,-1,0
4770,47.329,-1,-1,0
4771,47.339,-1,-1,0
4772,47.349,-1,-1,0
4773,47.359,-1,-1,0
4774,47.369,-1,-1,0
4775,47.379,-1,-1,0
4776,47.389,-1,-1,0
4777,47.399,-1,0,0
4778,47.409,-1,-1,0
4779,47.419,-1,-1,0
4780,47.429,-1,-1,0
4781,47.439,-1,-1,0
4782,47.449,-1,0,0
4783,47.459,-1,-1,0
4784,47.469,-1,-1,0
4785,47.479,-1,-1,0
4786,47.489,-1,-1,0
4787,47.499,-1,-1,0
4788,47.509,-1,-1,0
4789,47.519,-1,-1,0
4790,47.529,-1,0,0
4791,47.539,-1,-1,0
4792,47.549,-1,-1,0
4793,47.559,-1,-1,0
4794,47.569,-1,-1,0
4795,47.579,-1,-1,0
4796,47.589,-1,-1,0
4797,47.599,-1,-1,0
4798,47.609,-1,-1,0
4799,47.619,0,-1,0
4800,47.629,-1,-1,0
4801,47.639,0,-1,0
4802,47.649,-1,-1,0
4803,47.659,-1,-1,0
4804,47.669,-1,-1,0
4805,47.679,-1,-1,0
4806,47.689,-1,-1,0
4807,47.699,-1,-1,0
4808,47.709,0,-1,0
4809,47.719,-1,-1,0
4810,47.729,-1,-1,0
4811,47.739,-1,-1,0
4812,47.749,-1,-1,0
4813,47.759,-1,-1,0
4814,47.769,-1,-1,0
4815,47.779,-1,-1,0
4816,47.789,-1,-2,0
4817,47.799,-1,-1,0
4818,47.809,-1,-2,0
4819,47.819,-1,-2,0
4820,47.829,-1,-2,0
4821,47.839,-1,-2,0
4822,47.849,-1,-2,0
4823,47.859,-1,-3,0
4824,47.869,-1,-2,0
4825,47.879,-1,-3,0
4826,47.889,-1,-3,0
4827,47.899,-1,-3,0
4828,47.909,-1,-2,0
4829,47.919,-1,-3,0
4830,47.929,-1,-3,0
4831,47.939,-1,-3,0
4832,47.949,-1,-2,0
4833,47.959,-1,-2,0
4834,47.969,-1,-2,0
4835,47.979,-1,-2,0
4836,47.989,-1,-2,0
4837,47.999,-1,-1,0
4838,48.009,-1,-1,0
4839,48.019,0,-1,0
4840,48.029,0,-1,0
4841,48.039,-1,-1,0
4842,48.049,-1,-2,0
4843,48.059,-1,-1,0
4844,48.069,-1,-2,0
4845,48.079,-1,-2,0
4846,48.089,-1,-2,0
4847,48.099,-1,-2,0
4848,48.109,-1,-2,0
4849,48.119,-1,-2,0
4850,48.129,-1,-2,0
4851,48.139,-1,-2,0
4852,48.149,-1,-2,0
4853,48.159,-1,-2,0
4854,48.169,-1,-3,0
4855,48.179,-1,-3,0
4856,48.189,-1,-3,0
4857,48.199,-1,-3,0
4858,48.209,-1,-3,0
4859,48.219,-1,-3,0
4860,48.229,-1,-3,0
4861,48.239,-1,-3,0
4862,48.249,-1,-2,0
4863,48.259,-1,-3,0
4864,48.269,-1,-3,0
4865,48.279,-1,-2,0
4866,48.289,-1,-2,0
4867,48.299,-1,-2,0
4868,48.309,-1,-2,0
4869,48.319,-1,-2,0
4870,48.329,-1,-2,0
4871,48.339,-1,-2,0
4872,48.349,-1,-2,0
4873,48.359,-1,-1,0
4874,48.369,-1,-1,0
4875,48.379,-1,-1,0
4876,48.389,-1,-1,0
4877,48.399,-1,-1,0
4878,48.409,-1,0,0
4879,48.419,-1,0,0
4880,48.429,-1,1,0
4881,48.439,-2,1,0
4882,48.449,-1,1,0
4883,48.459,-1,1,0
4884,48.469,-1,1,0
4885,48.479,-1,2,0
4886,48.489,-2,2,0
4887,48.499,-1,2,0
4888,48.509,-1,2,0
4889,48.519,-1,2,0
4890,48.529,-1,2,0
4891,48.539,-2,1,0
4892,48.549,-1,1,0
4893,48.559,-1,1,0
4894,48.569,-1,1,0
4895,48.579,-1,1,0
4896,48.589,-1,1,0
4897,48.599,-1,0,0
4898,48.609,-1,0,0
4899,48.619,-1,0,0
4900,48.629,-1,0,0
4901,48.639,-1,0,0
4902,48.649,-1,0,0
4903,48.659,-1,0,0
4904,48.669,-1,0,0
4905,48.679,-1,0,0
4906,48.689,0,0,0
4907,48.699,0,0,0
4908,48.709,0,0,0
4909,48.719,0,0,0
4910,48.729,-1,0,0
4911,48.739,-1,0,0
4912,48.749,0,0,0
4913,48.759,0,0,0
4914,48.769,0,0,0
4915,48.779,0,0,0
4916,48.789,0,0,0
4917,48.799,0,0,0
4918,48.809,0,1,0
4919,48.819,0,1,0
4920,48.829,0,1,0
4921,48.839,0,0,0
4922,48.849,0,0,0
4923,48.859,0,1,0
4924,48.869,0,0,0
4925,48.879,0,0,0
4926,48.889,0,0,0
4927,48.899,0,0,0
4928,48.909,0,0,0
4929,48.919,0,0,0
4930,48.929,0,0,0
4931,48.939,0,0,0
4932,48.949,0,0,0
4933,48.959,0,0,0
4934,48.969,0,0,0
4935,48.979,0,0,0
4936,48.989,0,0,0
4937,48.999,0,0,0
4938,49.009,0,1,0
4939,49.019,0,1,0
4940,49.029,0,1,0
4941,49.039,0,1,0
4942,49.049,0,2,0
4943,49.059,0,1,0
4944,49.069,0,2,0
4945,49.079,0,2,0
4946,49.089,0,1,0
4947,49.099,1,2,0
4948,49.109,1,2,0
4949,49.119,1,2,0
4950,49.129,1,2,0
4951,49.139,0,1,0
4952,49.149,0,1,0
4953,49.159,1,1,0
4954,49.169,0,1,0
4955,49.179,0,1,0
4956,49.189,1,1,0
4957,49.199,0,1,0
4958,49.209,0,1,0
4959,49.219,0,1,0
4960,49.229,0,1,0
4961,49.239,0,1,0
4962,49.249,0,0,0
4963,49.259,1,1,0
4964,49.269,0,1,0
4965,49.279,1,0,0
4966,49.289,0,0,0
4967,49.299,0,0,0
4968,49.309,0,0,0
4969,49.319,0,0,0
4970,49.329,0,0,0
4971,49.339,0,0,0
4972,49.349,0,1,0
4973,49.359,0,1,0
4974,49.369,0,1,0
4975,49.379,0,1,0
4976,49.389,0,1,0
4977,49.399,0,1,0
4978,49.409,0,0,0
4979,49.419,0,0,0
4980,49.429,0,0,0
4981,49.439,0,0,0
4982,49.449,0,0,0
4983,49.459,0,0,0
4984,49.469,0,0,0
4985,49.479,0,0,0
4986,49.489,0,0,0
4987,49.499,0,1,0
4988,49.509,0,1,0
4989,49.519,0,0,0
4990,49.529,0,1,0
4991,49.539,-1,1,0
4992,49.549,-1,1,0
4993,49.559,-1,1,0
4994,49.569,-1,0,0
4995,49.579,-1,0,0
4996,49.589,-1,-1,0
4997,49.599,-1,-1,0
4998,49.609,-1,-1,0
4999,49.619,-2,-2,0
5000,49.629,-2,-3,0
5001,49.639,-2,-3,0
5002,49.649,-2,-3,0
5003,49.659,-2,-3,0
5004,49.669,-2,-3,0
5005,49.679,-2,-3,0
5006,49.689,-2,-3,0
5007,49.699,-2,-4,0
5008,49.709,-2,-4,0
5009,49.719,-2,-3,0
5010,49.729,-2,-4,0
5011,49.739,-2,-4,0
5012,49.749,-2,-4,0
5013,49.759,-2,-3,0
5014,49.769,-2,-3,0
5015,49.779,-2,-3,0
5016,49.789,-2,-3,0
5017,49.799,-1,-3,0
5018,49.809,-2,-3,0
5019,49.819,-1,-2,0
5020,49.829,-1,-2,0
5021,49.839,-1,-2,0
5022,49.849,-1,-2,0
5023,49.859,-1,-1,0
5024,49.869,-1,-2,0
5025,49.879,-1,-1,0
5026,49.889,-1,-1,0
5027,49.899,-1,-1,0
5028,49.909,-1,-2,0
5029,49.919,-1,-1,0
5030,49.929,-1,-1,0
5031,49.939,0,-1,0
5032,49.949,0,-1,0
5033,49.959,-1,-1,0
5034,49.969,-1,-1,0
5035,49.979,-1,-1,0
5036,49.989,-1,-1,0
5037,49.999,-1,-1,0
5038,50.009,-1,-1,0
5039,50.019,-1,-1,0
5040,50.029,-1,-1,0
5041,50.039,-1,-1,0
5042,50.049,-1,0,0
5043,50.059,-1,0,0
5044,50.069,-1,0,0
5045,50.079,-1,0,0
5046,50.089,-1,1,0
5047,50.099,-1,1,0
5048,50.109,-1,1,0
5049,50.119,-1,1,0
5050,50.129,-1,0,0
5051,50.139,-1,1,0
5052,50.149,-1,1,0
5053,50.159,-1,1,0
5054,50.169,-1,1,0
5055,50.179,-1,1,0
5056,50.189,-1,1,0
5057,50.199,-1,1,0
5058,50.209,-1,1,0
5059,50.219,-1,1,0
5060,50.229,-1,1,0
5061,50.239,-1,1,0
5062,50.249,-1,1,0
5063,50.259,-1,1,0
5064,50.269,-1,1,0
5065,50.279,-1,1,0
5066,50.289,-1,1,0
5067,50.299,-1,1,0
5068,50.309,-1,0,0
5069,50.319,-1,0,0
5070,50.329,-1,0,0
5071,50.339,-1,0,0
5072,50.349,-1,0,0
5073,50.359,-1,0,0
5074,50.369,-1,0,0
5075,50.379,-1,0,0
5076,50.389,-1,0,0
5077,50.399,-1,0,0
5078,50.409,-1,0,0
5079,50.419,-1,0,0
5080,50.429,-1,0,0
5081,50.439,-1,0,0
5082,50.449,-1,0,0
5083,50.459,-1,0,0
5084,50.469,-1,0,0
5085,50.479,-1,0,0
5086,50.489,-1,0,0
5087,50.499,-1,0,0
5088,50.509,-1,0,0
5089,50.519,-1,0,0
5090,50.529,-1,0,0
5091,50.539,-1,0,0
5092,50.549,-1,0,0
5093,50.559,-1,0,0
5094,50.569,-1,0,0
5095,50.579,-1,0,0
5096,50.589,-1,0,0
5097,50.599,-1,0,0
5098,50.609,-1,0,0
5099,50.619,-1,0,0
5100,50.629,-1,0,0
5101,50.639,-1,0,0
5102,50.649,-1,0,0
5103,50.659,-1,0,0
5104,50.669,-1,0,0
5105,50.679,-1,0,0
5106,50.689,-1,0,0
5107,50.699,-1,0,0
5108,50.709,-1,0,0
5109,50.719,-1,0,0
5110,50.729,-1,0,0
5111,50.739,-1,0,0
5112,50.749,-1,0,0
5113,50.759,-1,0,0
5114,50.769,-1,0,0
5115,50.779,-1,0,0
5116,50.789,-1,0,0
5117,50.799,-1,0,0
5118,50.809,-1,0,0
5119,50.819,-1,0,0
5120,50.829,-1,0,0
5121,50.839,-1,0,0
5122,50.849,-1,0,0
5123,50.859,-1,0,0
5124,50.869,-2,0,0
5125,50.879,-1,0,0
5126,50.889,-1,0,0
5127,50.899,-1,0,0
5128,50.909,-1,0,0
5129,50.919,-1,0,0
5130,50.929,-1,0,0
5131,50.939,-1,0,0
5132,50.949,-1,1,0
5133,50.959,-1,0,0
5134,50.969,-1,1,0
5135,50.979,-1,1,0
5136,50.989,-1,1,0
5137,50.999,-1,1,0
5138,51.009,-1,1,0
5139,51.019,-1,1,0
5140,51.029,-1,1,0
5141,51.039,-2,2,0
5142,51.049,-1,1,0
5143,51.059,-1,2,0
5144,51.069,-1,1,0
5145,51.079,-1,1,0
5146,51.089,-1,1,0
5147,51.099,-1,1,0
5148,51.109,-1,1,0
5149,51.119,-1,1,0
5150,51.129,-1,1,0
5151,51.139,-1,1,0
5152,51.149,-1,1,0
5153,51.159,-1,0,0
5154,51.169,-1,0,0
5155,51.179,-1,1,0
5156,51.189,-1,1,0
5157,51.199,-1,0,0
5158,51.209,-1,0,0
5159,51.219,-1,0,0
5160,51.229,-1,0,0
5161,51.239,-1,0,0
5162,51.249,-1,0,0
5163,51.259,-1,0,0
5164,51.269,-1,0,0
5165,51.279,-1,-1,0
5166,51.289,-1,0,0
5167,51.299,-2,0,0
5168,51.309,-1,-1,0
5169,51.319,-1,0,0
5170,51.329,-2,-1,0
5171,51.339,-1,0,0
5172,51.349,-1,-1,0
5173,51.359,-1,-1,0
5174,51.369,-2,-1,0
5175,51.379,-2,-1,0
5176,51.389,-2,-1,0
5177,51.399,-2,-1,0
5178,51.409,-2,-1,0
5179,51.419,-1,-1,0
5180,51.429,-2,-1,0
5181,51.439,-2,-1,0
5182,51.449,-2,-1,0
5183,51.459,-2,-1,0
5184,51.469,-2,-1,0
5185,51.479,-2,-1,0
5186,51.489,-2,-1,0
5187,51.499,-2,-1,0
5188,51.509,-2,-1,0
5189,51.519,-2,-1,0
5190,51.529,-2,-1,0
5191,51.539,-2,0,0
5192,51.549,-2,-1,0
5193,51.559,-2,-1,0
5194,51.569,-2,-1,0
5195,51.579,-2,-1,0
5196,51.589,-2,-1,0
5197,51.599,-2,-1,0
5198,51.609,-2,-1,0
5199,51.619,-2,-1,0
5200,51.629,-2,0,0
5201,51.639,-2,-1,0
5202,51.649,-2,-1,0
5203,51.659,-2,-1,0
5204,51.669,-2,-1,0
5205,51.679,-2,-1,0
5206,51.689,-2,-1,0
5207,51.699,-2,-1,0
5208,51.709,-2,-1,0
5209,51.719,-2,-1,0
5210,51.729,-2,-1,0
5211,51.739,-2,-1,0
5212,51.749,-2,-1,0
5213,51.759,-2,-1,0
5214,51.769,-2,-1,0
5215,51.779,-2,-1,0
5216,51.789,-2,-1,0
5217,51.799,-2,-1,0
5218,51.809,-2,-1,0
5219,51.819,-2,-1,0
5220,51.829,-2,-1,0
5221,51.839,-2,-1,0
5222,51.849,-2,-1,0
5223,51.859,-2,-1,0
5224,51.869,-2,-1,0
5225,51.879,-2,-1,0
5226,51.889,-1,-1,0
5227,51.899,-2,-1,0
5228,51.909,-2,-1,0
5229,51.919,-2,-1,0
5230,51.929,-2,-1,0
5231,51.939,-2,-1,0
5232,51.949,-2,-1,0
5233,51.959,-2,-1,0
5234,51.969,-2,-1,0
5235,51.979,-2,-1,0
5236,51.989,-2,-1,0
5237,51.999,-2,-1,0
5238,52.009,-2,-1,0
5239,52.019,-2,-1,0
5240,52.029,-2,-1,0
5241,52.039,-2,-1,0
5242,52.049,-2,-1,0
5243,52.059,-2,-1,0
5244,52.069,-2,-1,0
5245,52.079,-2,-1,0
5246,52.089,-2,-1,0
5247,52.099,-2,-1,0
5248,52.109,-2,0,0
5249,52.119,-1,-1,0
5250,52.129,-2,-1,0
5251,52.139,-1,-1,0
5252,52.149,-2,-1,0
5253,52.159,-2,-1,0
5254,52.169,-2,0,0
5255,52.179,-2,-1,0
5256,52.189,-2,-1,0
5257,52.199,-2,0,0
5258,52.209,-2,0,0
5259,52.219,-2,0,0
5260,52.229,-2,-1,0
5261,52.239,-2,0,0
5262,52.249,-2,-1,0
5263,52.259,-2,-1,0
5264,52.269,-2,-1,0
5265,52.279,-2,-1,0
5266,52.289,-2,-1,0
5267,52.299,-2,-1,0
5268,52.309,-2,-1,0
5269,52.319,-2,-1,0
5270,52.329,-2,-1,0
5271,52.339,-2,-1,0
5272,52.349,-2,-1,0
5273,52.359,-2,-1,0
5274,52.369,-2,-1,0
5275,52.379,-2,-1,0
5276,52.389,-2,-1,0
5277,52.399,-1,-1,0
5278,52.409,-2,-1,0
5279,52.419,-1,-1,0
5280,52.429,-2,-1,0
5281,52.439,-2,-1,0
5282,52.449,-2,-1,0
5283,52.459,-2,-1,0
5284,52.469,-2,-1,0
5285,52.479,-2,-1,0
5286,52.489,-2,-1,0
5287,52.499,-2,-1,0
5288,52.509,-2,-1,0
5289,52.519,-2,-1,0
5290,52.529,-2,-1,0
5291,52.539,-2,0,0
5292,52.549,-2,-1,0
5293,52.559,-2,-1,0
5294,52.569,-2,0,0
5295,52.579,-2,0,0
5296,52.589,-2,0,0
5297,52.599,-2,0,0
5298,52.609,-2,0,0
5299,52.619,-2,0,0
5300,52.629,-2,0,0
5301,52.639,-2,-1,0
5302,52.649,-2,0,0
5303,52.659,-1,0,0
5304,52.669,-2,0,0
5305,52.679,-1,0,0
5306,52.689,-1,0,0
5307,52.699,-1,0,0
5308,52.709,-1,0,0
5309,52.719,-1,0,0
5310,52.729,-2,0,0
5311,52.739,-1,0,0
5312,52.749,-2,0,0
5313,52.759,-1,0,0
5314,52.769,-2,0,0
5315,52.779,-1,0,0
5316,52.789,-1,0,0
5317,52.799,-2,0,0
5318,52.809,-2,0,0
5319,52.819,-1,0,0
5320,52.829,-1,0,0
5321,52.839,-1,0,0
5322,52.849,-1,0,0
5323,52.859,-2,0,0
5324,52.869,-1,0,0
5325,52.879,-1,0,0
5326,52.889,-1,0,0
5327,52.899,-1,0,0
5328,52.909,-2,0,0
5329,52.919,-1,0,0
5330,52.929,-1,0,0
5331,52.939,-1,0,0
5332,52.949,-1,0,0
5333,52.959,-1,1,0
5334,52.969,-1,0,0
5335,52.979,-1,0,0
5336,52.989,-1,0,0
5337,52.999,-1,0,0
5338,53.009,-1,0,0
5339,53.019,-1,1,0
5340,53.029,-1,0,0
5341,53.039,-1,1,0
5342,53.049,-1,0,0
5343,53.059,-1,0,0
5344,53.069,-1,0,0
5345,53.079,-1,0,0
5346,53.089,-1,0,0
5347,53.099,-1,0,0
5348,53.109,-1,0,0
5349,53.119,-1,0,0
5350,53.129,-1,0,0
5351,53.139,-1,0,0
5352,53.149,-1,0,0
5353,53.159,-1,0,0
5354,53.169,-1,1,0
5355,53.179,-1,1,0
5356,53.189,-1,1,0
5357,53.199,-1,1,0
5358,53.209,-1,1,0
5359,53.219,-2,0,0
5360,53.229,-1,1,0
5361,53.239,-1,0,0
5362,53.249,-2,1,0
5363,53.259,-2,0,0
5364,53.269,-2,0,0
5365,53.279,-2,0,0
5366,53.289,-1,0,0
5367,53.299,-2,0,0
5368,53.309,-2,0,0
5369,53.319,-2,0,0
5370,53.329,-2,0,0
5371,53.339,-2,0,0
5372,53.349,-2,-1,0
5373,53.359,-2,-1,0
5374,53.369,-1,0,0
5375,53.379,-1,-1,0
5376,53.389,-1,-1,0
5377,53.399,-2,-1,0
5378,53.409,-1,-1,0
5379,53.419,-1,-1,0
5380,53.429,-1,0,0
5381,53.439,-1,-1,0
5382,53.449,-1,0,0
5383,53.459,-1,0,0
5384,53.469,-1,0,0
5385,53.479,-1,0,0
5386,53.489,-1,0,0
5387,53.499,-1,0,0
5388,53.509,-1,-1,0
5389,53.519,-1,0,0
5390,53.529,-1,-1,0
5391,53.539,-1,-1,0
5392,53.549,-1,0,0
5393,53.559,-1,0,0
5394,53.569,-2,0,0
5395,53.579,-2,0,0
5396,53.589,-2,0,0
5397,53.599,-2,0,0
5398,53.609,-2,0,0
5399,53.619,-2,0,0
5400,53.629,-2,0,0
5401,53.639,-2,0,0
5402,53.649,-1,0,0
5403,53.659,-1,-1,0
5404,53.669,-1,-1,0
5405,53.679,0,-1,0
5406,53.689,0,-1,0
5407,53.699,-1,-1,0
5408,53.709,-1,0,0
5409,53.719,-2,0,0
5410,53.729,-1,0,0
5411,53.739,-1,0,0
5412,53.749,-1,0,0
5413,53.759,-1,0,0
5414,53.769,-1,0,0
5415,53.779,-1,0,0
5416,53.789,-1,0,0
5417,53.799,-2,0,0
5418,53.809,-2,0,0
5419,53.819,-2,0,0
5420,53.829,-1,0,0
5421,53.839,-1,0,0
5422,53.849,-1,0,0
5423,53.859,-1,0,0
5424,53.869,-1,-1,0
5425,53.879,-1,-1,0
5426,53.889,-1,0,0
5427,53.899,-1,0,0
5428,53.909,-1,0,0
5429,53.919,-1,0,0
5430,53.929,-1,0,0
5431,53.939,-1,0,0
5432,53.949,-1,1,0
5433,53.959,-1,0,0
5434,53.969,-1,0,0
5435,53.979,-1,0,0
5436,53.989,-1,0,0
5437,53.999,-1,-1,0
5438,54.009,-1,0,0
5439,54.019,-1,0,0
5440,54.029,-1,0,0
5441,54.039,-1,0,0
5442,54.049,-1,-1,0
5443,54.059,-1,0,0
5444,54.069,-1,0,0
5445,54.079,-1,0,0
5446,54.089,-1,0,0
5447,54.099,-1,0,0
5448,54.109,-1,0,0
5449,54.119,-1,0,0
5450,54.129,-1,0,0
5451,54.139,-1,0,0
5452,54.149,-1,0,0
5453,54.159,-1,0,0
5454,54.169,-1,0,0
5455,54.179,-1,0,0
5456,54.189,-1,0,0
5457,54.199,-1,-1,0
5458,54.209,-1,0,0
5459,54.219,-1,-1,0
5460,54.229,-1,0,0
5461,54.239,-1,-1,0
5462,54.249,-1,0,0
5463,54.259,-1,0,0
5464,54.269,-1,-1,0
5465,54.279,-1,0,0
5466,54.289,-1,0,0
5467,54.299,-1,0,0
5468,54.309,-1,0,0
5469,54.319,-1,0,0
5470,54.329,-1,0,0
5471,54.339,-1,0,0
5472,54.349,-1,0,0
5473,54.359,-1,0,0
5474,54.369,-1,0,0
5475,54.379,-1,0,0
5476,54.389,-1,0,0
5477,54.399,-1,0,0
5478,54.409,-1,0,0
5479,54.419,-1,0,0
5480,54.429,-1,0,0
5481,54.439,-1,0,0
5482,54.449,-1,0,0
5483,54.459,-1,0,0
5484,54.469,-1,0,0
5485,54.479,-1,0,0
5486,54.489,-1,0,0
5487,54.499,-1,0,0
5488,54.509,-1,0,0
5489,54.519,-1,0,0
5490,54.529,-1,0,0
5491,54.539,-1,0,0
5492,54.549,-1,0,0
5493,54.559,-1,0,0
5494,54.569,-1,0,0
5495,54.579,-1,1,0
5496,54.589,-1,0,0
5497,54.599,-1,0,0
5498,54.609,-1,1,0
5499,54.619,-1,1,0
5500,54.629,-1,1,0
5501,54.639,-1,0,0
5502,54.649,-1,0,0
5503,54.659,-1,0,0
5504,54.669,-1,0,0
5505,54.679,-1,0,0
5506,54.689,-1,0,0
5507,54.699,-1,0,0
5508,54.709,-1,0,0
5509,54.719,-1,0,0
5510,54.729,-1,0,0
5511,54.739,-1,0,0
5512,54.749,-1,0,0
5513,54.759,-1,0,0
5514,54.769,-1,0,0
5515,54.779,-1,0,0
5516,54.789,-1,0,0
5517,54.799,-1,0,0
5518,54.809,-1,1,0
5519,54.819,-1,0,0
5520,54.829,-2,0,0
5521,54.839,-1,0,0
5522,54.849,-1,0,0
5523,54.859,-1,0,0
5524,54.869,-1,0,0
5525,54.879,-1,0,0
5526,54.889,-1,0,0
5527,54.899,-1,0,0
5528,54.909,-1,0,0
5529,54.919,-1,0,0
5530,54.929,-1,0,0
5531,54.939,-1,0,0
5532,54.949,-1,0,0
5533,54.959,-1,0,0
5534,54.969,-1,0,0
5535,54.979,-2,0,0
5536,54.989,-2,0,0
5537,54.999,-2,1,0
5538,55.009,-2,0,0
5539,55.019,-2,1,0
5540,55.029,-1,1,0
5541,55.039,-1,1,0
5542,55.049,-1,1,0
5543,55.059,-1,1,0
5544,55.069,-1,1,0
5545,55.079,-1,1,0
5546,55.089,-1,1,0
5547,55.099,-1,1,0
5548,55.109,-1,1,0
5549,55.119,-1,1,0
5550,55.129,-1,1,0
5551,55.139,-1,1,0
5552,55.149,-1,1,0
5553,55.159,-1,0,0
5554,55.169,-1,0,0
5555,55.179,-1,0,0
5556,55.189,-1,0,0
5557,55.199,-1,1,0
5558,55.209,-1,1,0
5559,55.219,-1,1,0
5560,55.229,-1,1,0
5561,55.239,-1,1,0
5562,55.249,-1,1,0
5563,55.259,-2,1,0
5564,55.269,-2,1,0
5565,55.279,-1,0,0
5566,55.289,-1,0,0
5567,55.299,-1,0,0
5568,55.309,-1,0,0
5569,55.319,-1,-1,0
5570,55.329,-1,0,0
5571,55.339,-1,-1,0
5572,55.349,-1,-1,0
5573,55.359,-1,-1,0
5574,55.369,-1,-1,0
5575,55.379,-1,-1,0
5576,55.389,-1,-1,0
5577,55.399,-1,-1,0
5578,55.409,-1,-1,0
5579,55.419,-1,-1,0
5580,55.429,-1,-1,0
5581,55.439,-1,-1,0
5582,55.449,-1,-1,0
5583,55.459,-1,-1,0
5584,55.469,-1,-1,0
5585,55.479,-1,-1,0
5586,55.489,-1,-2,0
5587,55.499,-1,-1,0
5588,55.509,-1,-1,0
5589,55.519,-1,-1,0
5590,55.529,-1,-1,0
5591,55.539,-1,-1,0
5592,55.549,-1,-1,0
5593,55.559,-1,-1,0
5594,55.569,-1,-1,0
5595,55.579,-1,-1,0
5596,55.589,-1,-1,0
5597,55.599,-1,0,0
5598,55.609,-1,0,0
5599,55.619,-1,0,0
5600,55.629,-1,0,0
5601,55.639,-1,0,0
5602,55.649,-1,0,0
5603,55.659,-2,0,0
5604,55.669,-1,0,0
5605,55.679,-1,0,0
5606,55.689,-1,0,0
5607,55.699,-1,0,0
5608,55.709,-1,0,0
5609,55.719,-2,0,0
5610,55.729,-1,0,0
5611,55.739,-1,0,0
5612,55.749,-1,0,0
5613,55.759,-1,0,0
5614,55.769,-1,0,0
5615,55.779,-1,0,0
5616,55.789,-1,0,0
5617,55.799,-1,0,0
5618,55.809,-1,0,0
5619,55.819,-1,0,0
5620,55.829,-1,0,0
5621,55.839,-1,0,0
5622,55.849,-1,0,0
5623,55.859,-1,0,0
5624,55.869,-1,0,0
5625,55.879,-1,0,0
5626,55.889,-1,0,0
5627,55.899,-1,1,0
5628,55.909,-1,1,0
5629,55.919,-1,1,0
5630,55.929,-1,1,0
5631,55.939,-1,1,0
5632,55.949,-1,0,0
5633,55.959,-1,1,0
5634,55.969,-1,0,0
5635,55.979,-1,1,0
5636,55.989,-1,1,0
5637,55.999,-1,1,0
5638,56.009,-1,1,0
5639,56.019,-1,1,0
5640,56.029,-1,0,0
5641,56.039,-1,1,0
5642,56.049,-1,1,0
5643,56.059,-1,1,0
5644,56.069,-1,0,0
5645,56.079,-1,0,0
5646,56.089,-1,0,0
5647,56.099,-1,0,0
5648,56.109,-1,0,0
5649,56.119,-1,0,0
5650,56.129,-1,0,0
5651,56.139,-1,0,0
5652,56.149,-1,0,0
5653,56.159,-1,0,0
5654,56.169,-1,0,0
5655,56.179,-1,0,0
5656,56.189,-1,0,0
5657,56.199,-1,0,0
5658,56.209,-1,0,0
5659,56.219,-1,0,0
5660,56.229,-1,0,0
5661,56.239,-1,0,0
5662,56.249,-1,0,0
5663,56.259,-1,0,0
5664,56.269,-1,0,0
5665,56.279,-1,0,0
5666,56.289,-1,0,0
5667,56.299,-1,0,0
5668,56.309,-1,0,0
5669,56.319,-1,0,0
5670,56.329,-1,0,0
5671,56.339,-1,0,0
5672,56.349,-1,0,0
5673,56.359,-1,0,0
5674,56.369,-1,0,0
5675,56.379,-1,0,0
5676,56.389,-1,0,0
5677,56.399,-1,0,0
5678,56.409,-1,0,0
5679,56.419,-1,0,0
5680,56.429,-1,0,0
5681,56.439,-1,0,0
5682,56.449,-1,1,0
5683,56.459,-1,0,0
5684,56.469,-1,0,0
5685,56.479,-1,0,0
5686,56.489,-1,0,0
5687,56.499,-1,0,0
5688,56.509,-1,0,0
5689,56.519,-1,0,0
5690,56.529,-2,0,0
5691,56.539,-1,0,0
5692,56.549,-2,0,0
5693,56.559,-2,0,0
5694,56.569,-2,0,0
5695,56.579,-1,0,0
5696,56.589,-2,0,0
5697,56.599,-1,0,0
5698,56.609,-2,-1,0
5699,56.619,-1,-1,0
5700,56.629,-1,-1,0
5701,56.639,-1,-1,0
5702,56.649,-1,-1,0
5703,56.659,-1,-1,0
5704,56.669,-1,-1,0
5705,56.679,-1,-1,0
5706,56.689,-1,-1,0
5707,56.699,-1,-1,0
5708,56.709,-1,-1,0
5709,56.719,-1,-1,0
5710,56.729,-1,-1,0
5711,56.739,-1,-1,0
5712,56.749,-1,-1,0
5713,56.759,-1,-1,0
5714,56.769,-1,-1,0
5715,56.779,-1,-1,0
5716,56.789,-1,-1,0
5717,56.799,-1,-1,0
5718,56.809,-1,-1,0
5719,56.819,-1,-1,0
5720,56.829,-1,0,0
5721,56.839,-1,0,0
5722,56.849,-1,0,0
5723,56.859,-1,0,0
5724,56.869,-1,0,0
5725,56.879,-1,0,0
5726,56.889,-1,0,0
5727,56.899,-1,0,0
5728,56.909,-1,0,0
5729,56.919,-1,0,0
5730,56.929,-1,0,0
5731,56.939,-1,1,0
5732,56.949,-1,1,0
5733,56.959,-1,1,0
5734,56.969,-1,1,0
5735,56.979,-2,1,0
5736,56.989,-1,1,0
5737,56.999,-2,1,0
5738,57.009,-1,1,0
5739,57.019,-2,1,0
5740,57.029,-2,1,0
5741,57.039,-1,1,0
5742,57.049,-1,1,0
5743,57.059,-1,1,0
5744,57.069,-1,1,0
5745,57.079,-1,1,0
5746,57.089,-1,1,0
5747,57.099,-1,1,0
5748,57.109,-1,1,0
5749,57.119,-1,1,0
5750,57.129,-1,1,0
5751,57.139,-1,1,0
5752,57.149,-1,1,0
5753,57.159,-1,0,0
5754,57.169,-1,1,0
5755,57.179,-1,1,0
5756,57.189,-1,1,0
5757,57.199,-1,1,0
5758,57.209,-1,1,0
5759,57.219,-1,1,0
5760,57.229,-1,1,0
5761,57.239,-1,0,0
5762,57.249,-1,0,0
5763,57.259,-1,0,0
5764,57.269,0,0,0
5765,57.279,-1,-1,0
5766,57.289,-1,-1,0
5767,57.299,-1,-1,0
5768,57.309,-1,-1,0
5769,57.319,-1,-1,0
5770,57.329,-1,-1,0
5771,57.339,-1,-1,0
5772,57.349,-1,-1,0
5773,57.359,-1,-1,0
5774,57.369,-1,-1,0
5775,57.379,-1,-1,0
5776,57.389,-1,-1,0
5777,57.399,-1,0,0
5778,57.409,-1,-1,0
5779,57.419,-1,-1,0
5780,57.429,-1,-1,0
5781,57.439,-1,0,0
5782,57.449,-1,0,0
5783,57.459,-1,-1,0
5784,57.469,-1,0,0
5785,57.479,-1,0,0
5786,57.489,-1,0,0
5787,57.499,-1,0,0
5788,57.509,-1,0,0
5789,57.519,-1,0,0
5790,57.529,-1,0,0
5791,57.539,-1,0,0
5792,57.549,-1,0,0
5793,57.559,-1,0,0
5794,57.569,-1,0,0
5795,57.579,-1,0,0
5796,57.589,-1,0,0
5797,57.599,-1,1,0
5798,57.609,-1,1,0
5799,57.619,-1,1,0
5800,57.629,-1,1,0
5801,57.639,-1,1,0
5802,57.649,-1,1,0
5803,57.659,-1,1,0
5804,57.669,-1,1,0
5805,57.679,-1,2,0
5806,57.689,-1,1,0
5807,57.699,-1,2,0
5808,57.709,-1,2,0
5809,57.719,-1,2,0
5810,57.729,-1,1,0
5811,57.739,-1,2,0
5812,57.749,-1,1,0
5813,57.759,-1,2,0
5814,57.769,-1,2,0
5815,57.779,-1,2,0
5816,57.789,-1,2,0
5817,57.799,-1,2,0
5818,57.809,-1,1,0
5819,57.819,-1,1,0
5820,57.829,-1,1,0
5821,57.839,0,1,0
5822,57.849,-1,1,0
5823,57.859,-1,1,0
5824,57.869,-1,0,0
5825,57.879,0,0,0
5826,57.889,0,0,0
5827,57.899,-1,0,0
5828,57.909,-1,0,0
5829,57.919,-1,0,0
5830,57.929,-1,0,0
5831,57.939,0,0,0
5832,57.949,-1,0,0
5833,57.959,-1,-1,0
5834,57.969,-1,-1,0
5835,57.979,-1,0,0
5836,57.989,-1,-1,0
5837,57.999,-1,0,0
5838,58.009,-1,-1,0
5839,58.019,-1,-1,0
5840,58.029,-1,-1,0
5841,58.039,-1,-1,0
5842,58.049,-2,-1,0
5843,58.059,-2,0,0
5844,58.069,-2,0,0
5845,58.079,-2,0,0
5846,58.089,-2,0,0
5847,58.099,-2,0,0
5848,58.109,-2,0,0
5849,58.119,-2,1,0
5850,58.129,-2,1,0
5851,58.139,-2,1,0
5852,58.149,-2,1,0
5853,58.159,-2,1,0
5854,58.169,-2,1,0
5855,58.179,-2,1,0
5856,58.189,-2,1,0
5857,58.199,-2,1,0
5858,58.209,-2,1,0
5859,58.219,-2,1,0
5860,58.229,-2,1,0
5861,58.239,-1,1,0
5862,58.249,-1,1,0
5863,58.259,-2,1,0
5864,58.269,-1,0,0
5865,58.279,-1,1,0
5866,58.289,-1,0,0
5867,58.299,-1,0,0
5868,58.309,-1,0,0
5869,58.319,-1,0,0
5870,58.329,-1,0,0
5871,58.339,-1,0,0
5872,58.349,-1,0,0
5873,58.359,-1,0,0
5874,58.369,-1,0,0
5875,58.379,-1,0,0
5876,58.389,-1,0,0
5877,58.399,-1,0,0
5878,58.409,-1,0,0
5879,58.419,-1,0,0
5880,58.429,-1,0,0
5881,58.439,-1,0,0
5882,58.449,-1,0,0
5883,58.459,-1,0,0
5884,58.469,-1,0,0
5885,58.479,-1,0,0
5886,58.489,-1,0,0
5887,58.499,-2,0,0
5888,58.509,-2,0,0
5889,58.519,-2,0,0
5890,58.529,-2,0,0
5891,58.539,-2,0,0
5892,58.549,-2,0,0
5893,58.559,-2,0,0
5894,58.569,-2,0,0
5895,58.579,-2,0,0
5896,58.589,-2,0,0
5897,58.599,-2,0,0
5898,58.609,-2,0,0
5899,58.619,-2,0,0
5900,58.629,-2,0,0
5901,58.639,-2,-1,0
5902,58.649,-2,-1,0
5903,58.659,-2,-1,0
5904,58.669,-2,-1,0
5905,58.679,-1,-1,0
5906,58.689,-2,-1,0
5907,58.699,-2,-1,0
5908,58.709,-1,-1,0
5909,58.719,-1,-1,0
5910,58.729,-1,0,0
5911,58.739,-2,-1,0
5912,58.749,-1,0,0
5913,58.759,-1,0,0
5914,58.769,-1,0,0
5915,58.779,-1,0,0
5916,58.789,-1,-1,0
5917,58.799,-1,-1,0
5918,58.809,-1,-1,0
5919,58.819,-1,-1,0
5920,58.829,-1,-1,0
5921,58.839,-1,-1,0
5922,58.849,-1,-1,0
5923,58.859,-1,-1,0
5924,58.869,-1,-1,0
5925,58.879,-1,-1,0
5926,58.889,-1,-1,0
5927,58.899,-1,-1,0
5928,58.909,-1,-1,0
5929,58.919,-1,-1,0
5930,58.929,-1,-1,0
5931,58.939,-1,-1,0
5932,58.949,-1,-1,0
5933,58.959,-1,-1,0
5934,58.969,-1,-1,0
5935,58.979,-1,-1,0
5936,58.989,-1,-1,0
5937,58.999,-1,-2,0
5938,59.009,-1,-2,0
5939,59.019,-1,-2,0
5940,59.029,-1,-1,0
5941,59.039,-1,-1,0
5942,59.049,-1,-1,0
5943,59.059,-1,-1,0
5944,59.069,-1,-1,0
5945,59.079,-1,-1,0
5946,59.089,-1,-1,0
5947,59.099,-1,-1,0
5948,59.109,-2,-1,0
5949,59.119,-2,-1,0
5950,59.129,-1,-1,0
5951,59.139,-2,-1,0
5952,59.149,-1,-1,0
5953,59.159,-1,-1,0
5954,59.169,-2,-1,0
5955,59.179,-2,-1,0
5956,59.189,-2,-1,0
5957,59.199,-2,-1,0
5958,59.209,-2,-1,0
5959,59.219,-2,-1,0
5960,59.229,-2,-1,0
5961,59.239,-2,-1,0
5962,59.249,-2,0,0
5963,59.259,-2,0,0
5964,59.269,-2,-1,0
5965,59.279,-2,0,0
5966,59.289,-2,0,0
5967,59.299,-2,-1,0
5968,59.309,-2,0,0
5969,59.319,-2,0,0
5970,59.329,-2,-1,0
5971,59.339,-2,-1,0
5972,59.349,-2,-1,0
5973,59.359,-2,-1,0
5974,59.369,-1,-1,0
5975,59.379,-2,-1,0
5976,59.389,-2,-1,0
5977,59.399,-2,-1,0
5978,59.409,-2,-1,0
5979,59.419,-1,-1,0
5980,59.429,-2,-1,0
5981,59.439,-2,-1,0
5982,59.449,-2,-1,0
5983,59.459,-1,-1,0
5984,59.469,-2,-1,0
5985,59.479,-2,-1,0
5986,59.489,-2,-1,0
5987,59.499,-2,-1,0
5988,59.509,-2,-1,0
5989,59.519,-2,-1,0
5990,59.529,-2,-1,0
5991,59.539,-2,-1,0
5992,59.549,-2,-1,0
5993,59.559,-2,-1,0
5994,59.569,-2,-1,0
5995,59.579,-2,-1,0
5996,59.589,-2,-1,0
5997,59.599,-2,-1,0
5998,59.609,-2,-1,0
5999,59.619,-2,-1,0
6000,59.629,-2,-1,0
6001,59.639,-2,-1,0
6002,59.649,-2,-1,0
6003,59.659,-2,-1,0
6004,59.669,-2,-1,0
6005,59.679,-2,-1,0
6006,59.689,-2,-1,0
6007,59.699,-2,-1,0
6008,59.709,-2,-1,0
6009,59.719,-2,-1,0
6010,59.729,-2,-1,0
6011,59.739,-2,-1,0
6012,59.749,-2,-1,0
6013,59.759,-2,-1,0
6014,59.769,-2,-1,0
6015,59.779,-2,-1,0
6016,59.789,-2,-1,0
6017,59.799,-2,-1,0
6018,59.809,-2,-1,0
6019,59.819,-2,-1,0
6020,59.829,-2,-1,0
6021,59.839,-2,-1,0
6022,59.849,-2,-1,0
6023,59.859,-2,-1,0
6024,59.869,-2,0,0
6025,59.879,-2,0,0
6026,59.889,-2,0,0
6027,59.899,-2,1,0
6028,59.909,-2,0,0
6029,59.919,-2,1,0
6030,59.929,-2,0,0
6031,59.939,-2,1,0
6032,59.949,-2,1,0
6033,59.959,-2,1,0
6034,59.969,-2,1,0
6035,59.979,-2,1,0
6036,59.989,-2,1,0
6037,59.999,-2,0,0
6038,60.009,-2,1,0
6039,60.019,-2,0,0
6040,60.029,-2,0,0
6041,60.039,-2,0,0
6042,60.049,-2,0,0
6043,60.059,-2,0,0
6044,60.069,-2,0,0
6045,60.079,-2,-1,0
6046,60.089,-2,-1,0
6047,60.099,-2,-1,0
6048,60.109,-2,-1,0
6049,60.119,-2,-1,0
6050,60.129,-2,-1,0
6051,60.139,-2,0,0
6052,60.149,-2,0,0
6053,60.159,-2,-1,0
6054,60.169,-2,-1,0
6055,60.179,-2,-1,0
6056,60.189,-2,0,0
6057,60.199,-2,0,0
6058,60.209,-2,0,0
6059,60.219,-2,0,0
6060,60.229,-2,0,0
6061,60.239,-2,0,0
6062,60.249,-2,0,0
6063,60.259,-1,-1,0
6064,60.269,-1,-1,0
6065,60.279,-2,-1,0
6066,60.289,-2,-1,0
6067,60.299,-2,-1,0
6068,60.309,-1,-1,0
6069,60.319,-1,-1,0
6070,60.329,-1,-1,0
6071,60.339,-1,-1,0
6072,60.349,-1,-1,0
6073,60.359,-1,-1,0
6074,60.369,-1,-1,0
6075,60.379,-1,-2,0
6076,60.389,-1,-1,0
6077,60.399,-1,-2,0
6078,60.409,-1,-2,0
6079,60.419,-1,-2,0
6080,60.429,-1,-2,0
6081,60.439,-1,-2,0
6082,60.449,-1,-2,0
6083,60.459,-1,-2,0
6084,60.469,-1,-2,0
6085,60.479,-1,-2,0
6086,60.489,-1,-2,0
6087,60.499,-1,-2,0
6088,60.509,-1,-2,0
6089,60.519,-1,-2,0
6090,60.529,-1,-2,0
6091,60.539,-1,-2,0
6092,60.549,-1,-2,0
6093,60.559,-1,-2,0
6094,60.569,-1,-2,0
6095,60.579,-1,-2,0
6096,60.589,-1,-2,0
6097,60.599,-1,-2,0
6098,60.609,-1,-2,0
6099,60.619,-1,-2,0
6100,60.629,-1,-2,0
6101,60.639,-1,-2,0
6102,60.649,-1,-2,0
6103,60.659,-1,-2,0
6104,60.669,-1,-2,0
6105,60.679,-1,-2,0
6106,60.689,-1,-2,0
6107,60.699,-1,-2,0
6108,60.709,-1,-2,0
6109,60.719,-1,-2,0
6110,60.729,-1,-2,0
6111,60.739,-1,-2,0
6112,60.749,-1,-2,0
6113,60.759,-1,-2,0
6114,60.769,-1,-2,0
6115,60.779,-1,-1,0
6116,60.789,-1,-1,0
6117,60.799,-1,-1,0
6118,60.809,-1,-1,0
6119,60.819,-1,-1,0
6120,60.829,-1,-1,0
6121,60.839,-1,-1,0
6122,60.849,-1,-1,0
6123,60.859,-1,-1,0
6124,60.869,0,-1,0
6125,60.879,0,-1,0
6126,60.889,-1,-1,0
6127,60.899,-1,-1,0
6128,60.909,-1,-1,0
6129,60.919,-1,-1,0
6130,60.929,-1,-1,0
6131,60.939,-1,-1,0
6132,60.949,0,-1,0
6133,60.959,-1,-1,0
6134,60.969,-1,-1,0
6135,60.979,-1,-1,0
6136,60.989,-1,-1,0
6137,60.999,-1,-1,0
6138,61.009,-1,-1,0
6139,61.019,-1,-1,0
6140,61.029,-1,-1,0
6141,61.039,-1,-1,0
6142,61.049,-1,-1,0
6143,61.059,0,-1,0
6144,61.069,-1,-1,0
6145,61.079,-1,-1,0
6146,61.089,-1,0,0
6147,61.099,-1,-1,0
6148,61.109,-1,0,0
6149,61.119,-1,0,0
6150,61.129,-1,0,0
6151,61.139,-1,0,0
6152,61.149,-1,0,0
6153,61.159,-1,0,0
6154,61.169,-1,0,0
6155,61.179,-1,0,0
6156,61.189,-1,0,0
6157,61.199,-1,0,0
6158,61.209,-1,0,0
6159,61.219,-1,0,0
6160,61.229,-1,0,0
6161,61.239,-1,0,0
6162,61.249,-1,0,0
6163,61.259,-2,0,0
6164,61.269,-2,0,0
6165,61.279,-2,0,0
6166,61.289,-1,0,0
6167,61.299,-2,1,0
6168,61.309,-2,1,0
6169,61.319,-1,1,0
6170,61.329,-1,1,0
6171,61.339,-1,1,0
6172,61.349,-1,1,0
6173,61.359,-1,0,0
6174,61.369,-1,1,0
6175,61.379,-1,1,0
6176,61.389,-2,1,0
6177,61.399,-2,1,0
6178,61.409,-2,1,0
6179,61.419,-2,1,0
6180,61.429,-1,1,0
6181,61.439,-2,1,0
6182,61.449,-1,1,0
6183,61.459,-1,1,0
6184,61.469,-1,0,0
6185,61.479,-1,0,0
6186,61.489,-1,0,0
6187,61.499,-1,0,0
6188,61.509,-1,0,0
6189,61.519,-1,0,0
6190,61.529,-1,0,0
6191,61.539,-1,0,0
6192,61.549,-1,0,0
6193,61.559,-1,0,0
6194,61.569,-1,0,0
6195,61.579,-1,0,0
6196,61.589,-1,0,0
6197,61.599,-1,0,0
6198,61.609,-1,0,0
6199,61.619,-1,0,0
6200,61.629,-1,0,0
6201,61.639,-1,0,0
6202,61.649,-1,0,0
6203,61.659,-1,0,0
6204,61.669,-1,0,0
6205,61.679,-1,1,0
6206,61.689,-1,1,0
6207,61.699,-1,1,0
6208,61.709,-1,1,0
6209,61.719,-1,1,0
6210,61.729,-1,1,0
6211,61.739,-1,1,0
6212,61.749,-1,1,0
6213,61.759,-1,1,0
6214,61.769,-1,2,0
6215,61.779,-1,2,0
6216,61.789,-1,1,0
6217,61.799,-1,1,0
6218,61.809,-1,1,0
6219,61.819,-2,1,0
6220,61.829,-1,1,0
6221,61.839,-1,1,0
6222,61.849,-2,1,0
6223,61.859,-1,0,0
6224,61.869,-1,0,0
6225,61.879,-1,0,0
6226,61.889,-1,0,0
6227,61.899,-1,0,0
6228,61.909,-1,0,0
6229,61.919,-1,0,0
6230,61.929,-1,0,0
6231,61.939,-1,0,0
6232,61.949,-1,-1,0
6233,61.959,-1,-1,0
6234,61.969,-1,-1,0
6235,61.979,-1,-1,0
6236,61.989,-1,-1,0
6237,61.999,-1,-1,0
6238,62.009,-1,-2,0
6239,62.019,-1,-1,0
6240,62.029,-1,-1,0
6241,62.039,-1,-1,0
6242,62.049,-1,-1,0
6243,62.059,-1,-1,0
6244,62.069,-1,-2,0
6245,62.079,-1,-2,0
6246,62.089,-1,-1,0
6247,62.099,-1,-2,0
6248,62.109,-1,-2,0
6249,62.119,-1,-1,0
6250,62.129,-1,-1,0
6251,62.139,-1,-1,0
6252,62.149,-1,-1,0
6253,62.159,-1,-1,0
6254,62.169,-1,-1,0
6255,62.179,-1,-1,0
6256,62.189,-2,-1,0
6257,62.199,-1,-1,0
6258,62.209,-2,-1,0
6259,62.219,-1,-1,0
6260,62.229,-1,-1,0
6261,62.239,-1,-1,0
6262,62.249,-1,-1,0
