,ts,id,Gx,Gy,Gz,Ax,Ay,Az
0,-0.371,IMU0,1.6463414634146343,2.0121951219512195,-65.42682926829269,0.025390625,0.01171875,0.00390625
1,-0.371,IMU1,2.987804878048781,2.1951219512195124,-67.7439024390244,0.0068359375,0.0107421875,-0.001953125
2,-0.361,IMU0,2.1341463414634148,1.829268292682927,-65.0609756097561,0.025390625,0.0146484375,0.001953125
3,-0.361,IMU1,3.536585365853659,2.1341463414634148,-67.31707317073172,0.0068359375,0.0146484375,-0.00390625
4,-0.351,IMU0,1.6463414634146343,1.8902439024390245,-65.2439024390244,0.0263671875,0.01171875,0.0048828125
5,-0.351,IMU1,3.1097560975609757,2.3170731707317076,-67.31707317073172,0.0068359375,0.009765625,0.0
6,-0.341,IMU0,2.1341463414634148,2.0121951219512195,-65.42682926829269,0.0234375,0.0146484375,0.001953125
7,-0.341,IMU1,3.414634146341464,2.439024390243903,-67.5609756097561,0.0029296875,0.01171875,-0.00390625
8,-0.331,IMU0,1.7682926829268295,1.8902439024390245,-65.1829268292683,0.0263671875,0.0107421875,0.00390625
9,-0.331,IMU1,2.987804878048781,2.25609756097561,-67.13414634146342,0.009765625,0.0087890625,-0.001953125
10,-0.321,IMU0,2.1951219512195124,2.1341463414634148,-65.0609756097561,0.0234375,0.0146484375,0.0029296875
11,-0.321,IMU1,3.5975609756097566,2.378048780487805,-67.5609756097561,0.00390625,0.01171875,-0.00390625
12,-0.311,IMU0,1.707317073170732,1.8902439024390245,-65.48780487804879,0.0244140625,0.0087890625,0.0048828125
13,-0.311,IMU1,2.9268292682926833,2.3170731707317076,-67.5609756097561,0.0068359375,0.0078125,-0.001953125
14,-0.301,IMU0,2.0121951219512195,1.8902439024390245,-65.3658536585366,0.0244140625,0.013671875,0.001953125
15,-0.301,IMU1,3.536585365853659,2.1341463414634148,-67.5609756097561,0.005859375,0.0146484375,-0.0048828125
16,-0.291,IMU0,1.8902439024390245,1.9512195121951221,-65.3658536585366,0.0244140625,0.0087890625,0.0029296875
17,-0.291,IMU1,3.231707317073171,2.439024390243903,-67.37804878048782,0.0068359375,0.0087890625,-0.0029296875
18,-0.281,IMU0,1.8902439024390245,1.8902439024390245,-65.42682926829269,0.0234375,0.0146484375,0.0048828125
19,-0.281,IMU1,3.353658536585366,2.1951219512195124,-67.5609756097561,0.0048828125,0.013671875,-0.0029296875
20,-0.271,IMU0,1.829268292682927,2.0121951219512195,-65.3048780487805,0.0234375,0.009765625,0.001953125
21,-0.271,IMU1,3.2926829268292686,2.3170731707317076,-67.31707317073172,0.005859375,0.0087890625,-0.00390625
22,-0.261,IMU0,2.0121951219512195,1.7682926829268295,-65.1829268292683,0.0244140625,0.0166015625,0.00390625
23,-0.261,IMU1,3.414634146341464,2.25609756097561,-67.31707317073172,0.0068359375,0.0126953125,-0.001953125
24,-0.251,IMU0,1.8902439024390245,1.9512195121951221,-65.48780487804879,0.0234375,0.01171875,0.0029296875
25,-0.251,IMU1,3.231707317073171,2.378048780487805,-67.37804878048782,0.00390625,0.009765625,-0.001953125
26,-0.241,IMU0,1.8902439024390245,1.707317073170732,-65.2439024390244,0.025390625,0.015625,0.0029296875
27,-0.241,IMU1,3.353658536585366,2.073170731707317,-67.37804878048782,0.0078125,0.013671875,-0.00390625
28,-0.231,IMU0,2.073170731707317,1.8902439024390245,-65.3048780487805,0.025390625,0.0107421875,0.00390625
29,-0.231,IMU1,3.353658536585366,2.1341463414634148,-67.25609756097562,0.0068359375,0.009765625,-0.001953125
30,-0.221,IMU0,1.7682926829268295,2.0121951219512195,-64.81707317073172,0.0244140625,0.015625,0.001953125
31,-0.221,IMU1,3.231707317073171,2.3170731707317076,-67.43902439024392,0.005859375,0.0146484375,-0.0048828125
32,-0.211,IMU0,2.1951219512195124,1.829268292682927,-65.3658536585366,0.025390625,0.0107421875,0.0068359375
33,-0.211,IMU1,3.4756097560975614,2.073170731707317,-67.37804878048782,0.0068359375,0.009765625,0.001953125
34,-0.201,IMU0,1.707317073170732,1.829268292682927,-65.1219512195122,0.025390625,0.01171875,0.0
35,-0.201,IMU1,3.1707317073170733,2.25609756097561,-67.19512195121952,0.0078125,0.0126953125,-0.0068359375
36,-0.191,IMU0,2.25609756097561,1.7682926829268295,-65.3048780487805,0.02734375,0.0078125,0.0048828125
37,-0.191,IMU1,3.4756097560975614,2.0121951219512195,-67.43902439024392,0.0078125,0.0078125,0.0
38,-0.181,IMU0,1.5853658536585367,1.402439024390244,-65.54878048780489,0.0224609375,0.01171875,0.001953125
39,-0.181,IMU1,3.1097560975609757,1.829268292682927,-67.6219512195122,0.00390625,0.0126953125,-0.0048828125
40,-0.171,IMU0,1.707317073170732,2.3170731707317076,-65.1829268292683,0.02734375,0.0087890625,0.0048828125
41,-0.171,IMU1,2.987804878048781,2.25609756097561,-67.5609756097561,0.0068359375,0.0107421875,0.0
42,-0.161,IMU0,1.9512195121951221,2.5,-65.48780487804879,0.021484375,0.00390625,0.00390625
43,-0.161,IMU1,3.1707317073170733,2.5609756097560976,-67.8658536585366,0.0029296875,0.00390625,-0.001953125
44,-0.151,IMU0,2.6219512195121952,1.402439024390244,-64.81707317073172,0.0302734375,0.009765625,0.005859375
45,-0.151,IMU1,3.9024390243902443,1.5853658536585367,-66.70731707317074,0.0126953125,0.0078125,0.0
46,-0.141,IMU0,3.7195121951219514,-0.853658536585366,-65.3048780487805,0.025390625,-0.0078125,0.0146484375
47,-0.141,IMU1,4.451219512195122,-0.7317073170731708,-67.8048780487805,0.005859375,-0.01171875,0.0087890625
48,-0.131,IMU0,3.353658536585366,-1.3414634146341464,-75.3658536585366,-0.064453125,-0.037109375,0.021484375
49,-0.131,IMU1,5.487804878048781,-0.6707317073170732,-77.5,-0.0947265625,-0.0322265625,0.013671875
50,-0.121,IMU0,3.7195121951219514,-1.4634146341463417,-84.75609756097562,-0.14453125,-0.078125,0.0576171875
51,-0.121,IMU1,4.451219512195122,-0.06097560975609757,-87.31707317073172,-0.1591796875,-0.0791015625,0.052734375
52,-0.111,IMU0,4.024390243902439,-3.5975609756097566,-97.43902439024392,-0.232421875,-0.0361328125,0.0517578125
53,-0.111,IMU1,5.060975609756098,-2.5,-100.1219512195122,-0.2490234375,-0.0400390625,0.048828125
54,-0.101,IMU0,4.329268292682928,-0.6707317073170732,-111.52439024390245,-0.28125,0.0244140625,0.05078125
55,-0.101,IMU1,5.670731707317073,-0.7926829268292683,-115.00000000000001,-0.306640625,0.0263671875,0.0439453125
56,-0.091,IMU0,5.670731707317073,-0.853658536585366,-126.46341463414635,-0.248046875,0.078125,0.0390625
57,-0.091,IMU1,7.317073170731708,0.5487804878048781,-129.26829268292684,-0.2626953125,0.0771484375,0.0302734375
58,-0.081,IMU0,8.353658536585366,2.0121951219512195,-135.4878048780488,-0.185546875,0.0302734375,0.013671875
59,-0.081,IMU1,9.756097560975611,5.0,-138.41463414634148,-0.1953125,0.021484375,0.0068359375
60,-0.071,IMU0,6.829268292682928,7.134146341463415,-141.82926829268294,-0.05859375,-0.01171875,0.001953125
61,-0.071,IMU1,9.26829268292683,10.060975609756099,-143.71951219512195,-0.064453125,-0.0166015625,-0.0048828125
62,-0.061,IMU0,7.01219512195122,7.743902439024391,-149.63414634146343,0.015625,-0.0068359375,0.005859375
63,-0.061,IMU1,9.085365853658537,7.317073170731708,-152.8658536585366,0.005859375,-0.0087890625,0.0029296875
64,-0.051,IMU0,7.195121951219513,-0.6707317073170732,-163.90243902439025,-0.05078125,0.0390625,0.0224609375
65,-0.051,IMU1,8.231707317073171,-1.707317073170732,-167.6829268292683,-0.0810546875,0.0361328125,0.01953125
66,-0.041,IMU0,9.329268292682928,0.9146341463414634,-175.5487804878049,-0.123046875,0.080078125,0.0185546875
67,-0.041,IMU1,11.646341463414634,2.6219512195121952,-178.78048780487808,-0.1435546875,0.0830078125,0.0087890625
68,-0.031,IMU0,11.402439024390246,2.987804878048781,-186.58536585365854,-0.1591796875,0.021484375,-0.0078125
69,-0.031,IMU1,13.658536585365855,3.4756097560975614,-188.59756097560978,-0.1826171875,0.0166015625,-0.017578125
70,-0.021,IMU0,10.24390243902439,3.1707317073170733,-193.2926829268293,-0.1513671875,-0.0673828125,-0.0146484375
71,-0.021,IMU1,11.463414634146343,3.536585365853659,-196.82926829268294,-0.1748046875,-0.07421875,-0.021484375
72,-0.011,IMU0,7.682926829268293,3.5975609756097566,-196.15853658536588,-0.095703125,-0.1064453125,-0.0302734375
73,-0.011,IMU1,8.719512195121952,3.658536585365854,-198.35365853658539,-0.1171875,-0.10546875,-0.03515625
74,-0.001,IMU0,5.609756097560976,2.5609756097560976,-193.71951219512198,-0.0849609375,-0.029296875,-0.0341796875
75,-0.001,IMU1,6.52439024390244,2.6219512195121952,-195.4878048780488,-0.1025390625,-0.0224609375,-0.0341796875
76,0.009,IMU0,6.7682926829268295,4.695121951219512,-193.47560975609758,-0.0703125,0.0419921875,-0.0439453125
77,0.009,IMU1,9.756097560975611,4.939024390243903,-194.63414634146343,-0.083984375,0.0498046875,-0.0478515625
78,0.019,IMU0,6.707317073170732,1.7682926829268295,-197.8048780487805,-0.076171875,0.037109375,-0.03515625
79,0.019,IMU1,9.939024390243903,2.8658536585365857,-199.02439024390245,-0.0986328125,0.048828125,-0.0419921875
80,0.029,IMU0,6.707317073170732,3.1707317073170733,-202.62195121951223,-0.09765625,-0.015625,-0.0322265625
81,0.029,IMU1,9.451219512195122,3.4756097560975614,-203.78048780487808,-0.125,-0.0087890625,-0.037109375
82,0.039,IMU0,7.500000000000001,4.451219512195122,-207.56097560975613,-0.0751953125,-0.046875,-0.03515625
83,0.039,IMU1,9.573170731707318,4.817073170731708,-209.63414634146343,-0.08984375,-0.0419921875,-0.0439453125
84,0.049,IMU0,7.134146341463415,2.5,-210.1829268292683,-0.0419921875,-0.0625,-0.021484375
85,0.049,IMU1,8.841463414634147,3.048780487804878,-213.71951219512198,-0.060546875,-0.0576171875,-0.029296875
86,0.059,IMU0,5.609756097560976,1.402439024390244,-219.20731707317074,-0.03125,-0.052734375,-0.0087890625
87,0.059,IMU1,7.073170731707318,3.1097560975609757,-221.46341463414637,-0.0595703125,-0.0419921875,-0.0146484375
88,0.069,IMU0,5.2439024390243905,1.8902439024390245,-225.85365853658539,-0.013671875,0.0009765625,-0.017578125
89,0.069,IMU1,7.25609756097561,3.231707317073171,-226.03658536585368,-0.037109375,0.0146484375,-0.0205078125
90,0.079,IMU0,7.8048780487804885,1.5853658536585367,-230.18292682926833,-0.0146484375,0.0419921875,-0.0390625
91,0.079,IMU1,9.085365853658537,1.4634146341463417,-231.64634146341464,-0.03515625,0.0517578125,-0.0400390625
92,0.089,IMU0,7.865853658536586,1.402439024390244,-240.3048780487805,-0.0390625,0.0537109375,-0.0361328125
93,0.089,IMU1,9.634146341463415,2.073170731707317,-242.19512195121953,-0.0595703125,0.0537109375,-0.0361328125
94,0.099,IMU0,9.939024390243903,2.9268292682926833,-244.81707317073173,-0.0390625,0.0234375,-0.025390625
95,0.099,IMU1,12.926829268292684,3.2926829268292686,-245.85365853658539,-0.0537109375,0.0263671875,-0.02734375
96,0.109,IMU0,9.939024390243903,1.2195121951219514,-251.76829268292684,-0.021484375,-0.0205078125,-0.0224609375
97,0.109,IMU1,11.158536585365855,1.4634146341463417,-253.1707317073171,-0.0390625,-0.015625,-0.0263671875
98,0.119,IMU0,11.707317073170733,3.1707317073170733,-252.07317073170734,-0.0234375,-0.0390625,-0.029296875
99,0.119,IMU1,13.841463414634148,3.780487804878049,-253.2926829268293,-0.0439453125,-0.0341796875,-0.033203125
100,0.129,IMU0,8.963414634146343,1.829268292682927,-257.9268292682927,-0.0009765625,-0.0439453125,-0.0478515625
101,0.129,IMU1,10.853658536585368,2.987804878048781,-258.9024390243903,-0.0234375,-0.041015625,-0.0546875
102,0.139,IMU0,10.24390243902439,2.7439024390243905,-255.06097560975613,-0.00390625,-0.0263671875,-0.072265625
103,0.139,IMU1,11.76829268292683,3.536585365853659,-256.5853658536586,-0.03125,-0.025390625,-0.0771484375
104,0.149,IMU0,9.085365853658537,2.073170731707317,-258.7804878048781,0.009765625,-0.0107421875,-0.1025390625
105,0.149,IMU1,11.951219512195124,3.1707317073170733,-259.7560975609756,-0.0078125,-0.0068359375,-0.1103515625
106,0.159,IMU0,10.30487804878049,2.682926829268293,-254.32926829268294,0.04296875,-0.0009765625,-0.1171875
107,0.159,IMU1,11.890243902439025,3.536585365853659,-256.4634146341464,0.0263671875,0.0009765625,-0.1240234375
108,0.169,IMU0,9.26829268292683,3.2926829268292686,-257.13414634146346,0.052734375,-0.0224609375,-0.111328125
109,0.169,IMU1,11.829268292682928,4.451219512195122,-257.5609756097561,0.0439453125,-0.01953125,-0.1181640625
110,0.179,IMU0,11.829268292682928,2.682926829268293,-253.0487804878049,0.080078125,-0.0078125,-0.0849609375
111,0.179,IMU1,12.987804878048781,3.048780487804878,-256.1585365853659,0.0595703125,-0.01171875,-0.0908203125
112,0.189,IMU0,9.085365853658537,2.3170731707317076,-253.2317073170732,0.064453125,-0.0185546875,-0.0712890625
113,0.189,IMU1,12.378048780487806,3.5975609756097566,-253.84146341463418,0.0400390625,-0.0087890625,-0.078125
114,0.199,IMU0,8.658536585365855,2.439024390243903,-254.81707317073173,0.060546875,-0.0302734375,-0.064453125
115,0.199,IMU1,10.487804878048781,2.8658536585365857,-256.82926829268297,0.041015625,-0.021484375,-0.0712890625
116,0.209,IMU0,10.182926829268293,3.048780487804878,-249.39024390243904,0.0625,0.013671875,-0.046875
117,0.209,IMU1,13.231707317073171,3.8414634146341466,-250.12195121951223,0.0458984375,0.015625,-0.0537109375
118,0.219,IMU0,9.146341463414634,1.1585365853658538,-251.46341463414637,0.0439453125,0.0126953125,-0.041015625
119,0.219,IMU1,11.829268292682928,2.0121951219512195,-252.07317073170734,0.029296875,0.0087890625,-0.05078125
120,0.229,IMU0,11.097560975609756,2.5609756097560976,-245.7926829268293,0.0458984375,-0.00390625,-0.0302734375
121,0.229,IMU1,12.621951219512196,3.353658536585366,-247.56097560975613,0.0263671875,-0.0029296875,-0.0380859375
122,0.239,IMU0,8.902439024390244,2.25609756097561,-245.6707317073171,0.0390625,-0.0068359375,-0.0205078125
123,0.239,IMU1,12.01219512195122,3.5975609756097566,-245.609756097561,0.0244140625,-0.0048828125,-0.02734375
124,0.249,IMU0,10.426829268292684,3.1707317073170733,-243.65853658536588,0.052734375,0.0078125,-0.0029296875
125,0.249,IMU1,12.01219512195122,3.8414634146341466,-245.85365853658539,0.041015625,0.013671875,-0.009765625
126,0.259,IMU0,11.341463414634147,2.804878048780488,-239.39024390243904,0.0556640625,0.00390625,0.0068359375
127,0.259,IMU1,13.841463414634148,3.9024390243902443,-240.7317073170732,0.044921875,0.0146484375,0.0009765625
128,0.269,IMU0,9.085365853658537,2.073170731707317,-241.03658536585368,0.046875,0.001953125,0.013671875
129,0.269,IMU1,10.853658536585368,3.353658536585366,-242.9268292682927,0.033203125,-0.0009765625,0.0068359375
130,0.279,IMU0,10.609756097560977,3.536585365853659,-236.09756097560978,0.060546875,0.0107421875,0.021484375
131,0.279,IMU1,12.621951219512196,4.2682926829268295,-238.2317073170732,0.0390625,0.01171875,0.01171875
132,0.289,IMU0,10.609756097560977,2.682926829268293,-238.41463414634148,0.048828125,-0.017578125,0.0205078125
133,0.289,IMU1,13.170731707317074,3.780487804878049,-239.20731707317074,0.021484375,-0.01171875,0.0166015625
134,0.299,IMU0,12.926829268292684,3.1707317073170733,-235.00000000000003,0.0439453125,-0.064453125,0.0166015625
135,0.299,IMU1,14.390243902439027,3.8414634146341466,-237.37804878048783,0.0244140625,-0.0546875,0.0126953125
136,0.309,IMU0,7.926829268292684,4.207317073170732,-235.18292682926833,0.0380859375,-0.052734375,0.0146484375
137,0.309,IMU1,10.975609756097562,5.548780487804878,-235.7317073170732,0.01171875,-0.0634765625,0.0068359375
138,0.319,IMU0,9.634146341463415,3.1097560975609757,-235.4878048780488,0.0576171875,-0.0390625,0.0205078125
139,0.319,IMU1,11.219512195121952,3.536585365853659,-236.89024390243904,0.0400390625,-0.0478515625,0.0126953125
140,0.329,IMU0,12.317073170731708,3.1097560975609757,-228.59756097560978,0.064453125,-0.0380859375,0.0205078125
141,0.329,IMU1,14.451219512195124,3.8414634146341466,-229.69512195121953,0.0498046875,-0.03515625,0.015625
142,0.339,IMU0,11.341463414634147,4.451219512195122,-228.96341463414637,0.0419921875,-0.02734375,0.0244140625
143,0.339,IMU1,12.317073170731708,3.414634146341464,-233.109756097561,0.01953125,-0.03125,0.0244140625
144,0.349,IMU0,9.695121951219512,2.7439024390243905,-233.2317073170732,0.0341796875,-0.0263671875,0.02734375
145,0.349,IMU1,13.231707317073171,4.817073170731708,-231.03658536585368,0.0126953125,-0.025390625,0.01953125
146,0.359,IMU0,13.109756097560977,2.378048780487805,-228.109756097561,0.00390625,-0.0166015625,0.03125
147,0.359,IMU1,13.841463414634148,3.9024390243902443,-230.4268292682927,-0.009765625,-0.01953125,0.025390625
148,0.369,IMU0,10.670731707317074,3.414634146341464,-230.5487804878049,-0.0126953125,-0.017578125,0.0224609375
149,0.369,IMU1,13.231707317073171,2.9268292682926833,-234.87804878048783,-0.0224609375,-0.0234375,0.0146484375
150,0.379,IMU0,11.158536585365855,3.1097560975609757,-232.74390243902442,-0.0107421875,-0.0224609375,0.0078125
151,0.379,IMU1,14.329268292682928,4.390243902439025,-231.64634146341464,-0.015625,-0.0244140625,0.0
152,0.389,IMU0,12.134146341463415,3.1707317073170733,-233.1707317073171,-0.021484375,-0.017578125,-0.005859375
153,0.389,IMU1,13.597560975609758,4.146341463414634,-233.41463414634148,-0.0302734375,-0.021484375,-0.0126953125
154,0.399,IMU0,10.30487804878049,2.439024390243903,-234.26829268292684,-0.0205078125,0.0205078125,-0.029296875
155,0.399,IMU1,12.682926829268293,3.1707317073170733,-237.74390243902442,-0.041015625,0.0244140625,-0.0361328125
156,0.409,IMU0,11.219512195121952,1.2195121951219514,-236.03658536585368,-0.0380859375,0.02734375,-0.0234375
157,0.409,IMU1,13.231707317073171,2.1341463414634148,-237.31707317073173,-0.0556640625,0.0283203125,-0.0302734375
158,0.419,IMU0,13.78048780487805,3.4756097560975614,-231.64634146341464,-0.033203125,0.0107421875,-0.0244140625
159,0.419,IMU1,15.000000000000002,4.329268292682928,-234.14634146341464,-0.056640625,0.00390625,-0.03125
160,0.429,IMU0,11.341463414634147,4.51219512195122,-231.82926829268294,-0.015625,0.0234375,-0.017578125
161,0.429,IMU1,13.902439024390246,5.3048780487804885,-233.2317073170732,-0.0341796875,0.017578125,-0.0244140625
162,0.439,IMU0,10.121951219512196,3.353658536585366,-233.0487804878049,0.0048828125,0.0205078125,-0.013671875
163,0.439,IMU1,12.621951219512196,4.329268292682928,-233.78048780487808,-0.0166015625,0.0205078125,-0.0205078125
164,0.449,IMU0,9.939024390243903,2.0121951219512195,-230.85365853658539,0.0302734375,0.0283203125,-0.005859375
165,0.449,IMU1,11.890243902439025,2.804878048780488,-232.43902439024393,0.0068359375,0.0263671875,-0.0126953125
166,0.459,IMU0,12.926829268292684,3.1097560975609757,-227.37804878048783,0.03125,0.029296875,0.0
167,0.459,IMU1,14.756097560975611,3.8414634146341466,-229.51219512195124,0.005859375,0.0283203125,-0.0068359375
168,0.469,IMU0,12.195121951219512,3.963414634146342,-226.03658536585368,0.03125,0.0078125,-0.00390625
169,0.469,IMU1,14.573170731707318,4.878048780487806,-227.19512195121953,0.01171875,0.0068359375,-0.0107421875
170,0.479,IMU0,11.158536585365855,3.1707317073170733,-224.93902439024393,0.0205078125,-0.0078125,-0.0009765625
171,0.479,IMU1,13.78048780487805,4.146341463414634,-225.7317073170732,0.0048828125,-0.0087890625,-0.0078125
172,0.489,IMU0,10.731707317073171,2.378048780487805,-224.02439024390245,0.03515625,-0.0234375,-0.00390625
173,0.489,IMU1,12.560975609756099,3.231707317073171,-225.97560975609758,0.0166015625,-0.0263671875,-0.0107421875
174,0.499,IMU0,8.963414634146343,2.0121951219512195,-222.68292682926833,0.0302734375,0.00390625,-0.005859375
175,0.499,IMU1,10.792682926829269,2.804878048780488,-224.45121951219514,0.0107421875,0.00390625,-0.013671875
176,0.509,IMU0,10.426829268292684,3.658536585365854,-218.96341463414635,0.0029296875,0.048828125,-0.0048828125
177,0.509,IMU1,12.682926829268293,4.51219512195122,-220.12195121951223,-0.0078125,0.044921875,-0.0126953125
178,0.519,IMU0,9.817073170731708,4.207317073170732,-217.37804878048783,0.0087890625,0.05859375,-0.0048828125
179,0.519,IMU1,12.195121951219512,5.060975609756098,-218.53658536585368,-0.0078125,0.0546875,-0.0126953125
180,0.529,IMU0,10.182926829268293,4.2682926829268295,-218.71951219512198,0.033203125,0.029296875,0.005859375
181,0.529,IMU1,12.134146341463415,4.939024390243903,-220.4268292682927,0.01953125,0.0263671875,-0.001953125
182,0.539,IMU0,9.207317073170733,5.426829268292684,-214.81707317073173,0.0966796875,0.0126953125,0.0009765625
183,0.539,IMU1,11.036585365853659,6.158536585365854,-216.95121951219514,0.0771484375,0.005859375,-0.005859375
184,0.549,IMU0,10.853658536585368,5.2439024390243905,-211.09756097560978,0.1591796875,0.017578125,0.0068359375
185,0.549,IMU1,12.987804878048781,5.853658536585367,-212.62195121951223,0.140625,0.0107421875,0.0
186,0.559,IMU0,9.26829268292683,5.060975609756098,-210.00000000000003,0.1962890625,-0.0048828125,0.0029296875
187,0.559,IMU1,11.52439024390244,5.975609756097562,-211.70731707317074,0.17578125,-0.0048828125,-0.0029296875
188,0.569,IMU0,8.231707317073171,3.414634146341464,-211.70731707317074,0.2041015625,0.0224609375,0.0078125
189,0.569,IMU1,10.365853658536587,4.329268292682928,-212.9878048780488,0.189453125,0.0205078125,0.0029296875
190,0.579,IMU0,9.329268292682928,3.048780487804878,-207.07317073170734,0.1796875,0.0234375,0.009765625
191,0.579,IMU1,11.158536585365855,3.780487804878049,-208.65853658536588,0.162109375,0.01953125,0.0048828125
192,0.589,IMU0,10.914634146341465,4.51219512195122,-202.8658536585366,0.1865234375,0.0234375,0.0185546875
193,0.589,IMU1,12.74390243902439,5.2439024390243905,-204.69512195121953,0.166015625,0.0224609375,0.0146484375
194,0.599,IMU0,10.24390243902439,4.390243902439025,-201.28048780487808,0.19140625,0.0283203125,0.0166015625
195,0.599,IMU1,12.439024390243903,5.121951219512195,-202.8048780487805,0.1748046875,0.0283203125,0.01171875
196,0.609,IMU0,7.865853658536586,4.634146341463415,-200.5487804878049,0.216796875,0.02734375,0.0224609375
197,0.609,IMU1,9.878048780487806,5.3048780487804885,-202.37804878048783,0.1923828125,0.029296875,0.0166015625
198,0.619,IMU0,10.0,4.085365853658537,-197.9268292682927,0.2587890625,0.0498046875,0.029296875
199,0.619,IMU1,11.707317073170733,4.878048780487806,-199.75609756097563,0.234375,0.0498046875,0.0234375
200,0.629,IMU0,9.756097560975611,4.695121951219512,-196.09756097560978,0.28125,0.041015625,0.0224609375
201,0.629,IMU1,11.646341463414634,5.426829268292684,-198.0487804878049,0.26171875,0.044921875,0.017578125
202,0.639,IMU0,11.890243902439025,3.8414634146341466,-190.97560975609758,0.294921875,0.0322265625,0.03125
203,0.639,IMU1,13.78048780487805,4.634146341463415,-192.43902439024393,0.275390625,0.0341796875,0.0263671875
204,0.649,IMU0,8.841463414634147,4.2682926829268295,-189.93902439024393,0.283203125,0.03125,0.0361328125
205,0.649,IMU1,10.914634146341465,5.0,-191.82926829268294,0.263671875,0.025390625,0.0302734375
206,0.659,IMU0,7.865853658536586,4.085365853658537,-192.9878048780488,0.3154296875,0.0458984375,0.05078125
207,0.659,IMU1,9.695121951219512,4.817073170731708,-195.06097560975613,0.3037109375,0.044921875,0.0439453125
208,0.669,IMU0,7.987804878048781,3.353658536585366,-188.2317073170732,0.349609375,0.080078125,0.0556640625
209,0.669,IMU1,9.878048780487806,4.024390243902439,-189.87804878048783,0.3369140625,0.07421875,0.0478515625
210,0.679,IMU0,12.317073170731708,4.146341463414634,-181.52439024390245,0.3681640625,0.05078125,0.0576171875
211,0.679,IMU1,13.841463414634148,4.878048780487806,-182.9878048780488,0.3544921875,0.0439453125,0.05078125
212,0.689,IMU0,9.02439024390244,4.51219512195122,-180.7317073170732,0.3955078125,0.009765625,0.0458984375
213,0.689,IMU1,10.914634146341465,5.182926829268293,-182.6829268292683,0.37890625,0.0068359375,0.0419921875
214,0.699,IMU0,8.231707317073171,4.329268292682928,-181.58536585365854,0.44140625,-0.001953125,0.037109375
215,0.699,IMU1,9.939024390243903,5.060975609756098,-183.59756097560978,0.4208984375,-0.0068359375,0.033203125
216,0.709,IMU0,7.439024390243903,4.390243902439025,-179.08536585365854,0.51171875,-0.013671875,0.03125
217,0.709,IMU1,9.390243902439025,5.060975609756098,-180.97560975609758,0.4912109375,-0.013671875,0.02734375
218,0.719,IMU0,8.902439024390244,3.8414634146341466,-176.40243902439025,0.5556640625,0.0087890625,0.0283203125
219,0.719,IMU1,10.792682926829269,4.573170731707317,-178.0487804878049,0.54296875,0.005859375,0.0244140625
220,0.729,IMU0,7.621951219512196,4.085365853658537,-172.25609756097563,0.5751953125,0.0224609375,0.0205078125
221,0.729,IMU1,9.573170731707318,4.75609756097561,-174.26829268292684,0.5625,0.0185546875,0.015625
222,0.739,IMU0,7.439024390243903,3.414634146341464,-171.21951219512198,0.5703125,0.0048828125,0.0185546875
223,0.739,IMU1,9.085365853658537,4.146341463414634,-172.6829268292683,0.5546875,-0.0009765625,0.015625
224,0.749,IMU0,4.75609756097561,3.963414634146342,-173.53658536585368,0.5517578125,0.0283203125,0.0205078125
225,0.749,IMU1,7.073170731707318,4.75609756097561,-175.1829268292683,0.5380859375,0.025390625,0.015625
226,0.759,IMU0,7.073170731707318,3.963414634146342,-169.14634146341464,0.552734375,0.0341796875,0.0322265625
227,0.759,IMU1,8.719512195121952,4.817073170731708,-170.609756097561,0.5400390625,0.0341796875,0.02734375
228,0.769,IMU0,6.707317073170732,5.914634146341464,-165.4878048780488,0.5615234375,0.0380859375,0.0205078125
229,0.769,IMU1,8.597560975609756,6.52439024390244,-167.37804878048783,0.5439453125,0.0341796875,0.0166015625
230,0.779,IMU0,4.878048780487806,6.52439024390244,-167.8048780487805,0.6015625,0.0498046875,0.0166015625
231,0.779,IMU1,6.463414634146342,7.25609756097561,-170.1829268292683,0.591796875,0.044921875,0.01171875
232,0.789,IMU0,3.7195121951219514,4.634146341463415,-166.89024390243904,0.630859375,0.0595703125,0.009765625
233,0.789,IMU1,5.853658536585367,5.365853658536586,-169.26829268292684,0.6123046875,0.0546875,0.005859375
234,0.799,IMU0,7.25609756097561,4.451219512195122,-165.2439024390244,0.6435546875,0.06640625,0.021484375
235,0.799,IMU1,9.329268292682928,5.3048780487804885,-166.64634146341464,0.625,0.06640625,0.0166015625
236,0.809,IMU0,5.487804878048781,4.817073170731708,-163.35365853658539,0.64453125,0.0634765625,0.0283203125
237,0.809,IMU1,7.560975609756098,5.670731707317073,-165.2439024390244,0.6318359375,0.0654296875,0.021484375
238,0.819,IMU0,7.865853658536586,5.121951219512195,-159.02439024390245,0.6435546875,0.0576171875,0.0302734375
239,0.819,IMU1,9.329268292682928,5.670731707317073,-161.34146341463415,0.630859375,0.05078125,0.0263671875
240,0.829,IMU0,4.878048780487806,6.52439024390244,-160.85365853658539,0.666015625,0.03125,0.0244140625
241,0.829,IMU1,6.646341463414635,7.01219512195122,-163.0487804878049,0.64453125,0.025390625,0.0205078125
242,0.839,IMU0,4.451219512195122,5.548780487804878,-160.0,0.671875,0.0400390625,0.0234375
243,0.839,IMU1,6.7682926829268295,6.2804878048780495,-161.46341463414635,0.6552734375,0.0341796875,0.0205078125
244,0.849,IMU0,7.560975609756098,5.060975609756098,-155.1219512195122,0.6416015625,0.0341796875,0.0263671875
245,0.849,IMU1,9.02439024390244,5.975609756097562,-156.40243902439025,0.626953125,0.0302734375,0.0224609375
246,0.859,IMU0,6.463414634146342,6.402439024390245,-154.20731707317074,0.591796875,0.01171875,0.0166015625
247,0.859,IMU1,8.719512195121952,7.073170731707318,-156.03658536585368,0.5703125,0.015625,0.0126953125
248,0.869,IMU0,6.2804878048780495,4.451219512195122,-153.41463414634148,0.5380859375,-0.0234375,0.0185546875
249,0.869,IMU1,7.500000000000001,4.939024390243903,-156.03658536585368,0.5166015625,-0.021484375,0.0166015625
250,0.879,IMU0,3.963414634146342,5.487804878048781,-154.57317073170734,0.453125,-0.0498046875,0.009765625
251,0.879,IMU1,5.914634146341464,6.036585365853659,-156.09756097560978,0.4287109375,-0.046875,0.0087890625
252,0.889,IMU0,6.951219512195123,5.670731707317073,-152.6219512195122,0.3935546875,-0.052734375,0.017578125
253,0.889,IMU1,9.146341463414634,6.7682926829268295,-153.84146341463415,0.3759765625,-0.052734375,0.0126953125
254,0.899,IMU0,7.073170731707318,6.463414634146342,-147.8048780487805,0.31640625,-0.0810546875,0.0205078125
255,0.899,IMU1,8.109756097560977,7.195121951219513,-149.69512195121953,0.296875,-0.0810546875,0.015625
256,0.909,IMU0,5.487804878048781,6.585365853658537,-149.87804878048783,0.2802734375,-0.134765625,0.015625
257,0.909,IMU1,7.25609756097561,7.134146341463415,-152.07317073170734,0.259765625,-0.1328125,0.01171875
258,0.919,IMU0,4.878048780487806,6.097560975609756,-148.109756097561,0.2412109375,-0.1396484375,0.013671875
259,0.919,IMU1,6.036585365853659,6.52439024390244,-150.85365853658539,0.2177734375,-0.1435546875,0.009765625
260,0.929,IMU0,1.707317073170732,7.317073170731708,-150.4878048780488,0.212890625,-0.1201171875,0.0068359375
261,0.929,IMU1,4.085365853658537,7.743902439024391,-151.64634146341464,0.1904296875,-0.1171875,0.00390625
262,0.939,IMU0,4.390243902439025,5.731707317073171,-147.7439024390244,0.1708984375,-0.048828125,0.01171875
263,0.939,IMU1,6.585365853658537,6.707317073170732,-148.65853658536588,0.1552734375,-0.046875,0.0068359375
264,0.949,IMU0,5.975609756097562,6.341463414634147,-143.53658536585368,0.087890625,0.0263671875,0.0146484375
265,0.949,IMU1,7.01219512195122,7.01219512195122,-145.0,0.0703125,0.0244140625,0.0087890625
266,0.959,IMU0,6.463414634146342,6.646341463414635,-143.65853658536588,0.0419921875,0.01171875,0.005859375
267,0.959,IMU1,8.170731707317074,7.134146341463415,-146.21951219512195,0.029296875,0.0166015625,-0.0009765625
268,0.969,IMU0,7.25609756097561,7.621951219512196,-141.28048780487805,0.0146484375,-0.0107421875,0.0068359375
269,0.969,IMU1,8.170731707317074,7.865853658536586,-144.32926829268294,-0.0048828125,-0.017578125,0.0009765625
270,0.979,IMU0,3.048780487804878,7.743902439024391,-143.90243902439025,0.0244140625,-0.01953125,0.001953125
271,0.979,IMU1,5.2439024390243905,8.109756097560977,-145.97560975609758,0.013671875,-0.029296875,-0.00390625
272,0.989,IMU0,5.548780487804878,7.317073170731708,-140.3658536585366,0.0263671875,0.0009765625,0.001953125
273,0.989,IMU1,7.560975609756098,7.865853658536586,-141.82926829268294,0.0146484375,-0.009765625,-0.0048828125
274,0.999,IMU0,6.097560975609756,7.500000000000001,-138.2317073170732,0.0185546875,0.017578125,0.00390625
275,0.999,IMU1,7.865853658536586,8.292682926829269,-139.08536585365854,0.0068359375,0.013671875,-0.001953125
276,1.009,IMU0,5.2439024390243905,7.378048780487806,-137.37804878048783,0.017578125,0.037109375,0.0
277,1.009,IMU1,6.829268292682928,7.987804878048781,-139.75609756097563,0.0009765625,0.0302734375,-0.0068359375
278,1.019,IMU0,6.829268292682928,8.048780487804878,-136.28048780487805,0.0244140625,0.037109375,0.0
279,1.019,IMU1,7.987804878048781,8.292682926829269,-138.71951219512195,0.0087890625,0.0361328125,-0.005859375
280,1.029,IMU0,4.085365853658537,7.743902439024391,-138.59756097560978,0.0126953125,0.0078125,0.0009765625
281,1.029,IMU1,5.060975609756098,8.109756097560977,-141.95121951219514,-0.0029296875,0.01171875,-0.0048828125
282,1.039,IMU0,2.7439024390243905,6.463414634146342,-138.65853658536585,-0.005859375,0.0068359375,0.0048828125
283,1.039,IMU1,4.817073170731708,7.134146341463415,-140.4878048780488,-0.0224609375,0.009765625,0.0009765625
284,1.049,IMU0,3.414634146341464,5.426829268292684,-138.47560975609758,-0.0595703125,0.0107421875,0.0078125
285,1.049,IMU1,5.731707317073171,6.585365853658537,-139.32926829268294,-0.0771484375,0.0048828125,0.001953125
286,1.059,IMU0,5.2439024390243905,6.2804878048780495,-133.65853658536585,-0.1162109375,0.01171875,0.0087890625
287,1.059,IMU1,7.01219512195122,7.134146341463415,-135.1829268292683,-0.13671875,0.009765625,0.001953125
288,1.069,IMU0,4.146341463414634,6.402439024390245,-132.9878048780488,-0.1728515625,-0.0126953125,0.0087890625
289,1.069,IMU1,6.097560975609756,6.951219512195123,-134.81707317073173,-0.2001953125,-0.0146484375,0.00390625
290,1.079,IMU0,5.670731707317073,7.621951219512196,-129.45121951219514,-0.2265625,-0.0078125,0.0078125
291,1.079,IMU1,6.2804878048780495,8.048780487804878,-132.5609756097561,-0.251953125,-0.0146484375,0.0009765625
292,1.089,IMU0,2.6219512195121952,7.560975609756098,-131.58536585365854,-0.240234375,-0.025390625,0.009765625
293,1.089,IMU1,3.9024390243902443,7.865853658536586,-134.20731707317074,-0.2646484375,-0.025390625,0.0029296875
294,1.099,IMU0,3.231707317073171,7.500000000000001,-130.4268292682927,-0.23828125,-0.0234375,0.009765625
295,1.099,IMU1,5.3048780487804885,7.926829268292684,-133.0487804878049,-0.2548828125,-0.021484375,0.0029296875
296,1.109,IMU0,2.9268292682926833,6.2804878048780495,-130.3658536585366,-0.224609375,0.00390625,0.0068359375
297,1.109,IMU1,5.121951219512195,7.317073170731708,-131.15853658536585,-0.248046875,0.001953125,0.0009765625
298,1.119,IMU0,3.231707317073171,5.975609756097562,-128.41463414634148,-0.2158203125,0.009765625,0.00390625
299,1.119,IMU1,5.0,6.463414634146342,-130.4878048780488,-0.2431640625,0.01171875,-0.0029296875
300,1.129,IMU0,3.780487804878049,5.670731707317073,-128.90243902439025,-0.2197265625,0.029296875,-0.0029296875
301,1.129,IMU1,6.52439024390244,6.463414634146342,-129.32926829268294,-0.2373046875,0.03515625,-0.0107421875
302,1.139,IMU0,6.341463414634147,6.646341463414635,-126.15853658536587,-0.232421875,0.0400390625,-0.0078125
303,1.139,IMU1,6.52439024390244,7.317073170731708,-128.53658536585368,-0.2421875,0.03515625,-0.017578125
304,1.149,IMU0,5.0,6.52439024390244,-126.34146341463416,-0.1943359375,0.02734375,-0.0107421875
305,1.149,IMU1,7.439024390243903,6.341463414634147,-129.32926829268294,-0.2138671875,0.0244140625,-0.017578125
306,1.159,IMU0,4.024390243902439,5.609756097560976,-125.60975609756099,-0.1552734375,0.009765625,-0.009765625
307,1.159,IMU1,6.341463414634147,6.463414634146342,-127.07317073170732,-0.169921875,0.01953125,-0.017578125
308,1.169,IMU0,3.963414634146342,5.060975609756098,-126.34146341463416,-0.109375,0.0107421875,-0.0087890625
309,1.169,IMU1,6.402439024390245,5.914634146341464,-127.50000000000001,-0.1298828125,0.0205078125,-0.0166015625
310,1.179,IMU0,2.6219512195121952,5.426829268292684,-125.12195121951221,-0.0810546875,0.0263671875,-0.00390625
311,1.179,IMU1,6.158536585365854,6.341463414634147,-125.42682926829269,-0.0947265625,0.0380859375,-0.009765625
312,1.189,IMU0,1.9512195121951221,4.085365853658537,-125.60975609756099,-0.05078125,0.03515625,0.0
313,1.189,IMU1,4.451219512195122,4.451219512195122,-125.85365853658537,-0.0673828125,0.04296875,-0.005859375
314,1.199,IMU0,6.219512195121951,3.2926829268292686,-123.10975609756099,-0.0556640625,0.009765625,0.0068359375
315,1.199,IMU1,7.621951219512196,4.085365853658537,-124.08536585365854,-0.0732421875,0.0107421875,-0.001953125
316,1.209,IMU0,3.658536585365854,2.804878048780488,-122.7439024390244,-0.0546875,-0.03125,0.009765625
317,1.209,IMU1,4.75609756097561,3.1707317073170733,-125.06097560975611,-0.076171875,-0.029296875,0.0029296875
318,1.219,IMU0,4.085365853658537,3.231707317073171,-120.48780487804879,-0.0546875,-0.033203125,0.01171875
319,1.219,IMU1,4.75609756097561,4.146341463414634,-123.53658536585367,-0.072265625,-0.03125,0.0048828125
320,1.229,IMU0,3.1097560975609757,3.2926829268292686,-121.46341463414635,-0.0654296875,-0.0087890625,0.0166015625
321,1.229,IMU1,3.1097560975609757,2.8658536585365857,-124.69512195121952,-0.080078125,-0.00390625,0.0078125
322,1.239,IMU0,5.121951219512195,2.5609756097560976,-117.8658536585366,-0.078125,0.0166015625,0.021484375
323,1.239,IMU1,4.939024390243903,2.378048780487805,-121.70731707317074,-0.09375,0.0185546875,0.0107421875
324,1.249,IMU0,4.329268292682928,2.439024390243903,-117.43902439024392,-0.11328125,0.03515625,0.0068359375
325,1.249,IMU1,6.2804878048780495,2.7439024390243905,-119.93902439024392,-0.130859375,0.0390625,0.0009765625
326,1.259,IMU0,5.609756097560976,2.7439024390243905,-115.06097560975611,-0.1328125,0.01171875,0.0048828125
327,1.259,IMU1,6.585365853658537,3.2926829268292686,-118.10975609756099,-0.142578125,0.0126953125,-0.00390625
328,1.269,IMU0,5.487804878048781,2.8658536585365857,-116.40243902439025,-0.140625,-0.017578125,0.0009765625
329,1.269,IMU1,8.109756097560977,3.7195121951219514,-116.34146341463416,-0.1572265625,-0.0224609375,-0.0068359375
330,1.279,IMU0,4.085365853658537,3.353658536585366,-114.75609756097562,-0.130859375,-0.046875,-0.009765625
331,1.279,IMU1,6.951219512195123,4.085365853658537,-116.21951219512196,-0.1533203125,-0.037109375,-0.0146484375
332,1.289,IMU0,0.9756097560975611,2.073170731707317,-116.70731707317074,-0.125,-0.0498046875,-0.0068359375
333,1.289,IMU1,4.2682926829268295,3.2926829268292686,-115.91463414634147,-0.1455078125,-0.033203125,-0.01171875
334,1.299,IMU0,2.25609756097561,1.9512195121951221,-114.81707317073172,-0.1171875,0.005859375,-0.0087890625
335,1.299,IMU1,4.634146341463415,2.804878048780488,-116.40243902439025,-0.1298828125,0.0087890625,-0.015625
336,1.309,IMU0,2.682926829268293,1.4634146341463417,-114.93902439024392,-0.1162109375,0.0068359375,-0.00390625
337,1.309,IMU1,5.914634146341464,2.3170731707317076,-114.69512195121952,-0.13671875,0.0166015625,-0.009765625
338,1.319,IMU0,3.536585365853659,1.2195121951219514,-112.8658536585366,-0.1279296875,-0.0029296875,-0.0029296875
339,1.319,IMU1,4.634146341463415,1.707317073170732,-115.79268292682927,-0.1396484375,-0.005859375,-0.0107421875
340,1.329,IMU0,2.987804878048781,0.7317073170731708,-112.98780487804879,-0.1474609375,-0.0146484375,-0.0087890625
341,1.329,IMU1,4.024390243902439,1.3414634146341464,-114.02439024390245,-0.16796875,-0.013671875,-0.0166015625
342,1.339,IMU0,4.2682926829268295,0.7317073170731708,-111.52439024390245,-0.150390625,-0.005859375,-0.00390625
343,1.339,IMU1,4.207317073170732,0.9756097560975611,-115.48780487804879,-0.181640625,-0.0078125,-0.0126953125
344,1.349,IMU0,5.121951219512195,2.1951219512195124,-109.63414634146342,-0.1357421875,-0.005859375,-0.0078125
345,1.349,IMU1,6.402439024390245,2.987804878048781,-112.50000000000001,-0.1552734375,-0.0048828125,-0.015625
346,1.359,IMU0,4.2682926829268295,2.6219512195121952,-109.26829268292684,-0.0849609375,-0.0146484375,-0.01171875
347,1.359,IMU1,4.634146341463415,2.682926829268293,-112.98780487804879,-0.11328125,-0.0146484375,-0.0166015625
348,1.369,IMU0,5.060975609756098,2.0121951219512195,-107.7439024390244,-0.0634765625,0.0126953125,-0.00390625
349,1.369,IMU1,5.3048780487804885,2.073170731707317,-110.3048780487805,-0.0859375,0.0107421875,-0.0107421875
350,1.379,IMU0,5.0,2.1951219512195124,-107.50000000000001,-0.0458984375,0.0224609375,0.0078125
351,1.379,IMU1,6.402439024390245,1.8902439024390245,-110.54878048780489,-0.0615234375,0.013671875,0.0
352,1.389,IMU0,4.878048780487806,1.1585365853658538,-105.54878048780489,-0.017578125,0.0029296875,0.0126953125
353,1.389,IMU1,7.073170731707318,1.5853658536585367,-108.84146341463416,-0.033203125,0.001953125,0.0068359375
354,1.399,IMU0,3.8414634146341466,0.48780487804878053,-106.82926829268294,-0.01171875,-0.0224609375,0.0087890625
355,1.399,IMU1,5.7926829268292686,0.9756097560975611,-108.23170731707317,-0.033203125,-0.009765625,0.00390625
356,1.409,IMU0,4.2682926829268295,0.7926829268292683,-104.93902439024392,-0.001953125,-0.013671875,0.005859375
357,1.409,IMU1,5.487804878048781,1.2195121951219514,-107.6219512195122,-0.021484375,-0.00390625,0.0009765625
358,1.419,IMU0,2.804878048780488,1.0365853658536586,-106.09756097560977,-0.005859375,-0.0087890625,0.0107421875
359,1.419,IMU1,5.914634146341464,1.524390243902439,-105.73170731707317,-0.017578125,0.0,0.005859375
360,1.429,IMU0,1.4634146341463417,0.30487804878048785,-104.69512195121952,-0.0029296875,0.0107421875,0.01171875
361,1.429,IMU1,4.024390243902439,1.0975609756097562,-106.28048780487806,-0.017578125,0.01171875,0.0048828125
362,1.439,IMU0,2.804878048780488,0.06097560975609757,-104.57317073170732,-0.0078125,0.0166015625,0.0126953125
363,1.439,IMU1,5.2439024390243905,0.853658536585366,-104.57317073170732,-0.029296875,0.0185546875,0.005859375
364,1.449,IMU0,2.6219512195121952,-0.48780487804878053,-105.67073170731709,-0.01171875,0.0283203125,0.0029296875
365,1.449,IMU1,4.573170731707317,-0.06097560975609757,-106.52439024390245,-0.02734375,0.0302734375,-0.0068359375
366,1.459,IMU0,3.1707317073170733,-0.06097560975609757,-103.65853658536587,-0.0126953125,0.0048828125,0.0
367,1.459,IMU1,5.853658536585367,0.9146341463414634,-104.14634146341464,-0.025390625,-0.001953125,-0.0087890625
368,1.469,IMU0,0.48780487804878053,-0.06097560975609757,-104.93902439024392,-0.001953125,-0.0107421875,-0.01171875
369,1.469,IMU1,2.682926829268293,1.0365853658536586,-106.21951219512196,-0.01953125,-0.0126953125,-0.0205078125
370,1.479,IMU0,2.0121951219512195,-0.24390243902439027,-102.31707317073172,0.0107421875,-0.015625,-0.0166015625
371,1.479,IMU1,2.7439024390243905,0.12195121951219513,-104.32926829268294,-0.0107421875,-0.0185546875,-0.0234375
372,1.489,IMU0,0.9756097560975611,-0.426829268292683,-103.04878048780489,0.013671875,0.0166015625,-0.013671875
373,1.489,IMU1,2.5609756097560976,0.1829268292682927,-103.78048780487806,-0.0068359375,0.017578125,-0.0205078125
374,1.499,IMU0,2.3170731707317076,-0.5487804878048781,-100.73170731707317,0.0126953125,0.025390625,-0.005859375
375,1.499,IMU1,3.353658536585366,0.0,-103.78048780487806,0.0009765625,0.025390625,-0.0126953125
376,1.509,IMU0,1.6463414634146343,-1.2804878048780488,-100.1219512195122,0.0107421875,0.01171875,-0.0068359375
377,1.509,IMU1,3.536585365853659,-0.3658536585365854,-101.82926829268294,-0.00390625,0.0166015625,-0.0107421875
378,1.519,IMU0,3.231707317073171,-2.0121951219512195,-99.45121951219512,-0.0244140625,-0.01171875,-0.001953125
379,1.519,IMU1,3.2926829268292686,-1.7682926829268295,-103.29268292682927,-0.0498046875,-0.0107421875,-0.009765625
380,1.529,IMU0,4.695121951219512,-1.7682926829268295,-97.92682926829269,-0.08203125,-0.0146484375,0.005859375
381,1.529,IMU1,5.121951219512195,-1.6463414634146343,-99.87804878048782,-0.1015625,-0.017578125,-0.0009765625
382,1.539,IMU0,3.1097560975609757,-2.1341463414634148,-99.45121951219512,-0.1328125,-0.0302734375,0.0068359375
383,1.539,IMU1,4.207317073170732,-2.378048780487805,-101.70731707317074,-0.1611328125,-0.0322265625,0.0
384,1.549,IMU0,3.1707317073170733,-1.9512195121951221,-96.03658536585367,-0.181640625,-0.021484375,0.0087890625
385,1.549,IMU1,3.780487804878049,-1.524390243902439,-99.39024390243904,-0.2001953125,-0.0283203125,0.0
386,1.559,IMU0,2.987804878048781,-1.6463414634146343,-97.43902439024392,-0.1943359375,-0.0205078125,0.0048828125
387,1.559,IMU1,3.7195121951219514,-1.402439024390244,-99.20731707317074,-0.2197265625,-0.01953125,-0.001953125
388,1.569,IMU0,5.914634146341464,-0.9146341463414634,-94.39024390243904,-0.1962890625,-0.013671875,0.001953125
389,1.569,IMU1,6.2804878048780495,-0.7317073170731708,-98.04878048780489,-0.2197265625,-0.01171875,-0.0048828125
390,1.579,IMU0,4.207317073170732,-1.2804878048780488,-95.3048780487805,-0.1962890625,-0.033203125,0.001953125
391,1.579,IMU1,6.7682926829268295,-0.853658536585366,-97.07317073170732,-0.2265625,-0.0234375,-0.0048828125
392,1.589,IMU0,3.963414634146342,-1.2195121951219514,-94.14634146341464,-0.2041015625,-0.046875,0.0009765625
393,1.589,IMU1,5.7926829268292686,-0.853658536585366,-97.5609756097561,-0.2294921875,-0.037109375,-0.0048828125
394,1.599,IMU0,3.231707317073171,-0.6707317073170732,-92.6829268292683,-0.1796875,-0.025390625,-0.005859375
395,1.599,IMU1,4.939024390243903,-0.06097560975609757,-95.2439024390244,-0.1943359375,-0.0224609375,-0.0107421875
396,1.609,IMU0,3.658536585365854,-0.5487804878048781,-94.32926829268294,-0.138671875,0.0,-0.01171875
397,1.609,IMU1,5.487804878048781,-0.06097560975609757,-95.97560975609757,-0.1533203125,-0.0009765625,-0.0185546875
398,1.619,IMU0,3.7195121951219514,-0.24390243902439027,-92.13414634146342,-0.0849609375,0.01171875,-0.0107421875
399,1.619,IMU1,6.463414634146342,-0.12195121951219513,-94.08536585365854,-0.0986328125,0.0166015625,-0.0166015625
400,1.629,IMU0,1.402439024390244,-2.6219512195121952,-94.20731707317074,-0.0703125,-0.0029296875,-0.0087890625
401,1.629,IMU1,4.207317073170732,-2.3170731707317076,-94.69512195121952,-0.0859375,0.0029296875,-0.015625
402,1.639,IMU0,3.048780487804878,-3.1097560975609757,-92.6829268292683,-0.068359375,0.0029296875,-0.005859375
403,1.639,IMU1,4.573170731707317,-2.5,-93.84146341463415,-0.0888671875,0.005859375,-0.0126953125
404,1.649,IMU0,2.5609756097560976,-2.5,-91.89024390243904,-0.052734375,-0.0146484375,0.0009765625
405,1.649,IMU1,4.451219512195122,-1.4634146341463417,-92.43902439024392,-0.07421875,-0.0078125,-0.0078125
406,1.659,IMU0,1.524390243902439,-1.9512195121951221,-92.8048780487805,-0.0244140625,-0.01171875,0.0048828125
407,1.659,IMU1,3.9024390243902443,-1.4634146341463417,-94.32926829268294,-0.0322265625,-0.001953125,-0.0029296875
408,1.669,IMU0,1.0365853658536586,-2.6219512195121952,-90.97560975609757,-0.0146484375,0.0244140625,0.00390625
409,1.669,IMU1,3.963414634146342,-1.829268292682927,-92.5609756097561,-0.0244140625,0.0224609375,-0.001953125
410,1.679,IMU0,1.524390243902439,-3.414634146341464,-91.76829268292684,-0.0029296875,0.015625,0.0068359375
411,1.679,IMU1,3.4756097560975614,-2.7439024390243905,-93.10975609756099,-0.015625,0.021484375,-0.0009765625
412,1.689,IMU0,3.048780487804878,-3.2926829268292686,-90.48780487804879,-0.0068359375,0.0,0.0029296875
413,1.689,IMU1,4.573170731707317,-2.5609756097560976,-93.04878048780489,-0.0166015625,0.005859375,-0.00390625
414,1.699,IMU0,2.682926829268293,-3.8414634146341466,-90.0609756097561,0.001953125,-0.009765625,0.0068359375
415,1.699,IMU1,5.060975609756098,-3.048780487804878,-90.54878048780489,-0.0078125,-0.013671875,0.0
416,1.709,IMU0,1.5853658536585367,-3.1097560975609757,-90.3658536585366,-0.01171875,-0.0087890625,0.013671875
417,1.709,IMU1,3.414634146341464,-2.6219512195121952,-92.19512195121952,-0.0205078125,-0.0166015625,0.0068359375
418,1.719,IMU0,1.0975609756097562,-3.8414634146341466,-88.29268292682927,-0.0166015625,-0.009765625,0.021484375
419,1.719,IMU1,2.5,-2.9268292682926833,-89.69512195121952,-0.0283203125,-0.017578125,0.013671875
420,1.729,IMU0,2.682926829268293,-3.414634146341464,-88.04878048780489,0.0009765625,-0.017578125,0.0166015625
421,1.729,IMU1,3.353658536585366,-3.048780487804878,-90.42682926829269,-0.0283203125,-0.0224609375,0.009765625
422,1.739,IMU0,1.7682926829268295,-2.987804878048781,-85.42682926829269,0.0068359375,-0.0185546875,0.0107421875
423,1.739,IMU1,3.780487804878049,-2.804878048780488,-87.19512195121952,-0.013671875,-0.015625,0.0078125
424,1.749,IMU0,3.231707317073171,-4.024390243902439,-82.50000000000001,0.005859375,0.0107421875,0.0166015625
425,1.749,IMU1,3.1707317073170733,-3.353658536585366,-87.07317073170732,-0.00390625,0.001953125,0.0078125
426,1.759,IMU0,0.48780487804878053,-3.780487804878049,-84.02439024390245,0.005859375,0.0361328125,0.017578125
427,1.759,IMU1,1.707317073170732,-3.414634146341464,-85.48780487804879,-0.009765625,0.0361328125,0.0087890625
428,1.769,IMU0,1.524390243902439,-3.536585365853659,-79.57317073170732,0.009765625,0.0654296875,0.013671875
429,1.769,IMU1,3.536585365853659,-3.780487804878049,-82.13414634146342,0.001953125,0.0625,0.0048828125
430,1.779,IMU0,1.829268292682927,-3.4756097560975614,-79.75609756097562,0.02734375,0.046875,-0.0029296875
431,1.779,IMU1,5.487804878048781,-2.682926829268293,-79.26829268292684,0.0087890625,0.0546875,-0.0068359375
432,1.789,IMU0,3.536585365853659,-3.780487804878049,-74.14634146341464,0.0400390625,0.0283203125,-0.01171875
433,1.789,IMU1,4.634146341463415,-2.682926829268293,-75.54878048780489,0.0185546875,0.0283203125,-0.017578125
434,1.799,IMU0,1.8902439024390245,-3.658536585365854,-73.35365853658537,0.0361328125,0.0009765625,-0.0185546875
435,1.799,IMU1,3.9024390243902443,-2.987804878048781,-74.02439024390245,0.015625,-0.0009765625,-0.025390625
436,1.809,IMU0,2.804878048780488,-3.2926829268292686,-67.8658536585366,0.0419921875,-0.0087890625,-0.017578125
437,1.809,IMU1,3.9024390243902443,-3.414634146341464,-71.40243902439025,0.0087890625,-0.0107421875,-0.0205078125
438,1.819,IMU0,2.073170731707317,-2.9268292682926833,-67.98780487804879,0.0400390625,0.01953125,-0.005859375
439,1.819,IMU1,1.6463414634146343,-2.8658536585365857,-71.64634146341464,0.015625,0.0205078125,-0.0126953125
440,1.829,IMU0,1.524390243902439,-3.7195121951219514,-65.1829268292683,0.03125,0.03125,0.01171875
441,1.829,IMU1,1.8902439024390245,-4.146341463414634,-70.67073170731707,0.009765625,0.03125,0.0029296875
442,1.839,IMU0,0.426829268292683,-4.573170731707317,-67.07317073170732,0.0263671875,0.037109375,0.01953125
443,1.839,IMU1,4.146341463414634,-3.7195121951219514,-67.25609756097562,0.0087890625,0.0498046875,0.0126953125
444,1.849,IMU0,1.2804878048780488,-4.390243902439025,-64.51219512195122,0.0166015625,0.033203125,0.0283203125
445,1.849,IMU1,3.414634146341464,-3.414634146341464,-65.42682926829269,0.0029296875,0.03125,0.0205078125
446,1.859,IMU0,1.4634146341463417,-3.7195121951219514,-63.04878048780488,0.0302734375,0.0390625,0.025390625
447,1.859,IMU1,4.2682926829268295,-2.804878048780488,-62.31707317073171,0.0048828125,0.037109375,0.01953125
448,1.869,IMU0,2.378048780487805,-3.8414634146341466,-60.365853658536594,0.029296875,0.02734375,0.015625
449,1.869,IMU1,2.0121951219512195,-3.1097560975609757,-65.1219512195122,0.0048828125,0.0205078125,0.0107421875
450,1.879,IMU0,2.5,-4.2682926829268295,-59.39024390243903,0.03515625,0.021484375,0.0087890625
451,1.879,IMU1,1.524390243902439,-4.634146341463415,-63.59756097560976,0.0068359375,0.013671875,0.001953125
452,1.889,IMU0,-1.2804878048780488,-4.817073170731708,-62.6829268292683,0.0322265625,0.0146484375,0.001953125
453,1.889,IMU1,0.6707317073170732,-3.963414634146342,-63.78048780487806,-0.0009765625,0.005859375,-0.001953125
454,1.899,IMU0,1.0365853658536586,-4.207317073170732,-61.34146341463415,0.0322265625,0.0244140625,0.001953125
455,1.899,IMU1,1.8902439024390245,-3.8414634146341466,-63.963414634146346,0.0087890625,0.0146484375,-0.00390625
456,1.909,IMU0,1.402439024390244,-3.7195121951219514,-61.463414634146346,0.0302734375,0.0107421875,-0.00390625
457,1.909,IMU1,2.25609756097561,-3.780487804878049,-63.78048780487806,0.0068359375,0.0048828125,-0.009765625
458,1.919,IMU0,1.7682926829268295,-3.4756097560975614,-57.865853658536594,0.03125,-0.0009765625,-0.0048828125
459,1.919,IMU1,3.048780487804878,-3.2926829268292686,-60.1829268292683,0.0068359375,-0.001953125,-0.01171875
460,1.929,IMU0,-0.3658536585365854,-3.963414634146342,-61.82926829268293,0.03515625,0.001953125,-0.0048828125
461,1.929,IMU1,1.4634146341463417,-3.5975609756097566,-63.29268292682927,0.0078125,0.0126953125,-0.01171875
462,1.939,IMU0,-0.9146341463414634,-4.390243902439025,-62.01219512195122,0.0205078125,0.021484375,0.0
463,1.939,IMU1,0.853658536585366,-3.9024390243902443,-63.23170731707317,-0.005859375,0.0341796875,-0.005859375
464,1.949,IMU0,0.426829268292683,-4.146341463414634,-61.768292682926834,0.013671875,0.03515625,0.001953125
465,1.949,IMU1,1.2804878048780488,-4.024390243902439,-64.81707317073172,-0.0068359375,0.03515625,-0.005859375
466,1.959,IMU0,2.5,-3.780487804878049,-60.73170731707317,0.0087890625,0.0244140625,0.0048828125
467,1.959,IMU1,3.5975609756097566,-3.658536585365854,-63.10975609756098,-0.0078125,0.0205078125,-0.001953125
468,1.969,IMU0,1.4634146341463417,-2.8658536585365857,-58.963414634146346,0.0244140625,0.0048828125,0.0048828125
469,1.969,IMU1,2.8658536585365857,-2.378048780487805,-60.91463414634147,0.0,0.0107421875,0.0
470,1.979,IMU0,-0.9756097560975611,-3.353658536585366,-62.987804878048784,0.021484375,-0.001953125,0.00390625
471,1.979,IMU1,0.853658536585366,-2.8658536585365857,-64.45121951219512,-0.001953125,-0.001953125,-0.0009765625
472,1.989,IMU0,0.6097560975609757,-3.9024390243902443,-62.13414634146342,0.0234375,0.0078125,0.0087890625
473,1.989,IMU1,1.7682926829268295,-3.536585365853659,-63.65853658536586,-0.01171875,0.0087890625,0.005859375
474,1.999,IMU0,-0.7317073170731708,-4.085365853658537,-62.804878048780495,0.0166015625,-0.00390625,0.0048828125
475,1.999,IMU1,0.12195121951219513,-3.780487804878049,-65.42682926829269,-0.0087890625,0.001953125,0.001953125
476,2.009,IMU0,2.0121951219512195,-3.2926829268292686,-60.060975609756106,0.0107421875,0.01953125,0.0068359375
477,2.009,IMU1,3.353658536585366,-2.987804878048781,-62.13414634146342,-0.005859375,0.01953125,0.0009765625
478,2.019,IMU0,0.24390243902439027,-2.1341463414634148,-60.304878048780495,0.017578125,0.01953125,0.0048828125
479,2.019,IMU1,1.7682926829268295,-1.6463414634146343,-62.31707317073171,-0.001953125,0.0185546875,-0.0009765625
480,2.029,IMU0,-0.7926829268292683,-2.5609756097560976,-62.6829268292683,0.025390625,0.017578125,0.005859375
481,2.029,IMU1,0.9146341463414634,-2.073170731707317,-64.26829268292684,0.00390625,0.009765625,0.0
482,2.039,IMU0,0.24390243902439027,-2.073170731707317,-62.6829268292683,0.0615234375,0.0126953125,0.0166015625
483,2.039,IMU1,1.3414634146341464,-1.6463414634146343,-65.54878048780489,0.033203125,0.0087890625,0.0107421875
484,2.049,IMU0,-0.853658536585366,-1.829268292682927,-62.6219512195122,0.1103515625,0.0126953125,0.013671875
485,2.049,IMU1,0.30487804878048785,-1.4634146341463417,-65.42682926829269,0.0830078125,0.0078125,0.0087890625
486,2.059,IMU0,3.231707317073171,-2.3170731707317076,-58.29268292682927,0.146484375,0.0107421875,0.021484375
487,2.059,IMU1,4.51219512195122,-1.9512195121951221,-60.67073170731708,0.115234375,0.009765625,0.017578125
488,2.069,IMU0,1.6463414634146343,-2.1951219512195124,-60.97560975609757,0.1591796875,0.00390625,0.0205078125
489,2.069,IMU1,3.231707317073171,-1.7682926829268295,-62.987804878048784,0.126953125,0.0107421875,0.0166015625
490,2.079,IMU0,-0.48780487804878053,-3.414634146341464,-62.07317073170732,0.146484375,-0.0068359375,0.0205078125
491,2.079,IMU1,1.1585365853658538,-2.987804878048781,-63.65853658536586,0.1171875,-0.0048828125,0.0166015625
492,2.089,IMU0,-0.06097560975609757,-2.5,-63.10975609756098,0.1357421875,0.0087890625,0.0185546875
493,2.089,IMU1,1.2195121951219514,-2.1951219512195124,-65.73170731707317,0.1162109375,0.01171875,0.0126953125
494,2.099,IMU0,0.0,-2.5,-62.07317073170732,0.1455078125,0.0048828125,0.0205078125
495,2.099,IMU1,1.1585365853658538,-2.1951219512195124,-64.32926829268293,0.12890625,0.013671875,0.013671875
496,2.109,IMU0,1.6463414634146343,-0.6707317073170732,-59.93902439024391,0.1533203125,0.0166015625,0.0224609375
497,2.109,IMU1,3.1097560975609757,-0.30487804878048785,-62.19512195121952,0.1357421875,0.0283203125,0.017578125
498,2.119,IMU0,0.1829268292682927,-1.2195121951219514,-61.89024390243903,0.166015625,0.021484375,0.0234375
499,2.119,IMU1,1.6463414634146343,-0.7317073170731708,-64.02439024390245,0.14453125,0.0283203125,0.0185546875
500,2.129,IMU0,-0.9756097560975611,-1.6463414634146343,-62.50000000000001,0.171875,0.037109375,0.0244140625
501,2.129,IMU1,0.24390243902439027,-1.2195121951219514,-64.57317073170732,0.146484375,0.044921875,0.01953125
502,2.139,IMU0,0.853658536585366,-2.25609756097561,-63.35365853658537,0.177734375,0.0341796875,0.0244140625
503,2.139,IMU1,1.9512195121951221,-1.8902439024390245,-65.67073170731707,0.1572265625,0.03515625,0.0185546875
504,2.149,IMU0,2.5,-1.1585365853658538,-61.707317073170735,0.1708984375,0.0234375,0.0107421875
505,2.149,IMU1,3.536585365853659,-0.7317073170731708,-63.963414634146346,0.15234375,0.0185546875,0.005859375
506,2.159,IMU0,1.1585365853658538,-0.853658536585366,-62.19512195121952,0.16015625,-0.0009765625,0.0009765625
507,2.159,IMU1,2.6219512195121952,-0.30487804878048785,-64.26829268292684,0.146484375,0.0,-0.0048828125
508,2.169,IMU0,0.426829268292683,-0.853658536585366,-64.57317073170732,0.15234375,0.0009765625,0.0
509,2.169,IMU1,1.8902439024390245,-0.3658536585365854,-66.52439024390245,0.1318359375,0.0048828125,-0.0048828125
510,2.179,IMU0,-0.9146341463414634,-1.1585365853658538,-66.40243902439025,0.1455078125,0.0009765625,0.0068359375
511,2.179,IMU1,0.426829268292683,-0.7317073170731708,-68.47560975609757,0.1328125,-0.00390625,0.0
512,2.189,IMU0,-1.524390243902439,-1.0365853658536586,-67.8048780487805,0.1455078125,0.02734375,0.0126953125
513,2.189,IMU1,0.0,-0.5487804878048781,-70.0609756097561,0.1328125,0.0185546875,0.0048828125
514,2.199,IMU0,2.6219512195121952,-0.5487804878048781,-64.26829268292684,0.1572265625,0.0380859375,0.0205078125
515,2.199,IMU1,3.780487804878049,-0.12195121951219513,-66.34146341463415,0.15234375,0.03125,0.013671875
516,2.209,IMU0,1.4634146341463417,0.853658536585366,-64.57317073170732,0.16015625,0.025390625,0.01171875
517,2.209,IMU1,2.987804878048781,1.2804878048780488,-66.58536585365854,0.1474609375,0.0166015625,0.0048828125
518,2.219,IMU0,0.6707317073170732,0.7317073170731708,-64.63414634146342,0.1796875,-0.0009765625,0.0107421875
519,2.219,IMU1,2.1951219512195124,1.2195121951219514,-66.89024390243902,0.1630859375,-0.0029296875,0.005859375
520,2.229,IMU0,-0.06097560975609757,0.12195121951219513,-67.6829268292683,0.19921875,0.015625,0.0146484375
521,2.229,IMU1,1.2804878048780488,0.6707317073170732,-69.81707317073172,0.1884765625,0.01171875,0.009765625
522,2.239,IMU0,-1.402439024390244,-0.3658536585365854,-67.6829268292683,0.2080078125,0.0224609375,0.013671875
523,2.239,IMU1,-0.12195121951219513,0.1829268292682927,-69.69512195121952,0.189453125,0.0185546875,0.0068359375
524,2.249,IMU0,0.9756097560975611,-0.06097560975609757,-67.01219512195122,0.2177734375,0.029296875,0.009765625
525,2.249,IMU1,2.6219512195121952,0.48780487804878053,-68.53658536585367,0.2001953125,0.0302734375,0.0029296875
526,2.259,IMU0,1.0365853658536586,1.2804878048780488,-66.21951219512195,0.2158203125,0.0419921875,0.013671875
527,2.259,IMU1,2.1951219512195124,1.829268292682927,-68.17073170731707,0.1884765625,0.0478515625,0.009765625
528,2.269,IMU0,0.6097560975609757,1.1585365853658538,-65.97560975609757,0.22265625,0.0556640625,0.013671875
529,2.269,IMU1,1.9512195121951221,1.524390243902439,-68.04878048780489,0.1962890625,0.0576171875,0.0078125
530,2.279,IMU0,1.1585365853658538,0.6707317073170732,-67.8658536585366,0.20703125,0.0126953125,0.009765625
531,2.279,IMU1,2.5609756097560976,0.9756097560975611,-70.1829268292683,0.189453125,0.0166015625,0.00390625
532,2.289,IMU0,0.853658536585366,1.0365853658536586,-68.23170731707317,0.2099609375,-0.0166015625,0.0166015625
533,2.289,IMU1,2.073170731707317,1.3414634146341464,-70.3658536585366,0.1982421875,-0.017578125,0.0107421875
534,2.299,IMU0,-1.6463414634146343,0.5487804878048781,-69.51219512195122,0.2080078125,-0.0224609375,0.015625
535,2.299,IMU1,-0.1829268292682927,0.9146341463414634,-71.52439024390245,0.1953125,-0.025390625,0.0087890625
536,2.309,IMU0,1.7682926829268295,1.2195121951219514,-66.28048780487805,0.20703125,0.0146484375,0.0185546875
537,2.309,IMU1,3.231707317073171,1.707317073170732,-68.10975609756098,0.1953125,0.013671875,0.0126953125
538,2.319,IMU0,0.426829268292683,2.1951219512195124,-68.29268292682927,0.2080078125,0.041015625,0.0146484375
539,2.319,IMU1,1.402439024390244,2.682926829268293,-70.3658536585366,0.19140625,0.0361328125,0.009765625
540,2.329,IMU0,1.5853658536585367,2.439024390243903,-66.28048780487805,0.208984375,0.037109375,0.013671875
541,2.329,IMU1,2.7439024390243905,2.7439024390243905,-68.78048780487805,0.2021484375,0.029296875,0.0068359375
542,2.339,IMU0,0.48780487804878053,1.8902439024390245,-71.46341463414635,0.2158203125,-0.0146484375,0.0087890625
543,2.339,IMU1,1.9512195121951221,2.1951219512195124,-73.90243902439025,0.1982421875,-0.0244140625,0.0029296875
544,2.349,IMU0,0.30487804878048785,2.073170731707317,-70.85365853658537,0.220703125,-0.01953125,0.0107421875
545,2.349,IMU1,1.4634146341463417,2.378048780487805,-73.10975609756098,0.203125,-0.017578125,0.005859375
546,2.359,IMU0,-1.707317073170732,3.048780487804878,-74.02439024390245,0.2177734375,-0.0029296875,0.0126953125
547,2.359,IMU1,0.12195121951219513,3.353658536585366,-76.03658536585367,0.19921875,-0.0048828125,0.0078125
548,2.369,IMU0,1.1585365853658538,3.048780487804878,-71.64634146341464,0.236328125,0.0302734375,0.025390625
549,2.369,IMU1,2.8658536585365857,3.5975609756097566,-73.53658536585367,0.2158203125,0.02734375,0.01953125
550,2.379,IMU0,1.5853658536585367,3.5975609756097566,-72.37804878048782,0.2236328125,0.0322265625,0.0302734375
551,2.379,IMU1,2.8658536585365857,4.085365853658537,-73.78048780487805,0.2109375,0.0224609375,0.0244140625
552,2.389,IMU0,2.987804878048781,3.536585365853659,-69.57317073170732,0.212890625,0.0283203125,0.03515625
553,2.389,IMU1,3.780487804878049,3.9024390243902443,-72.01219512195122,0.1982421875,0.0234375,0.0283203125
554,2.399,IMU0,1.2804878048780488,3.658536585365854,-72.7439024390244,0.20703125,0.0048828125,0.03125
555,2.399,IMU1,2.682926829268293,4.085365853658537,-75.3048780487805,0.1845703125,0.005859375,0.0263671875
556,2.409,IMU0,2.3170731707317076,2.7439024390243905,-71.58536585365854,0.203125,-0.0146484375,0.0283203125
557,2.409,IMU1,3.353658536585366,2.987804878048781,-74.32926829268294,0.1845703125,-0.0107421875,0.0234375
558,2.419,IMU0,-0.7317073170731708,3.414634146341464,-74.81707317073172,0.1708984375,-0.01171875,0.021484375
559,2.419,IMU1,0.48780487804878053,3.780487804878049,-77.01219512195122,0.1484375,-0.005859375,0.015625
560,2.429,IMU0,-0.48780487804878053,3.414634146341464,-73.59756097560977,0.16015625,0.0224609375,0.017578125
561,2.429,IMU1,0.9756097560975611,3.780487804878049,-75.73170731707317,0.1337890625,0.025390625,0.01171875
562,2.439,IMU0,1.2804878048780488,3.536585365853659,-73.59756097560977,0.1611328125,0.0439453125,0.009765625
563,2.439,IMU1,3.536585365853659,4.2682926829268295,-75.0609756097561,0.134765625,0.044921875,0.00390625
564,2.449,IMU0,4.51219512195122,3.1707317073170733,-70.42682926829269,0.154296875,0.0439453125,0.0126953125
565,2.449,IMU1,5.3048780487804885,3.7195121951219514,-72.25609756097562,0.1240234375,0.0458984375,0.0078125
566,2.459,IMU0,0.426829268292683,3.2926829268292686,-73.04878048780489,0.1064453125,0.00390625,0.0107421875
567,2.459,IMU1,1.7682926829268295,3.658536585365854,-75.1829268292683,0.08203125,0.0009765625,0.0048828125
568,2.469,IMU0,1.829268292682927,3.780487804878049,-70.91463414634147,0.087890625,0.0126953125,0.0087890625
569,2.469,IMU1,3.414634146341464,4.146341463414634,-73.65853658536587,0.0654296875,0.0146484375,0.0029296875
570,2.479,IMU0,1.524390243902439,2.7439024390243905,-73.96341463414635,0.0380859375,0.0009765625,0.009765625
571,2.479,IMU1,2.6219512195121952,3.414634146341464,-76.34146341463415,0.0263671875,0.0,0.001953125
572,2.489,IMU0,0.3658536585365854,3.414634146341464,-73.78048780487805,0.0263671875,0.0,0.013671875
573,2.489,IMU1,1.3414634146341464,3.9024390243902443,-76.58536585365854,0.0126953125,0.00390625,0.005859375
574,2.499,IMU0,-0.6707317073170732,2.987804878048781,-75.0,0.017578125,0.005859375,0.0126953125
575,2.499,IMU1,1.707317073170732,3.5975609756097566,-76.95121951219512,0.005859375,0.005859375,0.0048828125
576,2.509,IMU0,1.5853658536585367,3.780487804878049,-73.04878048780489,0.025390625,0.033203125,0.0166015625
577,2.509,IMU1,3.414634146341464,4.2682926829268295,-74.63414634146342,0.00390625,0.0322265625,0.0107421875
578,2.519,IMU0,1.8902439024390245,4.451219512195122,-72.37804878048782,0.0419921875,0.029296875,0.0126953125
579,2.519,IMU1,3.414634146341464,5.365853658536586,-74.26829268292684,0.01953125,0.021484375,0.0068359375
580,2.529,IMU0,1.524390243902439,4.390243902439025,-71.09756097560977,0.0458984375,0.03515625,0.0087890625
581,2.529,IMU1,2.987804878048781,4.878048780487806,-72.7439024390244,0.025390625,0.0263671875,0.0029296875
582,2.539,IMU0,1.8902439024390245,3.5975609756097566,-70.79268292682927,0.0419921875,0.025390625,0.0146484375
583,2.539,IMU1,3.353658536585366,4.085365853658537,-73.41463414634147,0.0263671875,0.0205078125,0.0087890625
584,2.549,IMU0,3.231707317073171,4.085365853658537,-70.73170731707317,0.033203125,0.0,0.013671875
585,2.549,IMU1,3.963414634146342,4.390243902439025,-73.41463414634147,0.0166015625,-0.001953125,0.0087890625
586,2.559,IMU0,-0.06097560975609757,4.207317073170732,-73.10975609756098,0.017578125,-0.0234375,0.015625
587,2.559,IMU1,0.9146341463414634,4.390243902439025,-76.28048780487805,-0.0009765625,-0.0244140625,0.0078125
588,2.569,IMU0,-0.5487804878048781,3.9024390243902443,-73.84146341463415,0.0224609375,-0.0029296875,0.015625
589,2.569,IMU1,1.5853658536585367,4.329268292682928,-76.28048780487805,-0.0009765625,0.0009765625,0.009765625
590,2.579,IMU0,0.9756097560975611,2.804878048780488,-74.26829268292684,0.0068359375,0.029296875,0.0166015625
591,2.579,IMU1,2.5609756097560976,3.353658536585366,-75.97560975609757,-0.013671875,0.025390625,0.0087890625
592,2.589,IMU0,1.5853658536585367,2.9268292682926833,-72.25609756097562,0.0126953125,0.0341796875,0.01171875
593,2.589,IMU1,3.4756097560975614,3.414634146341464,-73.41463414634147,-0.0126953125,0.025390625,0.0029296875
594,2.599,IMU0,2.5,3.414634146341464,-71.03658536585367,0.0048828125,0.0224609375,0.0048828125
595,2.599,IMU1,4.451219512195122,3.8414634146341466,-73.53658536585367,-0.021484375,0.0263671875,0.0
596,2.609,IMU0,3.353658536585366,4.085365853658537,-70.3658536585366,0.009765625,0.0009765625,0.0068359375
597,2.609,IMU1,2.5,3.963414634146342,-75.42682926829269,-0.013671875,0.0009765625,-0.0009765625
598,2.619,IMU0,2.682926829268293,4.817073170731708,-69.87804878048782,0.017578125,0.0,0.0107421875
599,2.619,IMU1,3.8414634146341466,4.695121951219512,-72.8658536585366,-0.0078125,0.009765625,0.0068359375
600,2.629,IMU0,1.3414634146341464,4.51219512195122,-70.48780487804879,0.0244140625,-0.009765625,0.0107421875
601,2.629,IMU1,3.353658536585366,4.2682926829268295,-73.90243902439025,0.00390625,0.0,0.0078125
602,2.639,IMU0,-0.3658536585365854,3.2926829268292686,-72.25609756097562,0.0361328125,0.001953125,0.009765625
603,2.639,IMU1,3.1707317073170733,4.329268292682928,-71.58536585365854,0.0107421875,0.0185546875,0.005859375
604,2.649,IMU0,0.7926829268292683,3.536585365853659,-72.13414634146342,0.029296875,0.013671875,0.009765625
605,2.649,IMU1,2.1951219512195124,4.390243902439025,-73.65853658536587,-0.0009765625,0.017578125,0.0029296875
606,2.659,IMU0,2.1341463414634148,3.536585365853659,-71.82926829268294,0.0234375,0.0361328125,0.0087890625
607,2.659,IMU1,4.146341463414634,4.024390243902439,-72.6829268292683,0.00390625,0.037109375,0.0
608,2.669,IMU0,0.7317073170731708,3.1097560975609757,-72.31707317073172,0.0107421875,0.0244140625,0.0029296875
609,2.669,IMU1,2.3170731707317076,3.4756097560975614,-74.57317073170732,-0.009765625,0.02734375,-0.001953125
610,2.679,IMU0,3.4756097560975614,3.353658536585366,-69.26829268292684,0.0078125,0.0263671875,0.0068359375
611,2.679,IMU1,2.987804878048781,3.658536585365854,-73.53658536585367,-0.005859375,0.01953125,-0.0009765625
612,2.689,IMU0,4.024390243902439,3.780487804878049,-70.3658536585366,0.0068359375,0.0029296875,0.0107421875
613,2.689,IMU1,3.414634146341464,3.414634146341464,-74.57317073170732,-0.001953125,0.0,0.001953125
614,2.699,IMU0,2.439024390243903,3.658536585365854,-68.78048780487805,0.0185546875,-0.0068359375,0.01171875
615,2.699,IMU1,5.182926829268293,3.7195121951219514,-71.58536585365854,0.0078125,-0.001953125,0.0068359375
616,2.709,IMU0,1.829268292682927,3.7195121951219514,-70.97560975609757,0.01171875,-0.021484375,0.009765625
617,2.709,IMU1,4.085365853658537,4.329268292682928,-72.07317073170732,-0.009765625,-0.0224609375,0.005859375
618,2.719,IMU0,2.987804878048781,3.4756097560975614,-69.93902439024392,0.01171875,-0.0078125,0.009765625
619,2.719,IMU1,3.7195121951219514,3.9024390243902443,-72.07317073170732,-0.0107421875,-0.013671875,0.00390625
620,2.729,IMU0,1.1585365853658538,2.8658536585365857,-72.8658536585366,0.0107421875,0.001953125,0.0068359375
621,2.729,IMU1,4.939024390243903,3.1707317073170733,-71.76829268292684,-0.013671875,0.005859375,0.0029296875
622,2.739,IMU0,1.402439024390244,1.9512195121951221,-71.09756097560977,-0.001953125,0.0048828125,0.0087890625
623,2.739,IMU1,3.8414634146341466,2.7439024390243905,-73.23170731707317,-0.0244140625,0.0078125,0.0048828125
624,2.749,IMU0,1.9512195121951221,2.073170731707317,-72.01219512195122,-0.001953125,0.009765625,0.0166015625
625,2.749,IMU1,2.25609756097561,2.9268292682926833,-73.23170731707317,-0.013671875,0.0068359375,0.0107421875
626,2.759,IMU0,4.024390243902439,2.5,-70.0,0.0029296875,0.0166015625,0.0283203125
627,2.759,IMU1,3.5975609756097566,2.5,-74.32926829268294,-0.0087890625,0.0078125,0.0205078125
628,2.769,IMU0,2.682926829268293,2.5609756097560976,-70.48780487804879,0.0126953125,0.0146484375,0.02734375
629,2.769,IMU1,4.2682926829268295,2.6219512195121952,-72.6829268292683,-0.0009765625,0.0126953125,0.0224609375
630,2.779,IMU0,3.1707317073170733,2.8658536585365857,-69.63414634146342,0.0107421875,0.00390625,0.017578125
631,2.779,IMU1,2.682926829268293,2.804878048780488,-74.26829268292684,0.0009765625,0.009765625,0.0107421875
632,2.789,IMU0,3.231707317073171,1.8902439024390245,-70.1829268292683,0.0009765625,0.021484375,0.0126953125
633,2.789,IMU1,4.75609756097561,1.8902439024390245,-71.64634146341464,-0.009765625,0.021484375,0.00390625
634,2.799,IMU0,1.524390243902439,2.3170731707317076,-71.28048780487805,-0.005859375,0.03125,0.0068359375
635,2.799,IMU1,4.085365853658537,2.804878048780488,-73.17073170731707,-0.015625,0.033203125,-0.0009765625
636,2.809,IMU0,1.3414634146341464,2.073170731707317,-70.54878048780489,-0.0029296875,0.048828125,0.0
637,2.809,IMU1,5.121951219512195,3.4756097560975614,-70.2439024390244,-0.025390625,0.05078125,-0.005859375
638,2.819,IMU0,2.378048780487805,2.5609756097560976,-71.89024390243902,0.001953125,0.0146484375,-0.001953125
639,2.819,IMU1,3.963414634146342,3.1707317073170733,-73.35365853658537,-0.017578125,0.01171875,-0.009765625
640,2.829,IMU0,2.439024390243903,2.0121951219512195,-70.79268292682927,0.009765625,0.005859375,-0.0048828125
641,2.829,IMU1,3.8414634146341466,2.5609756097560976,-72.07317073170732,-0.013671875,0.009765625,-0.0126953125
642,2.839,IMU0,1.7682926829268295,1.8902439024390245,-71.09756097560977,0.0126953125,0.0029296875,-0.0068359375
643,2.839,IMU1,2.804878048780488,2.1951219512195124,-74.08536585365854,-0.0048828125,0.0048828125,-0.0126953125
644,2.849,IMU0,2.682926829268293,1.524390243902439,-68.84146341463415,0.0146484375,0.015625,-0.0068359375
645,2.849,IMU1,2.9268292682926833,2.1951219512195124,-72.8048780487805,-0.00390625,0.0234375,-0.0126953125
646,2.859,IMU0,2.987804878048781,1.9512195121951221,-70.1829268292683,0.009765625,0.029296875,-0.0048828125
647,2.859,IMU1,3.048780487804878,1.9512195121951221,-73.35365853658537,-0.0087890625,0.0341796875,-0.01171875
648,2.869,IMU0,3.5975609756097566,2.987804878048781,-67.37804878048782,0.00390625,0.03515625,0.001953125
649,2.869,IMU1,4.817073170731708,2.987804878048781,-71.46341463414635,-0.013671875,0.0361328125,-0.0068359375
650,2.879,IMU0,2.378048780487805,3.1097560975609757,-68.90243902439025,0.021484375,0.0283203125,0.001953125
651,2.879,IMU1,5.365853658536586,3.231707317073171,-70.79268292682927,0.0029296875,0.0283203125,-0.00390625
652,2.889,IMU0,2.9268292682926833,3.1097560975609757,-68.41463414634147,0.056640625,0.0029296875,0.009765625
653,2.889,IMU1,4.695121951219512,3.2926829268292686,-70.3658536585366,0.0439453125,0.001953125,0.00390625
654,2.899,IMU0,1.0365853658536586,1.524390243902439,-70.79268292682927,0.0859375,0.0087890625,0.01171875
655,2.899,IMU1,3.5975609756097566,2.5609756097560976,-70.67073170731707,0.0673828125,0.0126953125,0.005859375
656,2.909,IMU0,2.5,2.8658536585365857,-68.65853658536587,0.1064453125,0.0341796875,0.01953125
657,2.909,IMU1,5.182926829268293,3.7195121951219514,-70.42682926829269,0.087890625,0.0380859375,0.01171875
658,2.919,IMU0,0.6097560975609757,2.25609756097561,-71.82926829268294,0.1318359375,0.025390625,0.0224609375
659,2.919,IMU1,3.414634146341464,3.414634146341464,-71.40243902439025,0.1083984375,0.033203125,0.017578125
660,2.929,IMU0,3.4756097560975614,1.8902439024390245,-68.90243902439025,0.1416015625,0.0283203125,0.0302734375
661,2.929,IMU1,3.4756097560975614,2.1341463414634148,-71.95121951219512,0.1162109375,0.0244140625,0.025390625
662,2.939,IMU0,2.804878048780488,1.1585365853658538,-70.3048780487805,0.1240234375,0.017578125,0.0302734375
663,2.939,IMU1,3.4756097560975614,1.5853658536585367,-72.31707317073172,0.1005859375,0.0107421875,0.0244140625
664,2.949,IMU0,1.9512195121951221,2.1951219512195124,-68.53658536585367,0.1123046875,0.0322265625,0.03125
665,2.949,IMU1,2.7439024390243905,2.25609756097561,-73.04878048780489,0.0966796875,0.0224609375,0.025390625
666,2.959,IMU0,2.987804878048781,2.1341463414634148,-69.32926829268293,0.126953125,0.0234375,0.0263671875
667,2.959,IMU1,3.5975609756097566,2.8658536585365857,-71.28048780487805,0.09765625,0.017578125,0.0224609375
668,2.969,IMU0,5.0,2.682926829268293,-68.10975609756098,0.12890625,0.0078125,0.0224609375
669,2.969,IMU1,4.695121951219512,2.7439024390243905,-72.43902439024392,0.1025390625,0.0,0.0166015625
670,2.979,IMU0,4.75609756097561,2.9268292682926833,-68.17073170731707,0.134765625,-0.041015625,0.0234375
671,2.979,IMU1,7.621951219512196,3.231707317073171,-69.93902439024392,0.11328125,-0.033203125,0.0185546875
672,2.989,IMU0,2.073170731707317,2.8658536585365857,-70.2439024390244,0.130859375,-0.0341796875,0.0234375
673,2.989,IMU1,4.75609756097561,3.2926829268292686,-71.89024390243902,0.1162109375,-0.021484375,0.0185546875
674,2.999,IMU0,2.6219512195121952,2.1951219512195124,-68.96341463414635,0.1494140625,-0.01171875,0.029296875
675,2.999,IMU1,4.329268292682928,3.536585365853659,-70.1219512195122,0.126953125,-0.0068359375,0.025390625
676,3.009,IMU0,3.353658536585366,2.439024390243903,-70.85365853658537,0.14453125,0.021484375,0.0283203125
677,3.009,IMU1,5.487804878048781,3.536585365853659,-71.28048780487805,0.1298828125,0.0185546875,0.021484375
678,3.019,IMU0,3.2926829268292686,3.414634146341464,-69.26829268292684,0.1552734375,0.0234375,0.033203125
679,3.019,IMU1,5.731707317073171,3.963414634146342,-71.09756097560977,0.140625,0.0263671875,0.025390625
680,3.029,IMU0,1.402439024390244,2.5609756097560976,-72.25609756097562,0.15625,0.03125,0.029296875
681,3.029,IMU1,3.048780487804878,3.4756097560975614,-73.29268292682927,0.1328125,0.03125,0.0234375
682,3.039,IMU0,4.085365853658537,2.7439024390243905,-69.32926829268293,0.154296875,0.0283203125,0.029296875
683,3.039,IMU1,3.9024390243902443,2.804878048780488,-73.29268292682927,0.1376953125,0.03125,0.0234375
684,3.049,IMU0,4.024390243902439,2.25609756097561,-70.3048780487805,0.13671875,0.0263671875,0.025390625
685,3.049,IMU1,4.939024390243903,2.5,-73.10975609756098,0.12109375,0.0283203125,0.01953125
686,3.059,IMU0,4.024390243902439,2.804878048780488,-69.51219512195122,0.1318359375,0.005859375,0.0166015625
687,3.059,IMU1,4.2682926829268295,3.1707317073170733,-73.10975609756098,0.1083984375,0.0146484375,0.013671875
688,3.069,IMU0,2.804878048780488,3.231707317073171,-69.81707317073172,0.125,0.0146484375,0.013671875
689,3.069,IMU1,3.353658536585366,4.024390243902439,-72.19512195121952,0.1064453125,0.013671875,0.0068359375
690,3.079,IMU0,2.9268292682926833,4.329268292682928,-71.46341463414635,0.1259765625,0.029296875,0.0126953125
691,3.079,IMU1,3.353658536585366,4.2682926829268295,-75.2439024390244,0.115234375,0.0244140625,0.0029296875
692,3.089,IMU0,4.51219512195122,4.390243902439025,-70.3048780487805,0.1396484375,0.0244140625,0.009765625
693,3.089,IMU1,6.7682926829268295,4.573170731707317,-72.8048780487805,0.1259765625,0.0263671875,0.00390625
694,3.099,IMU0,3.414634146341464,3.780487804878049,-73.71951219512195,0.1337890625,0.005859375,0.005859375
695,3.099,IMU1,5.975609756097562,4.146341463414634,-74.75609756097562,0.1220703125,0.00390625,0.0009765625
696,3.109,IMU0,4.390243902439025,3.658536585365854,-73.41463414634147,0.1337890625,-0.0234375,0.0078125
697,3.109,IMU1,5.426829268292684,4.085365853658537,-73.59756097560977,0.1142578125,-0.0263671875,0.0029296875
698,3.119,IMU0,3.9024390243902443,3.8414634146341466,-72.31707317073172,0.12890625,-0.013671875,0.013671875
699,3.119,IMU1,4.51219512195122,3.8414634146341466,-75.2439024390244,0.103515625,-0.0244140625,0.005859375
700,3.129,IMU0,3.4756097560975614,3.7195121951219514,-73.04878048780489,0.1201171875,-0.0146484375,0.0185546875
701,3.129,IMU1,5.182926829268293,4.085365853658537,-75.91463414634147,0.095703125,-0.01953125,0.0126953125
702,3.139,IMU0,4.146341463414634,4.2682926829268295,-73.10975609756098,0.1181640625,0.0087890625,0.0205078125
703,3.139,IMU1,5.2439024390243905,4.817073170731708,-75.85365853658537,0.1015625,0.00390625,0.015625
704,3.149,IMU0,3.9024390243902443,3.9024390243902443,-72.25609756097562,0.109375,0.0146484375,0.02734375
705,3.149,IMU1,3.658536585365854,4.024390243902439,-77.07317073170732,0.095703125,0.0068359375,0.01953125
706,3.159,IMU0,2.804878048780488,3.7195121951219514,-74.39024390243902,0.1083984375,0.033203125,0.01953125
707,3.159,IMU1,3.536585365853659,4.085365853658537,-76.76829268292684,0.0927734375,0.0283203125,0.0126953125
708,3.169,IMU0,4.695121951219512,4.085365853658537,-72.07317073170732,0.1103515625,0.0400390625,0.0126953125
709,3.169,IMU1,4.75609756097561,4.085365853658537,-76.89024390243902,0.091796875,0.03515625,0.0048828125
710,3.179,IMU0,3.4756097560975614,4.024390243902439,-74.87804878048782,0.1181640625,0.0126953125,0.0078125
711,3.179,IMU1,5.487804878048781,4.2682926829268295,-77.07317073170732,0.1064453125,0.0146484375,0.0009765625
712,3.189,IMU0,4.207317073170732,5.2439024390243905,-73.71951219512195,0.1298828125,0.0146484375,0.005859375
713,3.189,IMU1,5.426829268292684,5.0,-76.52439024390245,0.11328125,0.017578125,-0.0009765625
714,3.199,IMU0,2.8658536585365857,4.390243902439025,-74.75609756097562,0.1376953125,0.0126953125,0.001953125
715,3.199,IMU1,3.9024390243902443,4.51219512195122,-77.6219512195122,0.1240234375,0.0078125,-0.005859375
716,3.209,IMU0,2.5,4.146341463414634,-75.85365853658537,0.1396484375,0.0126953125,-0.0068359375
717,3.209,IMU1,5.670731707317073,4.695121951219512,-75.97560975609757,0.1162109375,0.013671875,-0.0107421875
718,3.219,IMU0,3.5975609756097566,4.451219512195122,-74.26829268292684,0.130859375,0.005859375,0.0009765625
719,3.219,IMU1,6.097560975609756,5.121951219512195,-76.09756097560977,0.1103515625,0.009765625,-0.0048828125
720,3.229,IMU0,2.5,3.963414634146342,-76.58536585365854,0.1279296875,0.0146484375,0.0048828125
721,3.229,IMU1,5.487804878048781,5.365853658536586,-75.85365853658537,0.1181640625,0.0205078125,0.0
722,3.239,IMU0,4.817073170731708,4.817073170731708,-73.17073170731707,0.12890625,0.0126953125,0.01171875
723,3.239,IMU1,6.097560975609756,5.2439024390243905,-74.63414634146342,0.1123046875,0.015625,0.0068359375
724,3.249,IMU0,3.231707317073171,4.51219512195122,-74.20731707317074,0.1259765625,0.0,0.0185546875
725,3.249,IMU1,5.121951219512195,5.182926829268293,-76.15853658536587,0.107421875,-0.0029296875,0.01171875
726,3.259,IMU0,2.25609756097561,5.2439024390243905,-73.96341463414635,0.1259765625,0.0166015625,0.029296875
727,3.259,IMU1,6.097560975609756,6.402439024390245,-73.17073170731707,0.103515625,0.021484375,0.0224609375
728,3.269,IMU0,4.085365853658537,4.329268292682928,-71.95121951219512,0.12109375,0.0302734375,0.0341796875
729,3.269,IMU1,5.853658536585367,5.487804878048781,-74.14634146341464,0.103515625,0.0341796875,0.0283203125
730,3.279,IMU0,5.060975609756098,4.695121951219512,-72.37804878048782,0.1171875,0.017578125,0.0341796875
731,3.279,IMU1,6.341463414634147,6.097560975609756,-72.8048780487805,0.09765625,0.021484375,0.0283203125
732,3.289,IMU0,4.634146341463415,4.939024390243903,-71.09756097560977,0.11328125,0.017578125,0.03515625
733,3.289,IMU1,3.9024390243902443,5.182926829268293,-74.39024390243902,0.08984375,0.0087890625,0.0283203125
734,3.299,IMU0,2.9268292682926833,4.939024390243903,-72.31707317073172,0.1328125,0.01953125,0.0302734375
735,3.299,IMU1,4.2682926829268295,5.7926829268292686,-74.63414634146342,0.109375,0.0185546875,0.025390625
736,3.309,IMU0,3.9024390243902443,5.2439024390243905,-70.97560975609757,0.1416015625,0.0205078125,0.0146484375
737,3.309,IMU1,5.853658536585367,5.731707317073171,-72.37804878048782,0.1220703125,0.0146484375,0.0078125
738,3.319,IMU0,5.914634146341464,4.878048780487806,-69.39024390243902,0.1494140625,0.00390625,0.013671875
739,3.319,IMU1,5.0,5.426829268292684,-74.57317073170732,0.1318359375,-0.0009765625,0.0068359375
740,3.329,IMU0,3.9024390243902443,4.939024390243903,-70.97560975609757,0.1533203125,-0.0048828125,0.01171875
741,3.329,IMU1,5.914634146341464,5.182926829268293,-73.41463414634147,0.13671875,-0.015625,0.005859375
742,3.339,IMU0,3.231707317073171,5.182926829268293,-69.69512195121952,0.1552734375,0.00390625,0.0107421875
743,3.339,IMU1,5.609756097560976,5.7926829268292686,-71.70731707317074,0.14453125,-0.0009765625,0.00390625
744,3.349,IMU0,2.0121951219512195,4.695121951219512,-72.31707317073172,0.15234375,0.0146484375,0.0107421875
745,3.349,IMU1,3.780487804878049,5.426829268292684,-73.29268292682927,0.13671875,0.0068359375,0.0048828125
746,3.359,IMU0,4.878048780487806,5.182926829268293,-69.45121951219512,0.1533203125,0.044921875,0.013671875
747,3.359,IMU1,6.219512195121951,5.609756097560976,-71.95121951219512,0.1357421875,0.041015625,0.0068359375
748,3.369,IMU0,4.878048780487806,5.182926829268293,-69.75609756097562,0.15234375,0.0380859375,0.0224609375
749,3.369,IMU1,7.25609756097561,5.731707317073171,-70.73170731707317,0.1396484375,0.0390625,0.0166015625
750,3.379,IMU0,4.024390243902439,5.3048780487804885,-70.91463414634147,0.1591796875,0.02734375,0.025390625
751,3.379,IMU1,6.341463414634147,6.036585365853659,-72.92682926829269,0.1416015625,0.03125,0.01953125
752,3.389,IMU0,2.8658536585365857,5.3048780487804885,-69.87804878048782,0.154296875,0.0068359375,0.02734375
753,3.389,IMU1,4.878048780487806,6.341463414634147,-71.76829268292684,0.1484375,0.005859375,0.01953125
754,3.399,IMU0,2.073170731707317,5.7926829268292686,-72.37804878048782,0.1708984375,0.017578125,0.01953125
755,3.399,IMU1,3.7195121951219514,6.2804878048780495,-74.14634146341464,0.1591796875,0.0068359375,0.0126953125
756,3.409,IMU0,3.4756097560975614,5.426829268292684,-71.28048780487805,0.1826171875,0.0224609375,0.017578125
757,3.409,IMU1,4.75609756097561,5.731707317073171,-73.59756097560977,0.1689453125,0.015625,0.009765625
758,3.419,IMU0,3.5975609756097566,5.2439024390243905,-71.58536585365854,0.1787109375,0.0380859375,0.0087890625
759,3.419,IMU1,5.365853658536586,5.731707317073171,-72.8658536585366,0.1689453125,0.0322265625,0.001953125
760,3.429,IMU0,3.231707317073171,5.731707317073171,-71.70731707317074,0.166015625,0.0361328125,0.009765625
761,3.429,IMU1,4.146341463414634,6.219512195121951,-74.39024390243902,0.1484375,0.02734375,0.001953125
762,3.439,IMU0,5.0,5.487804878048781,-70.3048780487805,0.16796875,0.01953125,0.0126953125
763,3.439,IMU1,6.219512195121951,5.975609756097562,-72.6219512195122,0.1455078125,0.015625,0.005859375
764,3.449,IMU0,4.146341463414634,6.219512195121951,-71.82926829268294,0.1494140625,-0.0126953125,0.0126953125
765,3.449,IMU1,5.3048780487804885,6.341463414634147,-74.32926829268294,0.13671875,-0.01953125,0.005859375
766,3.459,IMU0,3.5975609756097566,6.463414634146342,-70.2439024390244,0.1494140625,-0.001953125,0.0185546875
767,3.459,IMU1,4.634146341463415,6.585365853658537,-73.10975609756098,0.134765625,-0.01171875,0.0107421875
768,3.469,IMU0,4.207317073170732,5.487804878048781,-70.1219512195122,0.140625,0.021484375,0.02734375
769,3.469,IMU1,5.426829268292684,5.853658536585367,-72.07317073170732,0.123046875,0.009765625,0.0205078125
770,3.479,IMU0,3.4756097560975614,4.817073170731708,-70.42682926829269,0.1123046875,0.0166015625,0.0263671875
771,3.479,IMU1,4.51219512195122,5.3048780487804885,-73.23170731707317,0.0927734375,0.0078125,0.01953125
772,3.489,IMU0,5.670731707317073,6.2804878048780495,-68.35365853658537,0.0791015625,0.0126953125,0.025390625
773,3.489,IMU1,7.134146341463415,6.707317073170732,-71.03658536585367,0.0615234375,0.00390625,0.0185546875
774,3.499,IMU0,5.121951219512195,6.158536585365854,-69.08536585365854,0.0625,-0.01953125,0.0263671875
775,3.499,IMU1,6.7682926829268295,6.585365853658537,-71.28048780487805,0.046875,-0.0234375,0.01953125
776,3.509,IMU0,5.426829268292684,7.134146341463415,-67.92682926829269,0.0439453125,-0.017578125,0.0224609375
777,3.509,IMU1,7.073170731707318,7.560975609756098,-70.1829268292683,0.0224609375,-0.0244140625,0.015625
778,3.519,IMU0,3.5975609756097566,6.341463414634147,-68.90243902439025,0.0322265625,-0.0341796875,0.01171875
779,3.519,IMU1,5.609756097560976,6.951219512195123,-70.3048780487805,0.0107421875,-0.041015625,0.0048828125
780,3.529,IMU0,2.5,5.7926829268292686,-70.3658536585366,0.0205078125,-0.01953125,0.0078125
781,3.529,IMU1,4.2682926829268295,6.2804878048780495,-72.37804878048782,0.0,-0.0244140625,-0.0009765625
782,3.539,IMU0,5.0,6.219512195121951,-68.17073170731707,0.021484375,-0.013671875,0.0068359375
783,3.539,IMU1,6.7682926829268295,6.7682926829268295,-70.1829268292683,-0.0009765625,-0.0146484375,0.0
784,3.549,IMU0,3.963414634146342,5.426829268292684,-70.0609756097561,0.029296875,-0.037109375,0.0048828125
785,3.549,IMU1,5.914634146341464,5.853658536585367,-71.82926829268294,0.0009765625,-0.0390625,0.0
786,3.559,IMU0,4.2682926829268295,6.036585365853659,-68.96341463414635,0.02734375,-0.0283203125,0.0
787,3.559,IMU1,6.097560975609756,6.52439024390244,-71.15853658536587,-0.0029296875,-0.0263671875,-0.00390625
788,3.569,IMU0,3.048780487804878,5.487804878048781,-69.63414634146342,0.0234375,-0.033203125,-0.005859375
789,3.569,IMU1,4.75609756097561,6.097560975609756,-71.40243902439025,0.0009765625,-0.0283203125,-0.0107421875
790,3.579,IMU0,3.1707317073170733,5.365853658536586,-71.15853658536587,0.0205078125,-0.02734375,-0.00390625
791,3.579,IMU1,4.51219512195122,5.731707317073171,-73.53658536585367,-0.00390625,-0.0302734375,-0.0087890625
792,3.589,IMU0,5.2439024390243905,4.939024390243903,-68.90243902439025,0.0087890625,-0.01171875,0.0029296875
793,3.589,IMU1,6.341463414634147,5.487804878048781,-71.03658536585367,-0.0166015625,-0.015625,-0.001953125
794,3.599,IMU0,4.024390243902439,5.2439024390243905,-70.3658536585366,0.0107421875,-0.015625,0.0
795,3.599,IMU1,5.426829268292684,5.609756097560976,-72.6829268292683,-0.0146484375,-0.0185546875,-0.005859375
796,3.609,IMU0,3.4756097560975614,5.670731707317073,-69.81707317073172,0.0146484375,0.0048828125,0.0
797,3.609,IMU1,4.939024390243903,6.097560975609756,-72.31707317073172,-0.0078125,0.00390625,-0.0048828125
798,3.619,IMU0,4.207317073170732,5.060975609756098,-68.84146341463415,0.0048828125,-0.009765625,0.0029296875
799,3.619,IMU1,5.609756097560976,5.548780487804878,-71.03658536585367,-0.001953125,-0.0078125,-0.0029296875
800,3.629,IMU0,4.75609756097561,5.060975609756098,-69.20731707317074,0.0146484375,-0.0380859375,0.005859375
801,3.629,IMU1,5.7926829268292686,5.426829268292684,-71.58536585365854,0.0,-0.03515625,0.0
802,3.639,IMU0,7.134146341463415,5.060975609756098,-67.19512195121952,0.005859375,-0.021484375,0.0107421875
803,3.639,IMU1,8.292682926829269,5.426829268292684,-69.45121951219512,-0.0078125,-0.0126953125,0.00390625
804,3.649,IMU0,5.548780487804878,4.51219512195122,-68.96341463414635,0.0087890625,-0.0322265625,0.0166015625
805,3.649,IMU1,6.7682926829268295,4.817073170731708,-71.15853658536587,-0.0146484375,-0.0234375,0.0107421875
806,3.659,IMU0,5.121951219512195,5.060975609756098,-67.7439024390244,-0.0048828125,-0.0283203125,0.0126953125
807,3.659,IMU1,6.52439024390244,5.487804878048781,-70.3048780487805,-0.02734375,-0.0224609375,0.0068359375
808,3.669,IMU0,5.853658536585367,5.060975609756098,-67.19512195121952,0.005859375,-0.0322265625,0.0107421875
809,3.669,IMU1,7.378048780487806,5.426829268292684,-69.45121951219512,-0.013671875,-0.0380859375,0.0048828125
810,3.679,IMU0,5.3048780487804885,5.060975609756098,-68.04878048780489,0.0029296875,-0.0341796875,0.0068359375
811,3.679,IMU1,6.646341463414635,5.487804878048781,-70.1219512195122,-0.015625,-0.037109375,0.0
812,3.689,IMU0,5.0,5.060975609756098,-66.58536585365854,0.015625,-0.0244140625,0.0029296875
813,3.689,IMU1,6.2804878048780495,5.487804878048781,-68.78048780487805,-0.009765625,-0.025390625,-0.0029296875
814,3.699,IMU0,2.5609756097560976,4.51219512195122,-69.08536585365854,0.01171875,0.0078125,-0.00390625
815,3.699,IMU1,3.9024390243902443,4.878048780487806,-71.40243902439025,-0.005859375,0.00390625,-0.01171875
816,3.709,IMU0,5.609756097560976,4.695121951219512,-67.01219512195122,0.013671875,0.0263671875,-0.0087890625
817,3.709,IMU1,7.01219512195122,5.060975609756098,-69.32926829268293,-0.001953125,0.021484375,-0.017578125
818,3.719,IMU0,5.975609756097562,4.75609756097561,-67.5609756097561,0.0263671875,0.001953125,-0.0087890625
819,3.719,IMU1,7.500000000000001,5.121951219512195,-69.75609756097562,0.0009765625,-0.001953125,-0.0146484375
820,3.729,IMU0,5.853658536585367,4.451219512195122,-69.14634146341464,0.0126953125,-0.0166015625,0.0009765625
821,3.729,IMU1,7.500000000000001,4.75609756097561,-71.28048780487805,-0.01171875,-0.0185546875,-0.0048828125
822,3.739,IMU0,3.4756097560975614,4.390243902439025,-68.53658536585367,0.0029296875,-0.0126953125,0.0087890625
823,3.739,IMU1,4.878048780487806,4.817073170731708,-70.85365853658537,-0.015625,-0.013671875,0.001953125
824,3.749,IMU0,1.829268292682927,4.085365853658537,-69.51219512195122,-0.0029296875,0.01953125,0.009765625
825,3.749,IMU1,3.231707317073171,4.573170731707317,-71.95121951219512,-0.0234375,0.01953125,0.00390625
826,3.759,IMU0,3.2926829268292686,4.329268292682928,-69.32926829268293,0.0029296875,0.0107421875,0.0146484375
827,3.759,IMU1,5.0,4.939024390243903,-71.70731707317074,-0.0185546875,0.01171875,0.0087890625
828,3.769,IMU0,3.8414634146341466,4.207317073170732,-68.96341463414635,-0.0029296875,0.0146484375,0.017578125
829,3.769,IMU1,5.365853658536586,4.75609756097561,-71.28048780487805,-0.0185546875,0.015625,0.01171875
830,3.779,IMU0,3.2926829268292686,3.536585365853659,-70.91463414634147,-0.0361328125,0.0087890625,0.017578125
831,3.779,IMU1,4.878048780487806,4.024390243902439,-72.8658536585366,-0.044921875,0.0068359375,0.01171875
832,3.789,IMU0,3.9024390243902443,3.536585365853659,-69.32926829268293,-0.0537109375,-0.0078125,0.0185546875
833,3.789,IMU1,5.3048780487804885,4.024390243902439,-71.34146341463415,-0.06640625,-0.015625,0.0126953125
834,3.799,IMU0,2.987804878048781,2.5609756097560976,-69.57317073170732,-0.0859375,-0.0283203125,0.0166015625
835,3.799,IMU1,4.2682926829268295,2.9268292682926833,-71.76829268292684,-0.0947265625,-0.033203125,0.009765625
836,3.809,IMU0,2.0121951219512195,2.378048780487805,-70.60975609756098,-0.1005859375,-0.0380859375,0.009765625
837,3.809,IMU1,3.5975609756097566,2.9268292682926833,-72.5,-0.119140625,-0.041015625,0.00390625
838,3.819,IMU0,3.9024390243902443,3.658536585365854,-68.41463414634147,-0.1025390625,-0.01171875,0.00390625
839,3.819,IMU1,5.3048780487804885,4.085365853658537,-70.2439024390244,-0.12890625,-0.0048828125,-0.001953125
840,3.829,IMU0,4.024390243902439,3.1097560975609757,-69.26829268292684,-0.1103515625,-0.0087890625,-0.0009765625
841,3.829,IMU1,5.487804878048781,3.658536585365854,-71.09756097560977,-0.12890625,-0.0068359375,-0.0068359375
842,3.839,IMU0,3.9024390243902443,2.8658536585365857,-68.17073170731707,-0.1240234375,-0.00390625,0.0
843,3.839,IMU1,5.365853658536586,3.4756097560975614,-69.87804878048782,-0.14453125,-0.0048828125,-0.0078125
844,3.849,IMU0,4.451219512195122,2.5,-67.7439024390244,-0.1357421875,0.001953125,0.0068359375
845,3.849,IMU1,5.731707317073171,3.048780487804878,-70.1219512195122,-0.1513671875,-0.001953125,-0.0029296875
846,3.859,IMU0,2.25609756097561,1.829268292682927,-70.1219512195122,-0.1376953125,0.0029296875,0.0068359375
847,3.859,IMU1,4.024390243902439,2.5,-72.13414634146342,-0.1552734375,-0.00390625,-0.0009765625
848,3.869,IMU0,4.75609756097561,2.6219512195121952,-67.01219512195122,-0.1337890625,0.0234375,0.0068359375
849,3.869,IMU1,6.463414634146342,3.1097560975609757,-68.96341463414635,-0.1455078125,0.02734375,-0.0029296875
850,3.879,IMU0,4.878048780487806,2.1951219512195124,-67.6219512195122,-0.123046875,0.0283203125,0.00390625
851,3.879,IMU1,6.036585365853659,2.804878048780488,-69.63414634146342,-0.1376953125,0.025390625,-0.00390625
852,3.889,IMU0,5.2439024390243905,2.5,-67.6829268292683,-0.1171875,0.03515625,0.001953125
853,3.889,IMU1,6.52439024390244,3.1097560975609757,-69.45121951219512,-0.1240234375,0.0322265625,-0.0078125
854,3.899,IMU0,5.487804878048781,2.3170731707317076,-65.85365853658537,-0.1083984375,0.0185546875,-0.001953125
855,3.899,IMU1,6.829268292682928,2.804878048780488,-68.10975609756098,-0.125,0.01171875,-0.009765625
856,3.909,IMU0,3.4756097560975614,1.5853658536585367,-68.35365853658537,-0.107421875,0.0126953125,-0.005859375
857,3.909,IMU1,5.121951219512195,2.25609756097561,-70.42682926829269,-0.1220703125,0.009765625,-0.013671875
858,3.919,IMU0,5.365853658536586,1.8902439024390245,-66.52439024390245,-0.0966796875,0.0244140625,0.0
859,3.919,IMU1,6.951219512195123,2.378048780487805,-68.35365853658537,-0.1171875,0.0224609375,-0.005859375
860,3.929,IMU0,4.146341463414634,0.9756097560975611,-66.58536585365854,-0.0947265625,0.025390625,0.001953125
861,3.929,IMU1,5.121951219512195,1.524390243902439,-69.32926829268293,-0.115234375,0.029296875,-0.005859375
862,3.939,IMU0,3.1707317073170733,1.5853658536585367,-67.6829268292683,-0.078125,0.037109375,-0.0009765625
863,3.939,IMU1,4.451219512195122,2.073170731707317,-70.1829268292683,-0.0986328125,0.0390625,-0.0087890625
864,3.949,IMU0,4.2682926829268295,2.0121951219512195,-65.3658536585366,-0.044921875,0.0048828125,0.0029296875
865,3.949,IMU1,5.731707317073171,2.1951219512195124,-68.04878048780489,-0.0625,0.0048828125,-0.005859375
866,3.959,IMU0,3.048780487804878,0.853658536585366,-68.47560975609757,-0.0166015625,-0.01953125,0.0068359375
867,3.959,IMU1,4.75609756097561,1.2804878048780488,-70.97560975609757,-0.0390625,-0.0234375,0.0
868,3.969,IMU0,4.939024390243903,1.1585365853658538,-66.21951219512195,-0.0107421875,-0.0146484375,0.0078125
869,3.969,IMU1,6.646341463414635,1.5853658536585367,-68.10975609756098,-0.0322265625,-0.0205078125,0.0029296875
870,3.979,IMU0,3.4756097560975614,0.5487804878048781,-66.95121951219512,-0.0068359375,-0.0126953125,0.013671875
871,3.979,IMU1,4.207317073170732,0.7926829268292683,-70.0609756097561,-0.0361328125,-0.0126953125,0.0068359375
872,3.989,IMU0,2.25609756097561,0.1829268292682927,-68.65853658536587,-0.021484375,0.0166015625,0.0087890625
873,3.989,IMU1,3.1707317073170733,0.426829268292683,-70.97560975609757,-0.03515625,0.0185546875,0.0009765625
874,3.999,IMU0,4.451219512195122,-0.06097560975609757,-65.85365853658537,-0.029296875,0.0126953125,0.013671875
875,3.999,IMU1,5.609756097560976,0.0,-68.71951219512195,-0.0458984375,0.017578125,0.0048828125
876,4.009,IMU0,2.9268292682926833,-0.3658536585365854,-68.41463414634147,-0.0244140625,-0.0029296875,0.01171875
877,4.009,IMU1,4.207317073170732,-0.06097560975609757,-71.09756097560977,-0.041015625,0.01171875,0.0048828125
878,4.019,IMU0,4.207317073170732,0.5487804878048781,-67.31707317073172,-0.0224609375,0.015625,0.0068359375
879,4.019,IMU1,5.426829268292684,0.9146341463414634,-69.26829268292684,-0.0380859375,0.013671875,0.0
880,4.029,IMU0,3.231707317073171,0.0,-66.70731707317074,-0.013671875,0.0078125,0.0087890625
881,4.029,IMU1,3.7195121951219514,0.30487804878048785,-69.93902439024392,-0.0341796875,0.0126953125,0.001953125
882,4.039,IMU0,0.7926829268292683,-0.426829268292683,-69.26829268292684,-0.0048828125,-0.00390625,0.005859375
883,4.039,IMU1,2.25609756097561,-0.06097560975609757,-71.52439024390245,-0.03515625,0.0087890625,0.001953125
884,4.049,IMU0,3.231707317073171,0.12195121951219513,-66.15853658536587,0.001953125,-0.0078125,0.0048828125
885,4.049,IMU1,5.548780487804878,1.0975609756097562,-67.8658536585366,-0.0322265625,0.0009765625,0.0009765625
886,4.059,IMU0,1.707317073170732,0.6097560975609757,-68.29268292682927,0.0087890625,-0.0107421875,0.005859375
887,4.059,IMU1,4.573170731707317,1.3414634146341464,-67.43902439024392,-0.009765625,-0.001953125,0.0009765625
888,4.069,IMU0,2.3170731707317076,0.30487804878048785,-67.8658536585366,0.021484375,0.021484375,0.0087890625
889,4.069,IMU1,4.2682926829268295,0.5487804878048781,-69.14634146341464,0.0068359375,0.0185546875,-0.0009765625
890,4.079,IMU0,2.5,0.30487804878048785,-66.52439024390245,0.0302734375,0.02734375,0.017578125
891,4.079,IMU1,5.2439024390243905,0.7926829268292683,-67.6219512195122,0.0087890625,0.02734375,0.009765625
892,4.089,IMU0,0.9146341463414634,-0.3658536585365854,-68.90243902439025,0.0087890625,0.0263671875,0.0205078125
893,4.089,IMU1,4.51219512195122,0.3658536585365854,-68.53658536585367,-0.0087890625,0.029296875,0.0146484375
894,4.099,IMU0,2.378048780487805,-0.1829268292682927,-66.46341463414635,0.0087890625,0.005859375,0.0224609375
895,4.099,IMU1,4.695121951219512,0.48780487804878053,-68.90243902439025,-0.0126953125,0.0048828125,0.0166015625
896,4.109,IMU0,0.48780487804878053,-1.0975609756097562,-68.59756097560977,0.0,-0.0107421875,0.015625
897,4.109,IMU1,3.048780487804878,0.30487804878048785,-68.04878048780489,-0.0322265625,-0.009765625,0.01171875
898,4.119,IMU0,1.5853658536585367,-0.30487804878048785,-67.7439024390244,-0.0078125,0.0068359375,0.0126953125
899,4.119,IMU1,2.1951219512195124,0.24390243902439027,-70.1219512195122,-0.03125,0.0,0.00390625
900,4.129,IMU0,3.048780487804878,0.48780487804878053,-67.19512195121952,0.0,-0.009765625,0.0107421875
901,4.129,IMU1,4.024390243902439,1.0975609756097562,-69.51219512195122,-0.0283203125,-0.0107421875,0.0029296875
902,4.139,IMU0,1.2804878048780488,-0.1829268292682927,-68.90243902439025,0.0087890625,-0.0205078125,0.015625
903,4.139,IMU1,3.7195121951219514,0.30487804878048785,-69.08536585365854,-0.025390625,-0.0146484375,0.0087890625
904,4.149,IMU0,1.0975609756097562,0.06097560975609757,-67.5609756097561,0.013671875,-0.001953125,0.013671875
905,4.149,IMU1,2.3170731707317076,0.6707317073170732,-70.60975609756098,-0.0126953125,0.0009765625,0.0078125
906,4.159,IMU0,0.3658536585365854,-0.7926829268292683,-68.41463414634147,0.0078125,0.0302734375,0.0146484375
907,4.159,IMU1,1.7682926829268295,0.24390243902439027,-69.45121951219512,-0.00390625,0.033203125,0.0078125
908,4.169,IMU0,2.7439024390243905,-0.24390243902439027,-67.13414634146342,0.0185546875,0.03125,0.0146484375
909,4.169,IMU1,1.5853658536585367,0.24390243902439027,-70.91463414634147,-0.001953125,0.025390625,0.0048828125
910,4.179,IMU0,4.024390243902439,-0.7317073170731708,-65.60975609756098,0.0224609375,0.029296875,0.009765625
911,4.179,IMU1,3.658536585365854,-0.06097560975609757,-69.08536585365854,-0.00390625,0.0205078125,0.001953125
912,4.189,IMU0,3.231707317073171,0.6097560975609757,-67.07317073170732,0.005859375,0.0244140625,0.009765625
913,4.189,IMU1,5.060975609756098,1.0365853658536586,-69.02439024390245,-0.0224609375,0.0166015625,0.0068359375
914,4.199,IMU0,2.25609756097561,0.24390243902439027,-66.70731707317074,0.0068359375,-0.005859375,0.0107421875
915,4.199,IMU1,2.7439024390243905,0.426829268292683,-71.03658536585367,-0.021484375,-0.0185546875,0.0068359375
916,4.209,IMU0,2.1341463414634148,-0.12195121951219513,-67.19512195121952,0.0029296875,0.0029296875,0.0146484375
917,4.209,IMU1,2.5,0.48780487804878053,-70.1219512195122,-0.0224609375,0.0048828125,0.009765625
918,4.219,IMU0,3.9024390243902443,0.0,-66.58536585365854,0.013671875,0.001953125,0.01953125
919,4.219,IMU1,2.5,-0.5487804878048781,-70.60975609756098,-0.01171875,-0.00390625,0.013671875
920,4.229,IMU0,5.182926829268293,0.12195121951219513,-65.67073170731707,0.0107421875,-0.0029296875,0.0185546875
921,4.229,IMU1,4.939024390243903,0.0,-69.32926829268293,-0.005859375,-0.01171875,0.0107421875
922,4.239,IMU0,3.8414634146341466,-0.1829268292682927,-66.03658536585367,0.009765625,-0.0126953125,0.021484375
923,4.239,IMU1,5.548780487804878,-0.24390243902439027,-67.5,-0.001953125,-0.0205078125,0.013671875
924,4.249,IMU0,2.3170731707317076,-0.06097560975609757,-66.40243902439025,0.0078125,-0.01171875,0.0205078125
925,4.249,IMU1,2.987804878048781,0.1829268292682927,-70.54878048780489,-0.0126953125,-0.015625,0.013671875
926,4.259,IMU0,3.5975609756097566,0.24390243902439027,-64.69512195121952,0.0048828125,0.0029296875,0.0146484375
927,4.259,IMU1,3.658536585365854,0.7317073170731708,-67.5,-0.0009765625,-0.0048828125,0.005859375
928,4.269,IMU0,2.7439024390243905,-0.24390243902439027,-67.19512195121952,0.017578125,0.0126953125,0.0107421875
929,4.269,IMU1,2.7439024390243905,-0.5487804878048781,-69.87804878048782,-0.0009765625,0.0146484375,0.0009765625
930,4.279,IMU0,3.8414634146341466,-0.24390243902439027,-64.26829268292684,0.0107421875,0.0400390625,0.0087890625
931,4.279,IMU1,4.634146341463415,-0.6707317073170732,-67.7439024390244,-0.0068359375,0.04296875,-0.001953125
932,4.289,IMU0,2.1341463414634148,-0.7926829268292683,-66.15853658536587,0.0078125,0.0302734375,-0.0009765625
933,4.289,IMU1,5.0,-0.6707317073170732,-67.5609756097561,-0.01953125,0.0380859375,-0.0078125
934,4.299,IMU0,2.7439024390243905,-0.853658536585366,-65.60975609756098,-0.001953125,0.0234375,-0.009765625
935,4.299,IMU1,4.390243902439025,-0.6707317073170732,-68.90243902439025,-0.02734375,0.0234375,-0.0166015625
936,4.309,IMU0,2.6219512195121952,-0.30487804878048785,-64.32926829268293,0.0048828125,0.0146484375,-0.0078125
937,4.309,IMU1,3.780487804878049,0.5487804878048781,-67.19512195121952,-0.0126953125,0.013671875,-0.0166015625
938,4.319,IMU0,1.829268292682927,0.1829268292682927,-66.95121951219512,0.01171875,0.0322265625,-0.001953125
939,4.319,IMU1,3.8414634146341466,0.06097560975609757,-68.90243902439025,-0.0126953125,0.033203125,-0.0068359375
940,4.329,IMU0,3.8414634146341466,0.48780487804878053,-64.75609756097562,0.0244140625,0.0439453125,0.005859375
941,4.329,IMU1,5.548780487804878,0.3658536585365854,-68.35365853658537,0.0048828125,0.033203125,-0.0009765625
942,4.339,IMU0,1.6463414634146343,-1.0365853658536586,-66.40243902439025,0.0205078125,0.0283203125,0.005859375
943,4.339,IMU1,5.060975609756098,-0.6097560975609757,-67.25609756097562,-0.0009765625,0.0361328125,-0.0009765625
944,4.349,IMU0,1.829268292682927,-1.4634146341463417,-66.15853658536587,0.0185546875,0.01171875,0.0048828125
945,4.349,IMU1,4.024390243902439,-1.2804878048780488,-68.17073170731707,-0.0107421875,0.0185546875,-0.0009765625
946,4.359,IMU0,2.3170731707317076,-1.524390243902439,-65.48780487804879,0.0048828125,-0.0078125,0.001953125
947,4.359,IMU1,3.9024390243902443,-1.0365853658536586,-66.64634146341464,-0.0205078125,-0.0029296875,-0.0029296875
948,4.369,IMU0,0.5487804878048781,-1.0975609756097562,-67.01219512195122,0.01953125,0.001953125,0.0029296875
949,4.369,IMU1,2.682926829268293,-0.426829268292683,-67.43902439024392,-0.0009765625,0.005859375,-0.0029296875
950,4.379,IMU0,2.804878048780488,0.30487804878048785,-64.39024390243902,0.0615234375,0.0107421875,0.0029296875
951,4.379,IMU1,4.390243902439025,0.9756097560975611,-67.37804878048782,0.037109375,0.0146484375,-0.001953125
952,4.389,IMU0,1.2804878048780488,-0.6097560975609757,-66.28048780487805,0.099609375,0.0244140625,0.00390625
953,4.389,IMU1,4.75609756097561,0.12195121951219513,-65.79268292682927,0.0791015625,0.0244140625,-0.001953125
954,4.399,IMU0,1.707317073170732,-0.7317073170731708,-66.64634146341464,0.107421875,0.013671875,0.0078125
955,4.399,IMU1,4.024390243902439,-0.1829268292682927,-67.8048780487805,0.0791015625,0.0078125,0.001953125
956,4.409,IMU0,1.1585365853658538,-1.524390243902439,-66.28048780487805,0.107421875,0.025390625,0.0078125
957,4.409,IMU1,3.536585365853659,-0.7317073170731708,-66.82926829268293,0.0771484375,0.0205078125,0.0009765625
958,4.419,IMU0,1.829268292682927,-1.1585365853658538,-67.5609756097561,0.1064453125,0.0302734375,0.0029296875
959,4.419,IMU1,4.451219512195122,-0.24390243902439027,-67.98780487804879,0.0810546875,0.0263671875,-0.00390625
960,4.429,IMU0,2.5609756097560976,-0.6707317073170732,-65.0,0.09765625,0.0078125,0.00390625
961,4.429,IMU1,4.329268292682928,-0.06097560975609757,-67.6829268292683,0.080078125,0.009765625,-0.001953125
962,4.439,IMU0,1.7682926829268295,0.0,-66.89024390243902,0.0986328125,0.0048828125,0.0068359375
963,4.439,IMU1,5.548780487804878,1.1585365853658538,-66.09756097560977,0.09375,0.0029296875,-0.001953125
964,4.449,IMU0,0.12195121951219513,-0.24390243902439027,-67.07317073170732,0.095703125,0.001953125,0.0078125
965,4.449,IMU1,2.682926829268293,0.30487804878048785,-68.65853658536587,0.0810546875,-0.00390625,0.0009765625
966,4.459,IMU0,2.682926829268293,0.30487804878048785,-65.3658536585366,0.0859375,0.02734375,0.0087890625
967,4.459,IMU1,3.7195121951219514,0.7926829268292683,-67.19512195121952,0.068359375,0.029296875,0.001953125
968,4.469,IMU0,3.048780487804878,-0.5487804878048781,-64.39024390243902,0.0771484375,0.0126953125,0.0166015625
969,4.469,IMU1,3.963414634146342,-0.48780487804878053,-68.04878048780489,0.06640625,0.015625,0.009765625
970,4.479,IMU0,2.439024390243903,0.06097560975609757,-66.46341463414635,0.076171875,0.01171875,0.009765625
971,4.479,IMU1,4.75609756097561,0.426829268292683,-68.53658536585367,0.0615234375,0.0166015625,0.0029296875
972,4.489,IMU0,4.75609756097561,0.9756097560975611,-63.10975609756098,0.08203125,0.0107421875,0.0166015625
973,4.489,IMU1,5.365853658536586,1.1585365853658538,-66.28048780487805,0.0595703125,0.0107421875,0.009765625
974,4.499,IMU0,2.5,1.0975609756097562,-65.79268292682927,0.095703125,0.001953125,0.015625
975,4.499,IMU1,2.073170731707317,1.1585365853658538,-70.0,0.078125,-0.0048828125,0.0087890625
976,4.509,IMU0,1.707317073170732,0.9146341463414634,-65.0,0.111328125,0.021484375,0.015625
977,4.509,IMU1,2.1341463414634148,1.0975609756097562,-67.01219512195122,0.095703125,0.013671875,0.0068359375
978,4.519,IMU0,1.829268292682927,0.30487804878048785,-64.14634146341464,0.1123046875,0.0078125,0.017578125
979,4.519,IMU1,2.073170731707317,0.24390243902439027,-68.17073170731707,0.10546875,0.0087890625,0.0087890625
980,4.529,IMU0,-0.06097560975609757,-0.24390243902439027,-66.46341463414635,0.1025390625,-0.0029296875,0.0087890625
981,4.529,IMU1,1.2195121951219514,0.24390243902439027,-69.08536585365854,0.0947265625,-0.00390625,0.00390625
982,4.539,IMU0,2.439024390243903,0.12195121951219513,-64.87804878048782,0.09765625,0.0087890625,0.009765625
983,4.539,IMU1,2.7439024390243905,0.6707317073170732,-67.5,0.08203125,0.0068359375,0.00390625
984,4.549,IMU0,1.0365853658536586,0.853658536585366,-65.97560975609757,0.0927734375,0.00390625,0.0078125
985,4.549,IMU1,0.48780487804878053,1.1585365853658538,-70.60975609756098,0.068359375,-0.0078125,0.0009765625
986,4.559,IMU0,0.9756097560975611,0.9756097560975611,-66.58536585365854,0.0859375,0.0107421875,0.01171875
987,4.559,IMU1,1.7682926829268295,1.0975609756097562,-68.53658536585367,0.0634765625,0.005859375,0.0048828125
988,4.569,IMU0,1.707317073170732,1.3414634146341464,-64.51219512195122,0.08984375,0.0048828125,0.0146484375
989,4.569,IMU1,2.1951219512195124,1.0365853658536586,-68.90243902439025,0.0654296875,0.0048828125,0.0068359375
990,4.579,IMU0,-1.0365853658536586,1.3414634146341464,-67.7439024390244,0.09765625,0.0283203125,0.0166015625
991,4.579,IMU1,0.5487804878048781,1.7682926829268295,-69.93902439024392,0.07421875,0.0263671875,0.0107421875
992,4.589,IMU0,2.3170731707317076,0.9146341463414634,-65.79268292682927,0.1025390625,0.046875,0.0224609375
993,4.589,IMU1,3.536585365853659,1.402439024390244,-67.98780487804879,0.078125,0.0439453125,0.0185546875
994,4.599,IMU0,2.5609756097560976,0.426829268292683,-65.73170731707317,0.0869140625,0.0234375,0.0234375
995,4.599,IMU1,2.5,0.5487804878048781,-69.57317073170732,0.068359375,0.015625,0.0205078125
996,4.609,IMU0,1.2804878048780488,0.426829268292683,-66.15853658536587,0.0732421875,-0.0029296875,0.021484375
997,4.609,IMU1,2.682926829268293,0.6707317073170732,-67.6219512195122,0.0498046875,0.001953125,0.01953125
998,4.619,IMU0,1.3414634146341464,0.853658536585366,-64.87804878048782,0.0625,0.0068359375,0.0244140625
999,4.619,IMU1,2.3170731707317076,0.9756097560975611,-68.90243902439025,0.033203125,0.00390625,0.01953125
1000,4.629,IMU0,-1.402439024390244,0.30487804878048785,-67.25609756097562,0.0556640625,0.01953125,0.0166015625
1001,4.629,IMU1,1.829268292682927,0.9146341463414634,-69.26829268292684,0.041015625,0.021484375,0.0126953125
1002,4.639,IMU0,0.5487804878048781,0.7926829268292683,-66.46341463414635,0.05859375,0.0185546875,0.0126953125
1003,4.639,IMU1,3.2926829268292686,0.7317073170731708,-67.6219512195122,0.0380859375,0.0224609375,0.0087890625
1004,4.649,IMU0,0.426829268292683,0.0,-66.34146341463415,0.048828125,0.01171875,0.005859375
1005,4.649,IMU1,1.3414634146341464,0.24390243902439027,-69.02439024390245,0.0341796875,0.001953125,0.0009765625
1006,4.659,IMU0,0.12195121951219513,0.6097560975609757,-67.92682926829269,0.0390625,0.025390625,-0.005859375
1007,4.659,IMU1,1.2804878048780488,0.9146341463414634,-68.96341463414635,0.029296875,0.017578125,-0.0126953125
1008,4.669,IMU0,0.9146341463414634,1.2195121951219514,-66.21951219512195,0.0478515625,0.0078125,-0.01171875
1009,4.669,IMU1,2.439024390243903,0.9146341463414634,-68.47560975609757,0.0283203125,0.00390625,-0.017578125
1010,4.679,IMU0,-0.853658536585366,0.7317073170731708,-68.41463414634147,0.0712890625,-0.005859375,-0.009765625
1011,4.679,IMU1,2.682926829268293,1.4634146341463417,-69.14634146341464,0.056640625,-0.0048828125,-0.017578125
1012,4.689,IMU0,1.3414634146341464,1.0365853658536586,-67.31707317073172,0.0751953125,0.00390625,-0.005859375
1013,4.689,IMU1,4.573170731707317,1.6463414634146343,-66.76829268292684,0.0556640625,-0.0029296875,-0.0107421875
1014,4.699,IMU0,3.048780487804878,0.30487804878048785,-65.79268292682927,0.068359375,-0.0009765625,-0.0029296875
1015,4.699,IMU1,4.329268292682928,1.0365853658536586,-67.7439024390244,0.0439453125,-0.005859375,-0.0078125
1016,4.709,IMU0,1.707317073170732,0.5487804878048781,-68.17073170731707,0.0546875,-0.009765625,-0.0009765625
1017,4.709,IMU1,3.5975609756097566,1.402439024390244,-68.71951219512195,0.0400390625,-0.0185546875,-0.0078125
1018,4.719,IMU0,1.402439024390244,1.4634146341463417,-66.64634146341464,0.04296875,-0.0029296875,0.00390625
1019,4.719,IMU1,3.7195121951219514,1.402439024390244,-66.95121951219512,0.0126953125,-0.009765625,-0.001953125
1020,4.729,IMU0,0.48780487804878053,0.426829268292683,-68.10975609756098,0.0390625,-0.0009765625,0.0068359375
1021,4.729,IMU1,3.658536585365854,1.524390243902439,-68.71951219512195,0.0166015625,0.0009765625,0.0009765625
1022,4.739,IMU0,1.8902439024390245,1.0975609756097562,-67.8048780487805,0.0322265625,0.0166015625,0.005859375
1023,4.739,IMU1,5.609756097560976,1.9512195121951221,-67.6219512195122,0.01171875,0.0126953125,-0.001953125
1024,4.749,IMU0,4.634146341463415,0.6707317073170732,-66.15853658536587,0.0263671875,0.0244140625,0.0166015625
1025,4.749,IMU1,5.609756097560976,1.402439024390244,-68.35365853658537,0.0087890625,0.017578125,0.009765625
1026,4.759,IMU0,2.5609756097560976,1.2804878048780488,-68.04878048780489,0.025390625,-0.0078125,0.013671875
1027,4.759,IMU1,4.451219512195122,1.9512195121951221,-68.65853658536587,0.0107421875,-0.001953125,0.0087890625
1028,4.769,IMU0,2.1951219512195124,2.073170731707317,-65.48780487804879,0.0556640625,0.001953125,0.0234375
1029,4.769,IMU1,3.414634146341464,2.5609756097560976,-69.02439024390245,0.033203125,0.0048828125,0.0166015625
1030,4.779,IMU0,2.3170731707317076,1.6463414634146343,-66.15853658536587,0.0966796875,0.0078125,0.02734375
1031,4.779,IMU1,3.8414634146341466,2.25609756097561,-68.23170731707317,0.076171875,0.0009765625,0.0224609375
1032,4.789,IMU0,1.9512195121951221,1.2804878048780488,-66.70731707317074,0.115234375,0.0205078125,0.0224609375
1033,4.789,IMU1,2.6219512195121952,1.5853658536585367,-70.0609756097561,0.0986328125,0.0234375,0.0166015625
1034,4.799,IMU0,3.963414634146342,0.7926829268292683,-65.0,0.134765625,0.0283203125,0.01953125
1035,4.799,IMU1,4.695121951219512,1.4634146341463417,-67.8658536585366,0.1181640625,0.033203125,0.0126953125
1036,4.809,IMU0,2.073170731707317,0.24390243902439027,-67.8048780487805,0.1181640625,0.0234375,0.01171875
1037,4.809,IMU1,3.4756097560975614,0.6707317073170732,-70.0609756097561,0.0947265625,0.0244140625,0.005859375
1038,4.819,IMU0,2.7439024390243905,0.7926829268292683,-66.76829268292684,0.1044921875,0.0341796875,0.0009765625
1039,4.819,IMU1,3.536585365853659,1.3414634146341464,-69.81707317073172,0.087890625,0.0244140625,-0.0048828125
1040,4.829,IMU0,2.439024390243903,1.524390243902439,-65.73170731707317,0.1005859375,0.0185546875,-0.0048828125
1041,4.829,IMU1,3.5975609756097566,2.073170731707317,-68.35365853658537,0.083984375,0.0166015625,-0.0107421875
1042,4.839,IMU0,1.3414634146341464,0.853658536585366,-68.47560975609757,0.1044921875,0.0263671875,-0.0029296875
1043,4.839,IMU1,2.5,1.0975609756097562,-70.67073170731707,0.0849609375,0.0283203125,-0.0087890625
1044,4.849,IMU0,4.329268292682928,1.6463414634146343,-65.3048780487805,0.095703125,0.0234375,0.00390625
1045,4.849,IMU1,4.695121951219512,1.5853658536585367,-68.59756097560977,0.0634765625,0.0224609375,0.0
1046,4.859,IMU0,3.4756097560975614,0.06097560975609757,-66.34146341463415,0.095703125,0.017578125,0.01171875
1047,4.859,IMU1,4.329268292682928,0.30487804878048785,-68.41463414634147,0.06640625,0.017578125,0.005859375
1048,4.869,IMU0,3.658536585365854,1.5853658536585367,-65.48780487804879,0.091796875,0.0126953125,0.015625
1049,4.869,IMU1,4.2682926829268295,1.829268292682927,-68.35365853658537,0.072265625,0.0107421875,0.009765625
1050,4.879,IMU0,3.048780487804878,1.7682926829268295,-64.57317073170732,0.1064453125,0.0224609375,0.01953125
1051,4.879,IMU1,4.329268292682928,2.0121951219512195,-66.70731707317074,0.0830078125,0.0224609375,0.0146484375
1052,4.889,IMU0,2.9268292682926833,1.9512195121951221,-66.58536585365854,0.12109375,0.017578125,0.0205078125
1053,4.889,IMU1,4.146341463414634,2.378048780487805,-68.29268292682927,0.08984375,0.009765625,0.015625
1054,4.899,IMU0,3.780487804878049,2.25609756097561,-64.32926829268293,0.1318359375,0.0107421875,0.021484375
1055,4.899,IMU1,4.024390243902439,2.5,-67.6829268292683,0.1064453125,0.005859375,0.015625
1056,4.909,IMU0,4.390243902439025,1.6463414634146343,-65.79268292682927,0.1181640625,0.0458984375,0.021484375
1057,4.909,IMU1,5.121951219512195,2.073170731707317,-67.6219512195122,0.1005859375,0.0390625,0.0146484375
1058,4.919,IMU0,4.695121951219512,1.5853658536585367,-65.91463414634147,0.1025390625,0.048828125,0.021484375
1059,4.919,IMU1,5.670731707317073,1.829268292682927,-68.29268292682927,0.0869140625,0.0400390625,0.0146484375
1060,4.929,IMU0,5.3048780487804885,2.1951219512195124,-64.81707317073172,0.0888671875,0.025390625,0.01953125
1061,4.929,IMU1,6.646341463414635,2.6219512195121952,-67.37804878048782,0.0703125,0.0283203125,0.013671875
1062,4.939,IMU0,2.987804878048781,1.829268292682927,-65.91463414634147,0.0771484375,0.0078125,0.017578125
1063,4.939,IMU1,4.329268292682928,2.3170731707317076,-67.8658536585366,0.05859375,0.00390625,0.01171875
1064,4.949,IMU0,3.353658536585366,1.3414634146341464,-66.70731707317074,0.0791015625,0.0107421875,0.017578125
1065,4.949,IMU1,4.146341463414634,1.5853658536585367,-69.26829268292684,0.0537109375,0.009765625,0.0126953125
1066,4.959,IMU0,5.365853658536586,1.402439024390244,-64.87804878048782,0.048828125,0.0419921875,0.0234375
1067,4.959,IMU1,6.707317073170732,1.8902439024390245,-67.07317073170732,0.0244140625,0.0439453125,0.0185546875
1068,4.969,IMU0,4.451219512195122,1.524390243902439,-66.95121951219512,0.03125,0.0361328125,0.0205078125
1069,4.969,IMU1,6.219512195121951,1.8902439024390245,-69.02439024390245,0.009765625,0.033203125,0.0146484375
1070,4.979,IMU0,4.573170731707317,2.682926829268293,-65.54878048780489,0.0107421875,0.03515625,0.0185546875
1071,4.979,IMU1,6.036585365853659,2.987804878048781,-68.47560975609757,-0.0009765625,0.02734375,0.01171875
1072,4.989,IMU0,4.2682926829268295,1.9512195121951221,-64.9390243902439,0.013671875,0.0185546875,0.0146484375
1073,4.989,IMU1,6.097560975609756,2.5,-66.70731707317074,0.0029296875,0.009765625,0.0068359375
1074,4.999,IMU0,2.682926829268293,2.25609756097561,-66.64634146341464,0.005859375,0.0146484375,0.0078125
1075,4.999,IMU1,4.207317073170732,2.5609756097560976,-68.84146341463415,-0.005859375,0.0126953125,-0.0009765625
1076,5.009,IMU0,4.878048780487806,2.378048780487805,-64.08536585365854,0.0185546875,0.0224609375,0.0126953125
1077,5.009,IMU1,6.097560975609756,2.682926829268293,-66.34146341463415,0.0078125,0.017578125,0.0048828125
1078,5.019,IMU0,2.987804878048781,1.4634146341463417,-65.48780487804879,0.0244140625,0.02734375,0.01171875
1079,5.019,IMU1,4.939024390243903,2.0121951219512195,-67.01219512195122,0.013671875,0.0263671875,0.00390625
1080,5.029,IMU0,3.353658536585366,2.073170731707317,-65.60975609756098,0.025390625,0.033203125,0.013671875
1081,5.029,IMU1,5.060975609756098,2.5609756097560976,-67.6829268292683,0.013671875,0.025390625,0.005859375
1082,5.039,IMU0,3.4756097560975614,1.5853658536585367,-64.69512195121952,0.0244140625,0.0107421875,0.01171875
1083,5.039,IMU1,5.0,2.1951219512195124,-66.21951219512195,0.0068359375,0.0126953125,0.005859375
1084,5.049,IMU0,2.8658536585365857,1.829268292682927,-66.46341463414635,0.0224609375,-0.015625,0.0029296875
1085,5.049,IMU1,4.51219512195122,2.378048780487805,-68.10975609756098,-0.0048828125,-0.0146484375,-0.00390625
1086,5.059,IMU0,3.1707317073170733,2.073170731707317,-65.2439024390244,0.029296875,-0.02734375,-0.001953125
1087,5.059,IMU1,4.573170731707317,2.5609756097560976,-67.31707317073172,0.01171875,-0.0283203125,-0.0087890625
1088,5.069,IMU0,3.9024390243902443,2.0121951219512195,-64.9390243902439,0.021484375,-0.0322265625,0.0
1089,5.069,IMU1,5.487804878048781,2.5,-66.40243902439025,0.0009765625,-0.03125,-0.005859375
1090,5.079,IMU0,1.5853658536585367,2.3170731707317076,-66.64634146341464,0.017578125,-0.009765625,-0.0009765625
1091,5.079,IMU1,3.048780487804878,2.804878048780488,-68.71951219512195,0.0048828125,-0.0126953125,-0.0078125
1092,5.089,IMU0,2.6219512195121952,1.9512195121951221,-65.0609756097561,0.015625,0.01171875,0.0029296875
1093,5.089,IMU1,4.207317073170732,2.378048780487805,-67.07317073170732,-0.001953125,0.0078125,-0.00390625
1094,5.099,IMU0,1.524390243902439,1.524390243902439,-67.07317073170732,0.0166015625,0.015625,-0.0009765625
1095,5.099,IMU1,3.2926829268292686,1.9512195121951221,-68.90243902439025,0.0009765625,0.0087890625,-0.0078125
1096,5.109,IMU0,2.439024390243903,0.9146341463414634,-66.95121951219512,0.015625,0.021484375,-0.0078125
1097,5.109,IMU1,3.963414634146342,1.2804878048780488,-68.90243902439025,-0.0029296875,0.0185546875,-0.0126953125
1098,5.119,IMU0,3.2926829268292686,1.1585365853658538,-64.9390243902439,0.005859375,0.041015625,-0.01171875
1099,5.119,IMU1,4.817073170731708,1.6463414634146343,-66.64634146341464,-0.01953125,0.041015625,-0.017578125
1100,5.129,IMU0,3.780487804878049,1.0975609756097562,-66.82926829268293,-0.0068359375,0.0595703125,-0.0078125
1101,5.129,IMU1,5.548780487804878,1.524390243902439,-68.65853658536587,-0.03125,0.060546875,-0.015625
1102,5.139,IMU0,3.780487804878049,1.5853658536585367,-65.67073170731707,0.0126953125,0.0244140625,0.0
1103,5.139,IMU1,5.426829268292684,2.1341463414634148,-67.7439024390244,-0.01171875,0.0283203125,-0.0068359375
1104,5.149,IMU0,1.829268292682927,1.0975609756097562,-65.60975609756098,0.0244140625,0.0224609375,0.00390625
1105,5.149,IMU1,3.4756097560975614,1.6463414634146343,-67.6829268292683,0.0,0.025390625,-0.001953125
1106,5.159,IMU0,1.829268292682927,0.853658536585366,-66.82926829268293,0.0263671875,0.009765625,0.0068359375
1107,5.159,IMU1,3.353658536585366,1.2804878048780488,-69.02439024390245,0.0,0.0146484375,0.0
1108,5.169,IMU0,3.4756097560975614,0.6097560975609757,-65.0609756097561,0.013671875,0.0048828125,0.0029296875
1109,5.169,IMU1,4.817073170731708,1.0975609756097562,-67.01219512195122,-0.009765625,0.0126953125,-0.00390625
1110,5.179,IMU0,3.048780487804878,1.2195121951219514,-65.42682926829269,0.01171875,0.0078125,0.001953125
1111,5.179,IMU1,4.634146341463415,1.707317073170732,-67.31707317073172,-0.0087890625,0.0146484375,-0.005859375
1112,5.189,IMU0,1.7682926829268295,0.7926829268292683,-65.42682926829269,0.01171875,0.005859375,0.0048828125
1113,5.189,IMU1,3.231707317073171,1.2804878048780488,-67.5,-0.0087890625,0.0068359375,-0.001953125
1114,5.199,IMU0,2.1951219512195124,1.0975609756097562,-63.59756097560976,0.021484375,-0.0185546875,0.0078125
1115,5.199,IMU1,3.536585365853659,1.524390243902439,-65.79268292682927,-0.0009765625,-0.017578125,0.001953125
1116,5.209,IMU0,0.6707317073170732,0.12195121951219513,-64.45121951219512,0.0205078125,-0.0322265625,0.0146484375
1117,5.209,IMU1,1.829268292682927,0.5487804878048781,-66.58536585365854,0.0078125,-0.0361328125,0.0087890625
