,ts,id,Gx,Gy,Gz,Ax,Ay,Az
0,0.0,IMU0,0.853658536585366,0.0,0.12195121951219513,-0.041015625,0.0263671875,0.95703125
1,0.0,IMU1,0.0,-0.30487804878048785,-0.48780487804878053,-0.03515625,0.029296875,0.9169921875
2,0.01,IMU0,0.853658536585366,-0.12195121951219513,0.3658536585365854,-0.041015625,0.0263671875,0.9599609375
3,0.01,IMU1,0.06097560975609757,-0.426829268292683,-0.24390243902439027,-0.033203125,0.02734375,0.916015625
4,0.02,IMU0,0.6707317073170732,1.524390243902439,0.12195121951219513,-0.03515625,0.0263671875,0.958984375
5,0.02,IMU1,-0.12195121951219513,1.1585365853658538,-0.48780487804878053,-0.0263671875,0.0283203125,0.919921875
6,0.03,IMU0,0.6097560975609757,1.402439024390244,0.1829268292682927,-0.0498046875,0.02734375,0.966796875
7,0.03,IMU1,-0.12195121951219513,1.0975609756097562,-0.426829268292683,-0.041015625,0.0302734375,0.923828125
8,0.04,IMU0,0.6707317073170732,1.4634146341463417,0.12195121951219513,-0.0419921875,0.025390625,0.958984375
9,0.04,IMU1,-0.06097560975609757,1.0365853658536586,-0.426829268292683,-0.033203125,0.02734375,0.91796875
10,0.05,IMU0,0.6097560975609757,1.5853658536585367,0.1829268292682927,-0.0478515625,0.02734375,0.962890625
11,0.05,IMU1,-0.12195121951219513,1.2804878048780488,-0.3658536585365854,-0.0390625,0.0283203125,0.9208984375
12,0.06,IMU0,0.6097560975609757,1.4634146341463417,0.24390243902439027,-0.044921875,0.0244140625,0.9619140625
13,0.06,IMU1,-0.12195121951219513,1.1585365853658538,-0.30487804878048785,-0.037109375,0.02734375,0.921875
14,0.07,IMU0,0.6097560975609757,1.3414634146341464,0.24390243902439027,-0.044921875,0.02734375,0.95703125
15,0.07,IMU1,-0.06097560975609757,0.9756097560975611,-0.30487804878048785,-0.0361328125,0.029296875,0.91796875
16,0.08,IMU0,0.6097560975609757,0.7317073170731708,0.1829268292682927,-0.0439453125,0.0283203125,0.958984375
17,0.08,IMU1,-0.12195121951219513,0.30487804878048785,-0.30487804878048785,-0.0361328125,0.029296875,0.919921875
18,0.09,IMU0,0.7317073170731708,0.5487804878048781,0.24390243902439027,-0.0400390625,0.02734375,0.966796875
19,0.09,IMU1,-0.06097560975609757,0.1829268292682927,-0.24390243902439027,-0.033203125,0.0302734375,0.9248046875
20,0.1,IMU0,0.7317073170731708,0.12195121951219513,0.24390243902439027,-0.0419921875,0.0263671875,0.9619140625
21,0.1,IMU1,0.0,-0.24390243902439027,-0.30487804878048785,-0.0341796875,0.029296875,0.9189453125
22,0.11,IMU0,0.853658536585366,-0.426829268292683,0.30487804878048785,-0.0380859375,0.0263671875,0.9677734375
23,0.11,IMU1,0.12195121951219513,-0.7926829268292683,-0.24390243902439027,-0.0302734375,0.0283203125,0.921875
24,0.12,IMU0,0.853658536585366,0.06097560975609757,0.1829268292682927,-0.0390625,0.0263671875,0.9638671875
25,0.12,IMU1,0.06097560975609757,-0.426829268292683,-0.3658536585365854,-0.0302734375,0.0283203125,0.9208984375
26,0.13,IMU0,0.853658536585366,-0.30487804878048785,0.1829268292682927,-0.0390625,0.02734375,0.9599609375
27,0.13,IMU1,0.12195121951219513,-0.7317073170731708,-0.3658536585365854,-0.0322265625,0.029296875,0.91796875
28,0.14,IMU0,0.7317073170731708,0.5487804878048781,0.1829268292682927,-0.037109375,0.02734375,0.9599609375
29,0.14,IMU1,0.0,0.1829268292682927,-0.3658536585365854,-0.03125,0.029296875,0.91796875
30,0.15,IMU0,0.6707317073170732,1.2804878048780488,0.1829268292682927,-0.0419921875,0.025390625,0.9599609375
31,0.15,IMU1,0.0,0.853658536585366,-0.3658536585365854,-0.03515625,0.02734375,0.919921875
32,0.16,IMU0,0.6097560975609757,1.8902439024390245,0.24390243902439027,-0.0390625,0.025390625,0.9599609375
33,0.16,IMU1,-0.12195121951219513,1.524390243902439,-0.3658536585365854,-0.03125,0.02734375,0.9189453125
34,0.17,IMU0,0.5487804878048781,2.6219512195121952,0.30487804878048785,-0.041015625,0.0244140625,0.962890625
35,0.17,IMU1,-0.1829268292682927,2.25609756097561,-0.30487804878048785,-0.033203125,0.02734375,0.921875
36,0.18,IMU0,0.5487804878048781,2.682926829268293,0.12195121951219513,-0.044921875,0.0244140625,0.9677734375
37,0.18,IMU1,-0.24390243902439027,2.439024390243903,-0.48780487804878053,-0.0380859375,0.0283203125,0.9267578125
38,0.19,IMU0,0.6097560975609757,1.6463414634146343,0.0,-0.0458984375,0.0263671875,0.9609375
39,0.19,IMU1,-0.12195121951219513,1.2804878048780488,-0.48780487804878053,-0.0390625,0.0283203125,0.9189453125
40,0.2,IMU0,0.7317073170731708,1.0365853658536586,0.12195121951219513,-0.046875,0.0263671875,0.9658203125
41,0.2,IMU1,-0.06097560975609757,0.6707317073170732,-0.3658536585365854,-0.041015625,0.0283203125,0.923828125
42,0.21,IMU0,0.7926829268292683,-0.30487804878048785,0.1829268292682927,-0.0458984375,0.025390625,0.9619140625
43,0.21,IMU1,0.12195121951219513,-0.6707317073170732,-0.24390243902439027,-0.0380859375,0.02734375,0.919921875
44,0.22,IMU0,0.853658536585366,-0.7926829268292683,0.24390243902439027,-0.0419921875,0.0263671875,0.958984375
45,0.22,IMU1,0.12195121951219513,-1.0975609756097562,-0.24390243902439027,-0.033203125,0.0283203125,0.91796875
46,0.23,IMU0,0.853658536585366,-0.5487804878048781,0.12195121951219513,-0.0400390625,0.0263671875,0.9609375
47,0.23,IMU1,0.06097560975609757,-0.853658536585366,-0.3658536585365854,-0.0302734375,0.0283203125,0.919921875
48,0.24,IMU0,0.7926829268292683,-0.06097560975609757,0.12195121951219513,-0.0400390625,0.0283203125,0.9609375
49,0.24,IMU1,0.06097560975609757,-0.426829268292683,-0.3658536585365854,-0.033203125,0.029296875,0.921875
50,0.25,IMU0,0.7926829268292683,0.1829268292682927,0.1829268292682927,-0.041015625,0.0263671875,0.9619140625
51,0.25,IMU1,0.06097560975609757,-0.30487804878048785,-0.3658536585365854,-0.0341796875,0.0302734375,0.919921875
52,0.26,IMU0,0.7317073170731708,0.6707317073170732,0.1829268292682927,-0.0380859375,0.0263671875,0.958984375
53,0.26,IMU1,0.0,0.24390243902439027,-0.30487804878048785,-0.03125,0.029296875,0.9169921875
54,0.27,IMU0,0.6707317073170732,1.2195121951219514,0.1829268292682927,-0.041015625,0.0244140625,0.9658203125
55,0.27,IMU1,-0.12195121951219513,0.853658536585366,-0.30487804878048785,-0.0341796875,0.0283203125,0.9248046875
56,0.28,IMU0,0.6707317073170732,1.2804878048780488,0.12195121951219513,-0.041015625,0.02734375,0.9599609375
57,0.28,IMU1,-0.12195121951219513,0.9146341463414634,-0.3658536585365854,-0.033203125,0.029296875,0.919921875
58,0.29,IMU0,0.6097560975609757,1.2195121951219514,0.24390243902439027,-0.0400390625,0.0283203125,0.9580078125
59,0.29,IMU1,-0.12195121951219513,0.9756097560975611,-0.30487804878048785,-0.033203125,0.0302734375,0.91796875
60,0.3,IMU0,0.5487804878048781,1.8902439024390245,0.1829268292682927,-0.0400390625,0.0283203125,0.9619140625
61,0.3,IMU1,-0.12195121951219513,1.5853658536585367,-0.3658536585365854,-0.0322265625,0.03125,0.919921875
62,0.31,IMU0,0.5487804878048781,1.4634146341463417,0.24390243902439027,-0.044921875,0.0283203125,0.962890625
63,0.31,IMU1,-0.12195121951219513,1.0975609756097562,-0.3658536585365854,-0.037109375,0.03125,0.9208984375
64,0.32,IMU0,0.6097560975609757,1.0365853658536586,0.1829268292682927,-0.041015625,0.02734375,0.9619140625
65,0.32,IMU1,-0.06097560975609757,0.7317073170731708,-0.30487804878048785,-0.033203125,0.03125,0.9208984375
66,0.33,IMU0,0.7317073170731708,0.9146341463414634,0.1829268292682927,-0.044921875,0.025390625,0.9658203125
67,0.33,IMU1,0.0,0.5487804878048781,-0.3658536585365854,-0.0361328125,0.029296875,0.9248046875
68,0.34,IMU0,0.7926829268292683,0.1829268292682927,0.12195121951219513,-0.0419921875,0.025390625,0.96484375
69,0.34,IMU1,0.06097560975609757,-0.1829268292682927,-0.3658536585365854,-0.03515625,0.0283203125,0.9208984375
70,0.35,IMU0,0.7926829268292683,0.24390243902439027,0.1829268292682927,-0.0419921875,0.025390625,0.9599609375
71,0.35,IMU1,0.0,-0.12195121951219513,-0.3658536585365854,-0.0341796875,0.02734375,0.916015625
72,0.36,IMU0,0.6707317073170732,0.48780487804878053,0.24390243902439027,-0.0400390625,0.0263671875,0.9541015625
73,0.36,IMU1,-0.06097560975609757,0.06097560975609757,-0.30487804878048785,-0.0322265625,0.0302734375,0.9140625
74,0.37,IMU0,0.7317073170731708,0.5487804878048781,0.1829268292682927,-0.04296875,0.029296875,0.9755859375
75,0.37,IMU1,0.0,0.12195121951219513,-0.3658536585365854,-0.03515625,0.03125,0.9345703125
76,0.38,IMU0,0.7926829268292683,0.426829268292683,0.06097560975609757,-0.0439453125,0.0283203125,0.9501953125
77,0.38,IMU1,0.0,0.12195121951219513,-0.48780487804878053,-0.0341796875,0.03125,0.9072265625
78,0.39,IMU0,0.6707317073170732,0.9756097560975611,0.24390243902439027,-0.0390625,0.025390625,0.962890625
79,0.39,IMU1,0.0,0.6707317073170732,-0.30487804878048785,-0.0322265625,0.0283203125,0.91796875
80,0.4,IMU0,0.6707317073170732,1.4634146341463417,0.24390243902439027,-0.0439453125,0.025390625,0.96875
81,0.4,IMU1,-0.06097560975609757,1.0975609756097562,-0.24390243902439027,-0.0380859375,0.029296875,0.921875
82,0.41,IMU0,0.6707317073170732,1.3414634146341464,0.30487804878048785,-0.0400390625,0.02734375,0.9619140625
83,0.41,IMU1,0.0,1.0365853658536586,-0.24390243902439027,-0.033203125,0.029296875,0.91796875
84,0.42,IMU0,0.7317073170731708,1.1585365853658538,0.24390243902439027,-0.041015625,0.0263671875,0.9619140625
85,0.42,IMU1,0.0,0.7926829268292683,-0.3658536585365854,-0.0341796875,0.0283203125,0.9208984375
86,0.43,IMU0,0.7317073170731708,1.0975609756097562,0.24390243902439027,-0.0380859375,0.029296875,0.9619140625
87,0.43,IMU1,-0.06097560975609757,0.7317073170731708,-0.3658536585365854,-0.03125,0.03125,0.9208984375
88,0.44,IMU0,0.7317073170731708,1.2195121951219514,0.1829268292682927,-0.04296875,0.025390625,0.9619140625
89,0.44,IMU1,-0.06097560975609757,0.9146341463414634,-0.426829268292683,-0.0380859375,0.0283203125,0.919921875
90,0.45,IMU0,0.7926829268292683,0.6707317073170732,0.24390243902439027,-0.04296875,0.02734375,0.9599609375
91,0.45,IMU1,0.0,0.3658536585365854,-0.3658536585365854,-0.0361328125,0.0283203125,0.91796875
92,0.46,IMU0,0.7317073170731708,0.7926829268292683,0.24390243902439027,-0.04296875,0.02734375,0.9599609375
93,0.46,IMU1,-0.12195121951219513,0.426829268292683,-0.30487804878048785,-0.03515625,0.029296875,0.9169921875
94,0.47,IMU0,0.7317073170731708,0.9146341463414634,0.24390243902439027,-0.044921875,0.025390625,0.9638671875
95,0.47,IMU1,-0.06097560975609757,0.48780487804878053,-0.30487804878048785,-0.0380859375,0.0283203125,0.919921875
96,0.48,IMU0,0.6707317073170732,0.853658536585366,0.24390243902439027,-0.0439453125,0.0263671875,0.9599609375
97,0.48,IMU1,-0.06097560975609757,0.426829268292683,-0.30487804878048785,-0.037109375,0.029296875,0.9169921875
98,0.49,IMU0,0.6707317073170732,0.853658536585366,0.30487804878048785,-0.0458984375,0.025390625,0.9658203125
99,0.49,IMU1,-0.06097560975609757,0.3658536585365854,-0.30487804878048785,-0.0390625,0.0283203125,0.9248046875
100,0.5,IMU0,0.7317073170731708,0.48780487804878053,0.30487804878048785,-0.04296875,0.0263671875,0.96484375
101,0.5,IMU1,0.0,0.12195121951219513,-0.30487804878048785,-0.0341796875,0.0283203125,0.9228515625
102,0.9,IMU0,0.7317073170731708,-0.24390243902439027,0.24390243902439027,-0.0390625,0.02734375,0.9599609375
103,0.9,IMU1,0.06097560975609757,-0.5487804878048781,-0.3658536585365854,-0.0302734375,0.029296875,0.919921875
104,0.91,IMU0,0.7317073170731708,0.426829268292683,0.1829268292682927,-0.0390625,0.0263671875,0.9609375
105,0.91,IMU1,0.0,0.1829268292682927,-0.30487804878048785,-0.03125,0.0283203125,0.919921875
106,0.92,IMU0,0.7317073170731708,1.1585365853658538,0.24390243902439027,-0.0390625,0.0263671875,0.9609375
107,0.92,IMU1,-0.06097560975609757,0.9146341463414634,-0.3658536585365854,-0.0322265625,0.0283203125,0.919921875
108,0.93,IMU0,0.5487804878048781,1.9512195121951221,0.1829268292682927,-0.041015625,0.0244140625,0.9609375
109,0.93,IMU1,-0.12195121951219513,1.5853658536585367,-0.3658536585365854,-0.0341796875,0.0283203125,0.9208984375
110,0.94,IMU0,0.5487804878048781,2.378048780487805,0.1829268292682927,-0.0439453125,0.0244140625,0.9619140625
111,1.29,IMU0,0.5487804878048781,1.402439024390244,0.1829268292682927,-0.0400390625,0.02734375,0.9619140625
112,1.29,IMU1,-0.06097560975609757,1.0365853658536586,-0.30487804878048785,-0.0341796875,0.029296875,0.919921875
113,1.3,IMU0,0.6097560975609757,1.2804878048780488,0.1829268292682927,-0.041015625,0.025390625,0.96484375
114,1.3,IMU1,-0.06097560975609757,0.9756097560975611,-0.30487804878048785,-0.03515625,0.029296875,0.9208984375
115,1.31,IMU0,0.6707317073170732,1.1585365853658538,0.1829268292682927,-0.041015625,0.025390625,0.9638671875
116,1.31,IMU1,0.0,0.6707317073170732,-0.30487804878048785,-0.0341796875,0.0302734375,0.921875
117,1.32,IMU0,0.6707317073170732,0.853658536585366,0.1829268292682927,-0.0419921875,0.0263671875,0.962890625
118,1.32,IMU1,0.0,0.426829268292683,-0.30487804878048785,-0.0341796875,0.02734375,0.9208984375
119,1.33,IMU0,0.6707317073170732,0.6097560975609757,0.1829268292682927,-0.041015625,0.0263671875,0.9638671875
120,1.33,IMU1,0.0,0.24390243902439027,-0.30487804878048785,-0.03515625,0.0283203125,0.921875
121,1.34,IMU0,0.7317073170731708,0.48780487804878053,0.1829268292682927,-0.041015625,0.02734375,0.9619140625
122,1.34,IMU1,0.0,0.12195121951219513,-0.3658536585365854,-0.03515625,0.0283203125,0.921875
123,1.35,IMU0,0.7317073170731708,0.5487804878048781,0.1829268292682927,-0.041015625,0.0263671875,0.9599609375
124,1.35,IMU1,0.0,0.1829268292682927,-0.426829268292683,-0.0341796875,0.0283203125,0.9208984375
125,1.36,IMU0,0.6707317073170732,0.6707317073170732,0.1829268292682927,-0.041015625,0.0263671875,0.9599609375
126,1.36,IMU1,0.0,0.30487804878048785,-0.3658536585365854,-0.033203125,0.029296875,0.9208984375
127,1.37,IMU0,0.6707317073170732,0.7926829268292683,0.24390243902439027,-0.0400390625,0.0263671875,0.9619140625
128,1.37,IMU1,-0.06097560975609757,0.5487804878048781,-0.3658536585365854,-0.033203125,0.029296875,0.9208984375
129,1.38,IMU0,0.6707317073170732,0.9756097560975611,0.24390243902439027,-0.041015625,0.025390625,0.9609375
130,1.38,IMU1,-0.06097560975609757,0.6707317073170732,-0.30487804878048785,-0.0341796875,0.0302734375,0.9208984375
131,1.39,IMU0,0.6707317073170732,1.0365853658536586,0.24390243902439027,-0.0419921875,0.025390625,0.9619140625
132,1.39,IMU1,0.0,0.7926829268292683,-0.30487804878048785,-0.0341796875,0.029296875,0.919921875
133,1.4,IMU0,0.6097560975609757,1.0365853658536586,0.1829268292682927,-0.0419921875,0.0263671875,0.962890625
134,1.4,IMU1,0.0,0.7317073170731708,-0.30487804878048785,-0.033203125,0.0283203125,0.919921875
135,1.41,IMU0,0.6707317073170732,0.9756097560975611,0.24390243902439027,-0.0419921875,0.0263671875,0.9638671875
136,1.41,IMU1,-0.12195121951219513,0.6707317073170732,-0.30487804878048785,-0.0322265625,0.0283203125,0.921875
137,1.42,IMU0,0.7317073170731708,0.853658536585366,0.24390243902439027,-0.041015625,0.0263671875,0.9638671875
138,1.42,IMU1,-0.06097560975609757,0.48780487804878053,-0.3658536585365854,-0.0341796875,0.02734375,0.9208984375
139,1.43,IMU0,0.7317073170731708,0.7317073170731708,0.24390243902439027,-0.041015625,0.0263671875,0.96484375
140,1.43,IMU1,0.0,0.426829268292683,-0.30487804878048785,-0.0341796875,0.0283203125,0.9208984375
141,1.44,IMU0,0.7317073170731708,0.7926829268292683,0.24390243902439027,-0.04296875,0.0263671875,0.962890625
142,1.44,IMU1,-0.06097560975609757,0.3658536585365854,-0.30487804878048785,-0.03515625,0.02734375,0.921875
143,1.45,IMU0,0.7317073170731708,0.7317073170731708,0.24390243902439027,-0.0419921875,0.025390625,0.9619140625
144,1.45,IMU1,0.0,0.3658536585365854,-0.3658536585365854,-0.0341796875,0.0283203125,0.9228515625
145,1.46,IMU0,0.7317073170731708,0.7926829268292683,0.24390243902439027,-0.0419921875,0.025390625,0.9619140625
146,1.46,IMU1,0.0,0.3658536585365854,-0.3658536585365854,-0.03515625,0.0283203125,0.9208984375
147,1.47,IMU0,0.6707317073170732,0.7926829268292683,0.1829268292682927,-0.0419921875,0.025390625,0.962890625
148,1.47,IMU1,0.0,0.48780487804878053,-0.3658536585365854,-0.0341796875,0.0283203125,0.9228515625
149,1.48,IMU0,0.6097560975609757,0.9146341463414634,0.1829268292682927,-0.041015625,0.0263671875,0.9619140625
150,1.48,IMU1,-0.06097560975609757,0.5487804878048781,-0.3658536585365854,-0.033203125,0.0283203125,0.921875
151,1.49,IMU0,0.6707317073170732,0.9146341463414634,0.1829268292682927,-0.041015625,0.0263671875,0.962890625
152,1.49,IMU1,-0.06097560975609757,0.6097560975609757,-0.3658536585365854,-0.0341796875,0.0283203125,0.921875
153,1.5,IMU0,0.6707317073170732,0.9146341463414634,0.1829268292682927,-0.0400390625,0.0263671875,0.9619140625
154,1.5,IMU1,-0.06097560975609757,0.6097560975609757,-0.3658536585365854,-0.03515625,0.029296875,0.9208984375
155,1.51,IMU0,0.7317073170731708,0.9146341463414634,0.24390243902439027,-0.0390625,0.0263671875,0.9609375
156,1.51,IMU1,-0.06097560975609757,0.6097560975609757,-0.3658536585365854,-0.0341796875,0.029296875,0.9228515625
157,1.52,IMU0,0.7317073170731708,0.9146341463414634,0.1829268292682927,-0.0400390625,0.025390625,0.9619140625
158,1.52,IMU1,-0.06097560975609757,0.6097560975609757,-0.3658536585365854,-0.03515625,0.029296875,0.9228515625
159,1.53,IMU0,0.6707317073170732,0.9146341463414634,0.1829268292682927,-0.0400390625,0.0263671875,0.9609375
160,1.53,IMU1,0.0,0.48780487804878053,-0.3658536585365854,-0.0341796875,0.029296875,0.9208984375
161,1.54,IMU0,0.7317073170731708,0.853658536585366,0.1829268292682927,-0.041015625,0.02734375,0.9609375
162,1.54,IMU1,-0.06097560975609757,0.48780487804878053,-0.30487804878048785,-0.0341796875,0.029296875,0.9208984375
163,1.55,IMU0,0.6707317073170732,0.853658536585366,0.1829268292682927,-0.0419921875,0.0263671875,0.962890625
164,1.55,IMU1,0.0,0.5487804878048781,-0.3658536585365854,-0.03515625,0.029296875,0.919921875
165,1.56,IMU0,0.6707317073170732,0.9756097560975611,0.1829268292682927,-0.0419921875,0.0263671875,0.9638671875
166,1.56,IMU1,0.0,0.6097560975609757,-0.3658536585365854,-0.03515625,0.029296875,0.9189453125
167,1.57,IMU0,0.6707317073170732,1.0365853658536586,0.1829268292682927,-0.0419921875,0.0263671875,0.962890625
168,1.57,IMU1,-0.06097560975609757,0.6097560975609757,-0.3658536585365854,-0.0361328125,0.029296875,0.9189453125
169,1.58,IMU0,0.6097560975609757,0.9756097560975611,0.1829268292682927,-0.04296875,0.025390625,0.9638671875
170,1.58,IMU1,-0.06097560975609757,0.6097560975609757,-0.3658536585365854,-0.0361328125,0.029296875,0.919921875
171,1.59,IMU0,0.6097560975609757,0.9146341463414634,0.1829268292682927,-0.04296875,0.025390625,0.962890625
172,1.59,IMU1,-0.06097560975609757,0.6097560975609757,-0.3658536585365854,-0.0361328125,0.0302734375,0.919921875
173,1.6,IMU0,0.6097560975609757,0.7926829268292683,0.1829268292682927,-0.041015625,0.025390625,0.9619140625
174,1.6,IMU1,-0.06097560975609757,0.426829268292683,-0.3658536585365854,-0.03515625,0.0302734375,0.921875
175,1.61,IMU0,0.6707317073170732,0.6707317073170732,0.1829268292682927,-0.041015625,0.02734375,0.9619140625
176,1.61,IMU1,-0.06097560975609757,0.30487804878048785,-0.3658536585365854,-0.0341796875,0.0302734375,0.9208984375
177,1.62,IMU0,0.6707317073170732,0.6097560975609757,0.1829268292682927,-0.041015625,0.0283203125,0.9609375
178,1.62,IMU1,0.0,0.24390243902439027,-0.3658536585365854,-0.033203125,0.0302734375,0.9208984375
179,1.63,IMU0,0.6707317073170732,0.6097560975609757,0.1829268292682927,-0.0400390625,0.0283203125,0.9609375
180,1.63,IMU1,-0.06097560975609757,0.12195121951219513,-0.3658536585365854,-0.033203125,0.0302734375,0.921875
181,1.64,IMU0,0.7317073170731708,0.6097560975609757,0.1829268292682927,-0.0400390625,0.02734375,0.9638671875
182,1.64,IMU1,-0.06097560975609757,0.1829268292682927,-0.3658536585365854,-0.0322265625,0.0302734375,0.9208984375
183,1.65,IMU0,0.6707317073170732,0.6707317073170732,0.1829268292682927,-0.0400390625,0.0263671875,0.9638671875
184,1.65,IMU1,-0.06097560975609757,0.3658536585365854,-0.3658536585365854,-0.0322265625,0.029296875,0.9228515625
185,1.66,IMU0,0.6707317073170732,0.9146341463414634,0.1829268292682927,-0.0419921875,0.0263671875,0.962890625
186,1.66,IMU1,-0.06097560975609757,0.5487804878048781,-0.3658536585365854,-0.0322265625,0.0283203125,0.9208984375
187,1.67,IMU0,0.6707317073170732,1.0365853658536586,0.1829268292682927,-0.0419921875,0.0244140625,0.9619140625
188,1.67,IMU1,-0.06097560975609757,0.7317073170731708,-0.3658536585365854,-0.0341796875,0.029296875,0.9208984375
189,1.68,IMU0,0.7317073170731708,1.2195121951219514,0.24390243902439027,-0.0419921875,0.0244140625,0.9609375
190,1.68,IMU1,-0.06097560975609757,0.853658536585366,-0.3658536585365854,-0.03515625,0.0302734375,0.9208984375
191,1.69,IMU0,0.7317073170731708,1.3414634146341464,0.1829268292682927,-0.04296875,0.025390625,0.9619140625
192,1.69,IMU1,-0.12195121951219513,0.9756097560975611,-0.3658536585365854,-0.03515625,0.029296875,0.9208984375
193,1.7,IMU0,0.7317073170731708,1.2804878048780488,0.1829268292682927,-0.04296875,0.025390625,0.9638671875
194,1.7,IMU1,-0.12195121951219513,0.9146341463414634,-0.3658536585365854,-0.0361328125,0.029296875,0.9208984375
195,1.71,IMU0,0.7317073170731708,1.0975609756097562,0.1829268292682927,-0.04296875,0.0244140625,0.962890625
196,1.71,IMU1,-0.06097560975609757,0.7926829268292683,-0.3658536585365854,-0.0361328125,0.029296875,0.9208984375
197,1.72,IMU0,0.7317073170731708,0.853658536585366,0.1829268292682927,-0.041015625,0.025390625,0.962890625
198,1.72,IMU1,0.0,0.48780487804878053,-0.3658536585365854,-0.03515625,0.029296875,0.91796875
199,1.73,IMU0,0.7317073170731708,0.6707317073170732,0.24390243902439027,-0.0419921875,0.0263671875,0.9638671875
200,1.73,IMU1,0.0,0.30487804878048785,-0.30487804878048785,-0.033203125,0.029296875,0.919921875
201,1.74,IMU0,0.7317073170731708,0.5487804878048781,0.1829268292682927,-0.041015625,0.0263671875,0.962890625
202,1.74,IMU1,0.0,0.12195121951219513,-0.30487804878048785,-0.033203125,0.0302734375,0.919921875
203,1.75,IMU0,0.7317073170731708,0.426829268292683,0.1829268292682927,-0.041015625,0.0263671875,0.9638671875
204,1.75,IMU1,0.0,0.0,-0.30487804878048785,-0.033203125,0.0302734375,0.9208984375
205,1.76,IMU0,0.7317073170731708,0.48780487804878053,0.24390243902439027,-0.0400390625,0.02734375,0.9619140625
206,1.76,IMU1,0.0,0.06097560975609757,-0.30487804878048785,-0.033203125,0.0302734375,0.919921875
207,1.77,IMU0,0.7317073170731708,0.7317073170731708,0.1829268292682927,-0.041015625,0.0263671875,0.9638671875
208,1.77,IMU1,-0.06097560975609757,0.24390243902439027,-0.30487804878048785,-0.033203125,0.029296875,0.919921875
209,1.78,IMU0,0.6707317073170732,0.9756097560975611,0.1829268292682927,-0.0419921875,0.0263671875,0.9619140625
210,1.78,IMU1,-0.06097560975609757,0.5487804878048781,-0.3658536585365854,-0.0341796875,0.0283203125,0.9208984375
211,1.79,IMU0,0.7317073170731708,1.1585365853658538,0.1829268292682927,-0.0419921875,0.0263671875,0.9609375
212,1.79,IMU1,-0.06097560975609757,0.6707317073170732,-0.3658536585365854,-0.0361328125,0.029296875,0.919921875
213,1.8,IMU0,0.6097560975609757,1.2804878048780488,0.1829268292682927,-0.0439453125,0.0263671875,0.9599609375
214,1.8,IMU1,-0.12195121951219513,0.9146341463414634,-0.3658536585365854,-0.03515625,0.02734375,0.9208984375
215,1.81,IMU0,0.6097560975609757,1.2804878048780488,0.1829268292682927,-0.0439453125,0.0263671875,0.9619140625
216,1.81,IMU1,-0.12195121951219513,0.9146341463414634,-0.3658536585365854,-0.03515625,0.029296875,0.9208984375
217,1.82,IMU0,0.6097560975609757,1.0975609756097562,0.1829268292682927,-0.04296875,0.0263671875,0.9638671875
218,1.82,IMU1,-0.12195121951219513,0.7926829268292683,-0.3658536585365854,-0.03515625,0.02734375,0.9208984375
219,1.83,IMU0,0.6707317073170732,0.853658536585366,0.24390243902439027,-0.0419921875,0.0263671875,0.9638671875
220,1.83,IMU1,0.0,0.48780487804878053,-0.30487804878048785,-0.0341796875,0.0283203125,0.9228515625
221,1.84,IMU0,0.7317073170731708,0.6097560975609757,0.24390243902439027,-0.0419921875,0.02734375,0.9638671875
222,1.84,IMU1,0.0,0.1829268292682927,-0.30487804878048785,-0.0341796875,0.0283203125,0.9208984375
223,1.85,IMU0,0.7317073170731708,0.426829268292683,0.1829268292682927,-0.041015625,0.0263671875,0.96484375
224,1.85,IMU1,0.06097560975609757,0.0,-0.30487804878048785,-0.033203125,0.0283203125,0.9228515625
225,1.86,IMU0,0.7317073170731708,0.426829268292683,0.1829268292682927,-0.0400390625,0.025390625,0.9638671875
226,1.86,IMU1,0.06097560975609757,0.0,-0.30487804878048785,-0.033203125,0.0283203125,0.921875
227,1.87,IMU0,0.7317073170731708,0.6097560975609757,0.1829268292682927,-0.041015625,0.0263671875,0.9638671875
228,1.87,IMU1,0.06097560975609757,0.12195121951219513,-0.30487804878048785,-0.0322265625,0.0283203125,0.9208984375
229,1.88,IMU0,0.7317073170731708,0.7317073170731708,0.1829268292682927,-0.0400390625,0.0263671875,0.9638671875
230,1.88,IMU1,0.06097560975609757,0.30487804878048785,-0.30487804878048785,-0.0341796875,0.0283203125,0.9208984375
231,1.89,IMU0,0.7317073170731708,0.9756097560975611,0.24390243902439027,-0.0400390625,0.0263671875,0.9619140625
232,1.89,IMU1,0.0,0.5487804878048781,-0.3658536585365854,-0.0341796875,0.0283203125,0.921875
233,1.9,IMU0,0.6707317073170732,1.2195121951219514,0.24390243902439027,-0.0400390625,0.0263671875,0.9599609375
234,1.9,IMU1,0.0,0.853658536585366,-0.3658536585365854,-0.0341796875,0.0283203125,0.921875
235,1.91,IMU0,0.6707317073170732,1.524390243902439,0.24390243902439027,-0.041015625,0.0263671875,0.9609375
236,1.91,IMU1,-0.06097560975609757,1.0975609756097562,-0.3658536585365854,-0.0341796875,0.0283203125,0.9208984375
237,1.92,IMU0,0.6097560975609757,1.524390243902439,0.24390243902439027,-0.04296875,0.02734375,0.9609375
238,1.92,IMU1,-0.06097560975609757,1.1585365853658538,-0.3658536585365854,-0.03515625,0.0283203125,0.919921875
239,1.93,IMU0,0.6707317073170732,1.402439024390244,0.24390243902439027,-0.0439453125,0.02734375,0.962890625
240,1.93,IMU1,-0.12195121951219513,1.0365853658536586,-0.30487804878048785,-0.0361328125,0.029296875,0.921875
241,1.94,IMU0,0.6707317073170732,1.0365853658536586,0.1829268292682927,-0.0439453125,0.0263671875,0.9638671875
242,1.94,IMU1,-0.06097560975609757,0.6707317073170732,-0.3658536585365854,-0.0361328125,0.029296875,0.921875
243,1.95,IMU0,0.7317073170731708,0.6707317073170732,0.1829268292682927,-0.04296875,0.0263671875,0.962890625
244,1.95,IMU1,-0.06097560975609757,0.24390243902439027,-0.30487804878048785,-0.03515625,0.0283203125,0.9228515625
245,1.96,IMU0,0.7926829268292683,0.3658536585365854,0.1829268292682927,-0.0419921875,0.0263671875,0.9619140625
246,1.96,IMU1,0.0,-0.06097560975609757,-0.30487804878048785,-0.03515625,0.029296875,0.9208984375
247,1.97,IMU0,0.7926829268292683,0.1829268292682927,0.1829268292682927,-0.041015625,0.0263671875,0.962890625
248,1.97,IMU1,0.06097560975609757,-0.12195121951219513,-0.30487804878048785,-0.0341796875,0.029296875,0.9208984375
249,1.98,IMU0,0.7926829268292683,0.24390243902439027,0.1829268292682927,-0.0400390625,0.02734375,0.9638671875
250,1.98,IMU1,0.06097560975609757,-0.12195121951219513,-0.30487804878048785,-0.033203125,0.0283203125,0.919921875
251,1.99,IMU0,0.7317073170731708,0.426829268292683,0.1829268292682927,-0.0400390625,0.02734375,0.9619140625
252,1.99,IMU1,0.0,0.12195121951219513,-0.3658536585365854,-0.0322265625,0.0283203125,0.919921875
253,2.0,IMU0,0.7317073170731708,0.6707317073170732,0.1829268292682927,-0.0400390625,0.0263671875,0.9609375
254,2.0,IMU1,-0.06097560975609757,0.426829268292683,-0.30487804878048785,-0.0322265625,0.029296875,0.9208984375
255,2.01,IMU0,0.6707317073170732,1.0365853658536586,0.24390243902439027,-0.041015625,0.025390625,0.962890625
256,2.01,IMU1,-0.06097560975609757,0.6707317073170732,-0.30487804878048785,-0.0322265625,0.0283203125,0.9208984375
257,2.02,IMU0,0.6707317073170732,1.2195121951219514,0.1829268292682927,-0.041015625,0.025390625,0.9599609375
258,2.02,IMU1,-0.06097560975609757,0.9146341463414634,-0.3658536585365854,-0.0341796875,0.029296875,0.919921875
259,2.03,IMU0,0.6097560975609757,1.402439024390244,0.1829268292682927,-0.0419921875,0.0263671875,0.958984375
260,2.03,IMU1,-0.06097560975609757,1.0365853658536586,-0.3658536585365854,-0.033203125,0.0283203125,0.9208984375
261,2.04,IMU0,0.6097560975609757,1.4634146341463417,0.1829268292682927,-0.0419921875,0.025390625,0.9609375
262,2.04,IMU1,-0.12195121951219513,1.0975609756097562,-0.30487804878048785,-0.03515625,0.0283203125,0.9208984375
263,2.05,IMU0,0.5487804878048781,1.2804878048780488,0.1829268292682927,-0.0419921875,0.025390625,0.9619140625
264,2.05,IMU1,-0.12195121951219513,0.9146341463414634,-0.3658536585365854,-0.03515625,0.0283203125,0.9208984375
265,2.06,IMU0,0.6097560975609757,0.9756097560975611,0.12195121951219513,-0.04296875,0.025390625,0.962890625
266,2.06,IMU1,-0.06097560975609757,0.6707317073170732,-0.3658536585365854,-0.03515625,0.0283203125,0.921875
267,2.07,IMU0,0.7317073170731708,0.6707317073170732,0.1829268292682927,-0.041015625,0.0263671875,0.9609375
268,2.07,IMU1,-0.06097560975609757,0.30487804878048785,-0.3658536585365854,-0.03515625,0.0283203125,0.921875
269,2.08,IMU0,0.7926829268292683,0.48780487804878053,0.12195121951219513,-0.0419921875,0.0263671875,0.9599609375
270,2.08,IMU1,0.0,0.12195121951219513,-0.30487804878048785,-0.03515625,0.0283203125,0.9208984375
271,2.09,IMU0,0.7926829268292683,0.426829268292683,0.1829268292682927,-0.041015625,0.0263671875,0.958984375
272,2.09,IMU1,0.0,0.06097560975609757,-0.3658536585365854,-0.0341796875,0.029296875,0.921875
273,2.1,IMU0,0.7317073170731708,0.48780487804878053,0.1829268292682927,-0.0400390625,0.02734375,0.958984375
274,2.1,IMU1,0.0,0.12195121951219513,-0.3658536585365854,-0.033203125,0.029296875,0.921875
275,2.11,IMU0,0.7317073170731708,0.6707317073170732,0.1829268292682927,-0.041015625,0.02734375,0.958984375
276,2.11,IMU1,0.0,0.3658536585365854,-0.3658536585365854,-0.033203125,0.029296875,0.9228515625
277,2.12,IMU0,0.6707317073170732,0.9146341463414634,0.1829268292682927,-0.0419921875,0.0263671875,0.9609375
278,2.12,IMU1,-0.06097560975609757,0.6097560975609757,-0.30487804878048785,-0.0341796875,0.0283203125,0.9208984375
279,2.13,IMU0,0.6707317073170732,1.0975609756097562,0.24390243902439027,-0.041015625,0.02734375,0.9599609375
280,2.13,IMU1,0.0,0.7926829268292683,-0.3658536585365854,-0.033203125,0.0283203125,0.919921875
281,2.14,IMU0,0.6707317073170732,1.2195121951219514,0.1829268292682927,-0.0419921875,0.0263671875,0.9599609375
282,2.14,IMU1,-0.06097560975609757,0.9146341463414634,-0.30487804878048785,-0.033203125,0.0283203125,0.9189453125
283,2.15,IMU0,0.7317073170731708,1.2804878048780488,0.24390243902439027,-0.04296875,0.025390625,0.9609375
284,2.15,IMU1,-0.06097560975609757,0.853658536585366,-0.30487804878048785,-0.0341796875,0.0283203125,0.9208984375
285,2.16,IMU0,0.6707317073170732,1.0975609756097562,0.24390243902439027,-0.041015625,0.025390625,0.9609375
286,2.16,IMU1,-0.06097560975609757,0.7317073170731708,-0.30487804878048785,-0.0341796875,0.02734375,0.919921875
287,2.17,IMU0,0.7317073170731708,0.9756097560975611,0.24390243902439027,-0.0419921875,0.025390625,0.9609375
288,2.17,IMU1,0.0,0.6097560975609757,-0.30487804878048785,-0.0341796875,0.0283203125,0.9189453125
289,2.18,IMU0,0.6707317073170732,0.7317073170731708,0.24390243902439027,-0.0419921875,0.0263671875,0.9619140625
290,2.18,IMU1,0.0,0.426829268292683,-0.30487804878048785,-0.0341796875,0.029296875,0.9189453125
291,2.19,IMU0,0.6707317073170732,0.6097560975609757,0.24390243902439027,-0.0419921875,0.025390625,0.9619140625
292,2.19,IMU1,0.0,0.24390243902439027,-0.3658536585365854,-0.0341796875,0.029296875,0.919921875
293,2.2,IMU0,0.7317073170731708,0.48780487804878053,0.1829268292682927,-0.041015625,0.0263671875,0.962890625
294,2.2,IMU1,0.0,0.1829268292682927,-0.30487804878048785,-0.0341796875,0.0283203125,0.9208984375
295,2.21,IMU0,0.7317073170731708,0.5487804878048781,0.24390243902439027,-0.041015625,0.025390625,0.9609375
296,2.21,IMU1,0.0,0.1829268292682927,-0.30487804878048785,-0.033203125,0.029296875,0.919921875
297,2.22,IMU0,0.7317073170731708,0.6707317073170732,0.1829268292682927,-0.041015625,0.025390625,0.9609375
298,2.22,IMU1,0.0,0.30487804878048785,-0.30487804878048785,-0.0341796875,0.029296875,0.9189453125
299,2.23,IMU0,0.6707317073170732,0.853658536585366,0.1829268292682927,-0.041015625,0.0263671875,0.9609375
300,2.23,IMU1,0.0,0.5487804878048781,-0.30487804878048785,-0.033203125,0.029296875,0.919921875
301,2.24,IMU0,0.7317073170731708,1.0365853658536586,0.1829268292682927,-0.041015625,0.02734375,0.9599609375
302,2.24,IMU1,-0.06097560975609757,0.7317073170731708,-0.30487804878048785,-0.033203125,0.029296875,0.9189453125
303,2.25,IMU0,0.6707317073170732,1.0975609756097562,0.24390243902439027,-0.0419921875,0.0263671875,0.9609375
304,2.25,IMU1,-0.06097560975609757,0.7926829268292683,-0.30487804878048785,-0.033203125,0.029296875,0.9189453125
305,2.26,IMU0,0.6707317073170732,1.0975609756097562,0.24390243902439027,-0.0439453125,0.0263671875,0.9599609375
306,2.26,IMU1,-0.06097560975609757,0.7317073170731708,-0.30487804878048785,-0.0341796875,0.0283203125,0.919921875
307,2.27,IMU0,0.6707317073170732,1.0365853658536586,0.24390243902439027,-0.04296875,0.02734375,0.9609375
308,2.27,IMU1,-0.06097560975609757,0.6707317073170732,-0.30487804878048785,-0.03515625,0.0283203125,0.919921875
309,2.28,IMU0,0.7317073170731708,0.853658536585366,0.24390243902439027,-0.0419921875,0.025390625,0.962890625
310,2.28,IMU1,-0.06097560975609757,0.6097560975609757,-0.30487804878048785,-0.03515625,0.02734375,0.9228515625
311,2.29,IMU0,0.6707317073170732,0.6707317073170732,0.1829268292682927,-0.0419921875,0.0263671875,0.9638671875
312,2.29,IMU1,0.0,0.3658536585365854,-0.3658536585365854,-0.03515625,0.0283203125,0.9228515625
313,2.3,IMU0,0.7317073170731708,0.5487804878048781,0.24390243902439027,-0.0419921875,0.0263671875,0.9638671875
314,2.3,IMU1,0.06097560975609757,0.1829268292682927,-0.3658536585365854,-0.0341796875,0.02734375,0.921875
315,2.31,IMU0,0.7317073170731708,0.5487804878048781,0.1829268292682927,-0.0419921875,0.02734375,0.962890625
316,2.31,IMU1,0.06097560975609757,0.1829268292682927,-0.3658536585365854,-0.0341796875,0.0283203125,0.9208984375
317,2.32,IMU0,0.7317073170731708,0.6097560975609757,0.1829268292682927,-0.041015625,0.0263671875,0.9619140625
318,2.32,IMU1,0.0,0.24390243902439027,-0.30487804878048785,-0.033203125,0.0283203125,0.9208984375
319,2.33,IMU0,0.7317073170731708,0.7926829268292683,0.1829268292682927,-0.041015625,0.0263671875,0.9599609375
320,2.33,IMU1,0.0,0.426829268292683,-0.30487804878048785,-0.0341796875,0.029296875,0.9208984375
321,2.34,IMU0,0.7926829268292683,0.853658536585366,0.1829268292682927,-0.041015625,0.0263671875,0.9619140625
322,2.34,IMU1,0.0,0.5487804878048781,-0.3658536585365854,-0.0341796875,0.0283203125,0.9228515625
323,2.35,IMU0,0.7926829268292683,1.2804878048780488,0.1829268292682927,-0.0419921875,0.02734375,0.9638671875
324,2.35,IMU1,0.0,0.9146341463414634,-0.3658536585365854,-0.03515625,0.02734375,0.9228515625
325,2.36,IMU0,0.7926829268292683,1.4634146341463417,0.1829268292682927,-0.0419921875,0.0263671875,0.96484375
326,2.36,IMU1,0.0,1.0365853658536586,-0.3658536585365854,-0.0361328125,0.02734375,0.923828125
327,2.37,IMU0,0.853658536585366,1.524390243902439,0.12195121951219513,-0.0419921875,0.02734375,0.96484375
328,2.37,IMU1,0.06097560975609757,1.2195121951219514,-0.3658536585365854,-0.03515625,0.02734375,0.921875
329,2.38,IMU0,0.7926829268292683,1.6463414634146343,0.12195121951219513,-0.041015625,0.0263671875,0.9609375
330,2.38,IMU1,0.06097560975609757,1.3414634146341464,-0.3658536585365854,-0.033203125,0.02734375,0.9208984375
331,2.39,IMU0,0.7926829268292683,1.6463414634146343,0.12195121951219513,-0.0419921875,0.02734375,0.9609375
332,2.39,IMU1,0.06097560975609757,1.3414634146341464,-0.3658536585365854,-0.03515625,0.0283203125,0.9189453125
333,2.4,IMU0,0.7926829268292683,1.4634146341463417,0.12195121951219513,-0.04296875,0.02734375,0.962890625
334,2.4,IMU1,0.06097560975609757,1.0975609756097562,-0.3658536585365854,-0.0361328125,0.0283203125,0.9208984375
335,2.41,IMU0,0.853658536585366,0.9756097560975611,0.12195121951219513,-0.0419921875,0.0263671875,0.96484375
336,2.41,IMU1,0.12195121951219513,0.6097560975609757,-0.426829268292683,-0.03515625,0.0263671875,0.923828125
337,2.42,IMU0,0.9146341463414634,0.48780487804878053,0.12195121951219513,-0.0400390625,0.0263671875,0.9619140625
338,2.42,IMU1,0.1829268292682927,0.12195121951219513,-0.426829268292683,-0.033203125,0.0263671875,0.9208984375
339,2.43,IMU0,0.853658536585366,0.426829268292683,0.12195121951219513,-0.0390625,0.02734375,0.9599609375
340,2.43,IMU1,0.12195121951219513,0.12195121951219513,-0.3658536585365854,-0.0322265625,0.0283203125,0.921875
341,2.44,IMU0,0.853658536585366,0.5487804878048781,0.12195121951219513,-0.041015625,0.0263671875,0.9619140625
342,2.44,IMU1,0.1829268292682927,0.30487804878048785,-0.3658536585365854,-0.0341796875,0.0283203125,0.9228515625
343,2.45,IMU0,0.7926829268292683,0.9756097560975611,0.1829268292682927,-0.0419921875,0.0263671875,0.95703125
344,2.45,IMU1,0.06097560975609757,0.7317073170731708,-0.30487804878048785,-0.03515625,0.02734375,0.9189453125
345,2.46,IMU0,0.6707317073170732,1.707317073170732,0.1829268292682927,-0.0439453125,0.0283203125,0.9560546875
346,2.46,IMU1,-0.06097560975609757,1.3414634146341464,-0.30487804878048785,-0.03515625,0.029296875,0.916015625
347,2.47,IMU0,0.6097560975609757,2.073170731707317,0.1829268292682927,-0.046875,0.02734375,0.9609375
348,2.47,IMU1,-0.12195121951219513,1.707317073170732,-0.3658536585365854,-0.0380859375,0.0283203125,0.919921875
349,2.48,IMU0,0.6097560975609757,1.8902439024390245,0.1829268292682927,-0.048828125,0.0263671875,0.9609375
350,2.48,IMU1,-0.12195121951219513,1.5853658536585367,-0.3658536585365854,-0.0400390625,0.02734375,0.91796875
351,2.49,IMU0,0.6707317073170732,1.524390243902439,0.24390243902439027,-0.046875,0.0263671875,0.9599609375
352,2.49,IMU1,-0.12195121951219513,1.2195121951219514,-0.3658536585365854,-0.0380859375,0.0283203125,0.9208984375
353,2.5,IMU0,0.7317073170731708,1.0365853658536586,0.1829268292682927,-0.0439453125,0.0263671875,0.9638671875
354,2.5,IMU1,-0.06097560975609757,0.6707317073170732,-0.3658536585365854,-0.037109375,0.0283203125,0.9228515625
355,2.51,IMU0,0.7926829268292683,0.30487804878048785,0.1829268292682927,-0.04296875,0.0283203125,0.9638671875
356,2.51,IMU1,0.06097560975609757,0.0,-0.3658536585365854,-0.03515625,0.029296875,0.9228515625
357,2.52,IMU0,0.853658536585366,-0.1829268292682927,0.1829268292682927,-0.0400390625,0.029296875,0.9609375
358,2.52,IMU1,0.06097560975609757,-0.5487804878048781,-0.30487804878048785,-0.033203125,0.029296875,0.9189453125
359,2.53,IMU0,0.853658536585366,-0.3658536585365854,0.1829268292682927,-0.0380859375,0.0283203125,0.9619140625
360,2.53,IMU1,0.12195121951219513,-0.7317073170731708,-0.30487804878048785,-0.03125,0.03125,0.921875
361,2.54,IMU0,0.853658536585366,-0.30487804878048785,0.1829268292682927,-0.0400390625,0.02734375,0.9619140625
362,2.54,IMU1,0.06097560975609757,-0.6097560975609757,-0.30487804878048785,-0.0302734375,0.03125,0.9208984375
363,2.55,IMU0,0.7926829268292683,0.06097560975609757,0.1829268292682927,-0.0400390625,0.02734375,0.958984375
364,2.55,IMU1,0.06097560975609757,-0.30487804878048785,-0.30487804878048785,-0.03125,0.029296875,0.919921875
365,2.56,IMU0,0.7317073170731708,0.6707317073170732,0.12195121951219513,-0.041015625,0.0263671875,0.9599609375
366,2.56,IMU1,-0.06097560975609757,0.30487804878048785,-0.30487804878048785,-0.03125,0.029296875,0.919921875
367,2.57,IMU0,0.6097560975609757,1.4634146341463417,0.24390243902439027,-0.04296875,0.0263671875,0.9619140625
368,2.57,IMU1,-0.12195121951219513,1.1585365853658538,-0.30487804878048785,-0.0341796875,0.029296875,0.9208984375
369,2.58,IMU0,0.5487804878048781,2.073170731707317,0.24390243902439027,-0.04296875,0.0263671875,0.9609375
370,2.58,IMU1,-0.1829268292682927,1.7682926829268295,-0.30487804878048785,-0.0361328125,0.0283203125,0.9208984375
371,2.59,IMU0,0.48780487804878053,2.439024390243903,0.24390243902439027,-0.0458984375,0.025390625,0.9619140625
372,2.59,IMU1,-0.1829268292682927,2.073170731707317,-0.30487804878048785,-0.037109375,0.0283203125,0.9189453125
373,2.6,IMU0,0.48780487804878053,2.378048780487805,0.24390243902439027,-0.044921875,0.025390625,0.9638671875
374,2.6,IMU1,-0.1829268292682927,2.0121951219512195,-0.30487804878048785,-0.0380859375,0.029296875,0.919921875
375,2.61,IMU0,0.5487804878048781,1.829268292682927,0.1829268292682927,-0.044921875,0.0263671875,0.9658203125
376,2.61,IMU1,-0.1829268292682927,1.4634146341463417,-0.30487804878048785,-0.0390625,0.029296875,0.9208984375
377,2.62,IMU0,0.6707317073170732,0.9756097560975611,0.1829268292682927,-0.0439453125,0.02734375,0.9638671875
378,2.62,IMU1,-0.06097560975609757,0.6097560975609757,-0.30487804878048785,-0.0380859375,0.029296875,0.921875
379,2.63,IMU0,0.7926829268292683,0.12195121951219513,0.1829268292682927,-0.04296875,0.0283203125,0.9638671875
380,2.63,IMU1,0.0,-0.24390243902439027,-0.30487804878048785,-0.0361328125,0.029296875,0.9228515625
381,2.64,IMU0,0.853658536585366,-0.6097560975609757,0.1829268292682927,-0.0419921875,0.0283203125,0.9619140625
382,2.64,IMU1,0.06097560975609757,-0.9756097560975611,-0.30487804878048785,-0.0341796875,0.029296875,0.921875
383,2.65,IMU0,0.9146341463414634,-0.9756097560975611,0.1829268292682927,-0.041015625,0.0283203125,0.9609375
384,2.65,IMU1,0.12195121951219513,-1.3414634146341464,-0.30487804878048785,-0.03125,0.029296875,0.919921875
385,2.66,IMU0,0.853658536585366,-0.6707317073170732,0.1829268292682927,-0.0400390625,0.02734375,0.9599609375
386,2.66,IMU1,0.12195121951219513,-1.0365853658536586,-0.30487804878048785,-0.03125,0.029296875,0.91796875
387,2.67,IMU0,0.7926829268292683,0.12195121951219513,0.1829268292682927,-0.0400390625,0.0283203125,0.9609375
388,2.67,IMU1,0.06097560975609757,-0.24390243902439027,-0.30487804878048785,-0.0322265625,0.029296875,0.919921875
389,2.68,IMU0,0.6707317073170732,1.0365853658536586,0.1829268292682927,-0.0419921875,0.02734375,0.9609375
390,2.68,IMU1,0.0,0.6707317073170732,-0.30487804878048785,-0.033203125,0.029296875,0.919921875
391,2.69,IMU0,0.6097560975609757,1.829268292682927,0.24390243902439027,-0.04296875,0.02734375,0.9609375
392,2.69,IMU1,-0.12195121951219513,1.524390243902439,-0.3658536585365854,-0.0341796875,0.029296875,0.921875
393,2.7,IMU0,0.5487804878048781,2.439024390243903,0.24390243902439027,-0.044921875,0.02734375,0.9609375
394,2.7,IMU1,-0.1829268292682927,2.0121951219512195,-0.30487804878048785,-0.0361328125,0.0283203125,0.919921875
395,2.71,IMU0,0.5487804878048781,2.5,0.1829268292682927,-0.0458984375,0.025390625,0.9619140625
396,2.71,IMU1,-0.1829268292682927,2.073170731707317,-0.30487804878048785,-0.0380859375,0.0283203125,0.9208984375
397,2.72,IMU0,0.6097560975609757,2.1341463414634148,0.1829268292682927,-0.0458984375,0.0263671875,0.9638671875
398,2.72,IMU1,-0.1829268292682927,1.7682926829268295,-0.30487804878048785,-0.0380859375,0.0283203125,0.9228515625
399,2.73,IMU0,0.6707317073170732,1.4634146341463417,0.1829268292682927,-0.0458984375,0.0263671875,0.9658203125
400,2.73,IMU1,-0.12195121951219513,1.0975609756097562,-0.30487804878048785,-0.0380859375,0.0283203125,0.9228515625
401,2.74,IMU0,0.7317073170731708,0.6707317073170732,0.1829268292682927,-0.044921875,0.0263671875,0.96484375
402,2.74,IMU1,0.0,0.24390243902439027,-0.30487804878048785,-0.0361328125,0.0283203125,0.921875
403,2.75,IMU0,0.7926829268292683,-0.1829268292682927,0.1829268292682927,-0.0419921875,0.02734375,0.9638671875
404,2.75,IMU1,0.06097560975609757,-0.48780487804878053,-0.30487804878048785,-0.03515625,0.029296875,0.9208984375
405,2.76,IMU0,0.853658536585366,-0.6707317073170732,0.1829268292682927,-0.041015625,0.0263671875,0.962890625
406,2.76,IMU1,0.12195121951219513,-1.0365853658536586,-0.30487804878048785,-0.0322265625,0.0283203125,0.9208984375
407,2.77,IMU0,0.853658536585366,-0.7317073170731708,0.1829268292682927,-0.0390625,0.02734375,0.962890625
408,2.77,IMU1,0.12195121951219513,-1.0975609756097562,-0.3658536585365854,-0.0302734375,0.0283203125,0.9208984375
409,2.78,IMU0,0.853658536585366,-0.30487804878048785,0.1829268292682927,-0.0390625,0.0283203125,0.9599609375
410,2.78,IMU1,0.06097560975609757,-0.6097560975609757,-0.3658536585365854,-0.029296875,0.029296875,0.9208984375
411,2.79,IMU0,0.7317073170731708,0.426829268292683,0.24390243902439027,-0.0400390625,0.02734375,0.958984375
412,2.79,IMU1,0.0,0.1829268292682927,-0.3658536585365854,-0.03125,0.0283203125,0.9208984375
413,2.8,IMU0,0.6707317073170732,1.2804878048780488,0.24390243902439027,-0.041015625,0.025390625,0.9599609375
414,2.8,IMU1,-0.12195121951219513,0.9756097560975611,-0.3658536585365854,-0.033203125,0.0283203125,0.9208984375
415,2.81,IMU0,0.5487804878048781,2.0121951219512195,0.30487804878048785,-0.04296875,0.025390625,0.9609375
416,2.81,IMU1,-0.12195121951219513,1.6463414634146343,-0.30487804878048785,-0.0361328125,0.0283203125,0.9189453125
417,2.82,IMU0,0.5487804878048781,2.439024390243903,0.24390243902439027,-0.0439453125,0.0263671875,0.9619140625
418,2.82,IMU1,-0.1829268292682927,2.073170731707317,-0.30487804878048785,-0.037109375,0.02734375,0.919921875
419,2.83,IMU0,0.5487804878048781,2.378048780487805,0.24390243902439027,-0.0458984375,0.02734375,0.962890625
420,2.83,IMU1,-0.1829268292682927,1.9512195121951221,-0.30487804878048785,-0.0390625,0.02734375,0.9208984375
421,2.84,IMU0,0.5487804878048781,1.829268292682927,0.1829268292682927,-0.044921875,0.0263671875,0.96484375
422,2.84,IMU1,-0.12195121951219513,1.402439024390244,-0.3658536585365854,-0.0390625,0.029296875,0.921875
423,2.85,IMU0,0.6707317073170732,1.0975609756097562,0.1829268292682927,-0.044921875,0.0263671875,0.9638671875
424,2.85,IMU1,0.0,0.6707317073170732,-0.3658536585365854,-0.0380859375,0.029296875,0.919921875
425,2.86,IMU0,0.7926829268292683,0.30487804878048785,0.12195121951219513,-0.0439453125,0.0263671875,0.962890625
426,2.86,IMU1,0.06097560975609757,-0.12195121951219513,-0.3658536585365854,-0.037109375,0.029296875,0.9228515625
427,2.87,IMU0,0.9146341463414634,-0.30487804878048785,0.1829268292682927,-0.04296875,0.0263671875,0.9619140625
428,2.87,IMU1,0.12195121951219513,-0.7317073170731708,-0.3658536585365854,-0.0341796875,0.029296875,0.921875
429,2.88,IMU0,0.9146341463414634,-0.6097560975609757,0.12195121951219513,-0.0419921875,0.025390625,0.9609375
430,2.88,IMU1,0.12195121951219513,-1.0365853658536586,-0.3658536585365854,-0.033203125,0.029296875,0.919921875
431,2.89,IMU0,0.853658536585366,-0.48780487804878053,0.1829268292682927,-0.0400390625,0.0263671875,0.9599609375
432,2.89,IMU1,0.06097560975609757,-0.853658536585366,-0.3658536585365854,-0.0322265625,0.029296875,0.9208984375
433,2.9,IMU0,0.7926829268292683,0.0,0.1829268292682927,-0.0400390625,0.02734375,0.9580078125
434,2.9,IMU1,0.06097560975609757,-0.30487804878048785,-0.3658536585365854,-0.0322265625,0.029296875,0.9189453125
435,2.91,IMU0,0.6707317073170732,0.7317073170731708,0.24390243902439027,-0.0400390625,0.0283203125,0.958984375
436,2.91,IMU1,0.0,0.426829268292683,-0.3658536585365854,-0.033203125,0.0283203125,0.9189453125
437,2.92,IMU0,0.6097560975609757,1.4634146341463417,0.1829268292682927,-0.041015625,0.0283203125,0.9609375
438,2.92,IMU1,-0.06097560975609757,1.1585365853658538,-0.30487804878048785,-0.0341796875,0.0283203125,0.91796875
439,2.93,IMU0,0.6097560975609757,2.0121951219512195,0.1829268292682927,-0.0419921875,0.029296875,0.9609375
440,2.93,IMU1,-0.12195121951219513,1.6463414634146343,-0.3658536585365854,-0.0341796875,0.02734375,0.91796875
441,2.94,IMU0,0.5487804878048781,2.1951219512195124,0.24390243902439027,-0.04296875,0.02734375,0.9609375
442,2.94,IMU1,-0.12195121951219513,1.829268292682927,-0.3658536585365854,-0.03515625,0.0283203125,0.9208984375
443,2.95,IMU0,0.5487804878048781,2.0121951219512195,0.1829268292682927,-0.04296875,0.025390625,0.962890625
444,2.95,IMU1,-0.12195121951219513,1.6463414634146343,-0.3658536585365854,-0.03515625,0.0283203125,0.9228515625
445,2.96,IMU0,0.6097560975609757,1.524390243902439,0.24390243902439027,-0.0439453125,0.0263671875,0.962890625
446,2.96,IMU1,-0.06097560975609757,1.0975609756097562,-0.30487804878048785,-0.03515625,0.029296875,0.9228515625
447,2.97,IMU0,0.7317073170731708,0.7926829268292683,0.24390243902439027,-0.0439453125,0.0263671875,0.962890625
448,2.97,IMU1,0.0,0.48780487804878053,-0.30487804878048785,-0.03515625,0.029296875,0.9228515625
449,2.98,IMU0,0.7926829268292683,0.1829268292682927,0.24390243902439027,-0.0439453125,0.0263671875,0.962890625
450,2.98,IMU1,0.12195121951219513,-0.1829268292682927,-0.3658536585365854,-0.0341796875,0.0302734375,0.921875
451,2.99,IMU0,0.7926829268292683,-0.1829268292682927,0.1829268292682927,-0.041015625,0.0263671875,0.9619140625
452,2.99,IMU1,0.12195121951219513,-0.5487804878048781,-0.3658536585365854,-0.03515625,0.0302734375,0.9208984375
453,3.0,IMU0,0.853658536585366,-0.30487804878048785,0.1829268292682927,-0.0390625,0.02734375,0.9619140625
454,3.0,IMU1,0.12195121951219513,-0.6707317073170732,-0.3658536585365854,-0.0341796875,0.029296875,0.921875
455,3.01,IMU0,0.7926829268292683,-0.06097560975609757,0.1829268292682927,-0.0400390625,0.02734375,0.9609375
456,3.01,IMU1,0.06097560975609757,-0.3658536585365854,-0.3658536585365854,-0.0341796875,0.0283203125,0.9208984375
457,3.02,IMU0,0.7317073170731708,0.426829268292683,0.1829268292682927,-0.041015625,0.02734375,0.9609375
458,3.02,IMU1,0.06097560975609757,0.12195121951219513,-0.3658536585365854,-0.033203125,0.0302734375,0.9189453125
459,3.03,IMU0,0.6707317073170732,1.0365853658536586,0.1829268292682927,-0.04296875,0.0283203125,0.9599609375
460,3.03,IMU1,0.0,0.6707317073170732,-0.3658536585365854,-0.0341796875,0.0302734375,0.91796875
461,3.04,IMU0,0.6097560975609757,1.524390243902439,0.1829268292682927,-0.0419921875,0.02734375,0.9609375
462,3.04,IMU1,-0.12195121951219513,1.0975609756097562,-0.3658536585365854,-0.03515625,0.029296875,0.9189453125
463,3.05,IMU0,0.6097560975609757,1.7682926829268295,0.24390243902439027,-0.04296875,0.0263671875,0.962890625
464,3.05,IMU1,-0.1829268292682927,1.3414634146341464,-0.3658536585365854,-0.03515625,0.029296875,0.919921875
465,3.06,IMU0,0.5487804878048781,1.7682926829268295,0.24390243902439027,-0.0439453125,0.02734375,0.9619140625
466,3.06,IMU1,-0.12195121951219513,1.3414634146341464,-0.3658536585365854,-0.03515625,0.0283203125,0.919921875
467,3.07,IMU0,0.5487804878048781,1.524390243902439,0.1829268292682927,-0.0439453125,0.02734375,0.962890625
468,3.07,IMU1,-0.12195121951219513,1.0975609756097562,-0.3658536585365854,-0.0361328125,0.0283203125,0.921875
469,3.08,IMU0,0.6097560975609757,1.0975609756097562,0.1829268292682927,-0.0439453125,0.0263671875,0.962890625
470,3.08,IMU1,-0.06097560975609757,0.6707317073170732,-0.3658536585365854,-0.0361328125,0.0283203125,0.921875
471,3.09,IMU0,0.7317073170731708,0.6707317073170732,0.1829268292682927,-0.0439453125,0.025390625,0.9619140625
472,3.09,IMU1,-0.06097560975609757,0.24390243902439027,-0.30487804878048785,-0.03515625,0.0283203125,0.9208984375
473,3.1,IMU0,0.7317073170731708,0.24390243902439027,0.1829268292682927,-0.04296875,0.0263671875,0.962890625
474,3.1,IMU1,0.0,-0.12195121951219513,-0.3658536585365854,-0.03515625,0.0302734375,0.921875
475,3.11,IMU0,0.7926829268292683,0.12195121951219513,0.1829268292682927,-0.0419921875,0.02734375,0.9638671875
476,3.11,IMU1,0.0,-0.30487804878048785,-0.30487804878048785,-0.0361328125,0.029296875,0.921875
477,3.12,IMU0,0.7926829268292683,0.12195121951219513,0.1829268292682927,-0.04296875,0.02734375,0.9638671875
478,3.12,IMU1,0.0,-0.1829268292682927,-0.30487804878048785,-0.03515625,0.0283203125,0.919921875
479,3.13,IMU0,0.7317073170731708,0.426829268292683,0.1829268292682927,-0.04296875,0.02734375,0.96484375
480,3.13,IMU1,0.0,0.12195121951219513,-0.30487804878048785,-0.03515625,0.0283203125,0.919921875
481,3.14,IMU0,0.6707317073170732,0.7926829268292683,0.1829268292682927,-0.04296875,0.02734375,0.9609375
482,3.14,IMU1,-0.06097560975609757,0.48780487804878053,-0.30487804878048785,-0.03515625,0.0283203125,0.9189453125
483,3.15,IMU0,0.6097560975609757,1.2195121951219514,0.24390243902439027,-0.04296875,0.0263671875,0.9619140625
484,3.15,IMU1,-0.06097560975609757,0.7926829268292683,-0.3658536585365854,-0.03515625,0.0283203125,0.9189453125
485,3.16,IMU0,0.6097560975609757,1.4634146341463417,0.1829268292682927,-0.04296875,0.0263671875,0.9619140625
486,3.16,IMU1,-0.12195121951219513,1.0975609756097562,-0.30487804878048785,-0.0361328125,0.0283203125,0.9208984375
487,3.17,IMU0,0.6097560975609757,1.4634146341463417,0.1829268292682927,-0.04296875,0.02734375,0.9609375
488,3.17,IMU1,-0.06097560975609757,1.1585365853658538,-0.30487804878048785,-0.0361328125,0.029296875,0.921875
489,3.18,IMU0,0.6097560975609757,1.3414634146341464,0.1829268292682927,-0.04296875,0.0263671875,0.962890625
490,3.18,IMU1,-0.06097560975609757,0.9756097560975611,-0.30487804878048785,-0.0361328125,0.0283203125,0.919921875
491,3.19,IMU0,0.6707317073170732,1.0975609756097562,0.1829268292682927,-0.04296875,0.0263671875,0.9619140625
492,3.19,IMU1,0.0,0.6707317073170732,-0.3658536585365854,-0.0361328125,0.0283203125,0.919921875
493,3.2,IMU0,0.7317073170731708,0.7926829268292683,0.1829268292682927,-0.04296875,0.02734375,0.9619140625
494,3.2,IMU1,-0.06097560975609757,0.3658536585365854,-0.3658536585365854,-0.0361328125,0.029296875,0.921875
495,3.21,IMU0,0.7317073170731708,0.5487804878048781,0.12195121951219513,-0.04296875,0.0263671875,0.9609375
496,3.21,IMU1,0.0,0.12195121951219513,-0.30487804878048785,-0.037109375,0.029296875,0.9189453125
497,3.22,IMU0,0.7926829268292683,0.426829268292683,0.1829268292682927,-0.04296875,0.02734375,0.9599609375
498,3.22,IMU1,0.0,0.0,-0.3658536585365854,-0.0361328125,0.029296875,0.9208984375
499,3.23,IMU0,0.7926829268292683,0.426829268292683,0.24390243902439027,-0.0419921875,0.0283203125,0.9609375
500,3.23,IMU1,0.06097560975609757,0.0,-0.3658536585365854,-0.0341796875,0.029296875,0.919921875
501,3.24,IMU0,0.7317073170731708,0.5487804878048781,0.24390243902439027,-0.0419921875,0.0283203125,0.9609375
502,3.24,IMU1,0.0,0.1829268292682927,-0.30487804878048785,-0.0341796875,0.0283203125,0.919921875
503,3.25,IMU0,0.7317073170731708,0.853658536585366,0.24390243902439027,-0.0419921875,0.02734375,0.9619140625
504,3.25,IMU1,0.0,0.48780487804878053,-0.30487804878048785,-0.0341796875,0.0283203125,0.919921875
505,3.26,IMU0,0.6707317073170732,1.0975609756097562,0.24390243902439027,-0.0419921875,0.025390625,0.9609375
506,3.26,IMU1,-0.06097560975609757,0.7317073170731708,-0.30487804878048785,-0.03515625,0.0283203125,0.919921875
507,3.27,IMU0,0.6707317073170732,1.2195121951219514,0.24390243902439027,-0.041015625,0.0263671875,0.9619140625
508,3.27,IMU1,-0.06097560975609757,0.853658536585366,-0.30487804878048785,-0.033203125,0.029296875,0.91796875
509,3.28,IMU0,0.6707317073170732,1.2804878048780488,0.24390243902439027,-0.0419921875,0.0263671875,0.9619140625
510,3.28,IMU1,-0.06097560975609757,0.9146341463414634,-0.3658536585365854,-0.033203125,0.0302734375,0.9208984375
511,3.29,IMU0,0.6707317073170732,1.1585365853658538,0.1829268292682927,-0.04296875,0.0263671875,0.962890625
512,3.29,IMU1,-0.06097560975609757,0.853658536585366,-0.3658536585365854,-0.033203125,0.029296875,0.9208984375
513,3.3,IMU0,0.7317073170731708,0.9756097560975611,0.1829268292682927,-0.0419921875,0.02734375,0.962890625
514,3.3,IMU1,-0.06097560975609757,0.6097560975609757,-0.3658536585365854,-0.0341796875,0.029296875,0.9208984375
515,3.31,IMU0,0.6707317073170732,0.7317073170731708,0.1829268292682927,-0.041015625,0.02734375,0.962890625
516,3.31,IMU1,-0.06097560975609757,0.426829268292683,-0.3658536585365854,-0.03515625,0.0302734375,0.9208984375
517,3.32,IMU0,0.7317073170731708,0.5487804878048781,0.1829268292682927,-0.0419921875,0.02734375,0.9619140625
518,3.32,IMU1,-0.06097560975609757,0.1829268292682927,-0.3658536585365854,-0.03515625,0.029296875,0.921875
519,3.33,IMU0,0.7317073170731708,0.48780487804878053,0.1829268292682927,-0.041015625,0.0263671875,0.9619140625
520,3.33,IMU1,0.0,0.1829268292682927,-0.3658536585365854,-0.0341796875,0.029296875,0.921875
521,3.34,IMU0,0.6707317073170732,0.5487804878048781,0.1829268292682927,-0.041015625,0.0263671875,0.962890625
522,3.34,IMU1,0.0,0.12195121951219513,-0.30487804878048785,-0.03515625,0.0302734375,0.921875
523,3.35,IMU0,0.7317073170731708,0.7317073170731708,0.1829268292682927,-0.0419921875,0.0263671875,0.962890625
524,3.35,IMU1,0.0,0.24390243902439027,-0.3658536585365854,-0.0341796875,0.0283203125,0.9208984375
525,3.36,IMU0,0.7317073170731708,0.9146341463414634,0.1829268292682927,-0.04296875,0.025390625,0.9619140625
526,3.36,IMU1,0.0,0.426829268292683,-0.3658536585365854,-0.0341796875,0.029296875,0.9189453125
527,3.37,IMU0,0.7317073170731708,1.0365853658536586,0.24390243902439027,-0.0419921875,0.025390625,0.9619140625
528,3.37,IMU1,-0.06097560975609757,0.5487804878048781,-0.3658536585365854,-0.03515625,0.0283203125,0.9208984375
529,3.38,IMU0,0.7317073170731708,1.0365853658536586,0.24390243902439027,-0.0419921875,0.025390625,0.9619140625
530,3.38,IMU1,-0.06097560975609757,0.7317073170731708,-0.3658536585365854,-0.03515625,0.029296875,0.919921875
531,3.39,IMU0,0.6707317073170732,1.1585365853658538,0.1829268292682927,-0.0419921875,0.0263671875,0.9609375
532,3.39,IMU1,-0.06097560975609757,0.7317073170731708,-0.3658536585365854,-0.03515625,0.0302734375,0.9208984375
533,3.4,IMU0,0.6707317073170732,1.0365853658536586,0.1829268292682927,-0.04296875,0.0263671875,0.9609375
534,3.4,IMU1,-0.06097560975609757,0.6707317073170732,-0.3658536585365854,-0.0361328125,0.0302734375,0.919921875
535,3.41,IMU0,0.6707317073170732,0.9146341463414634,0.1829268292682927,-0.04296875,0.025390625,0.9609375
536,3.41,IMU1,0.0,0.6097560975609757,-0.30487804878048785,-0.03515625,0.029296875,0.9189453125
537,3.42,IMU0,0.7317073170731708,0.7926829268292683,0.1829268292682927,-0.04296875,0.025390625,0.9609375
538,3.42,IMU1,0.0,0.426829268292683,-0.3658536585365854,-0.0341796875,0.0302734375,0.9189453125
539,3.43,IMU0,0.7317073170731708,0.7317073170731708,0.12195121951219513,-0.0419921875,0.0263671875,0.9619140625
540,3.43,IMU1,0.0,0.3658536585365854,-0.3658536585365854,-0.03515625,0.0302734375,0.9189453125
541,3.44,IMU0,0.7317073170731708,0.6707317073170732,0.24390243902439027,-0.0419921875,0.0263671875,0.9609375
542,3.44,IMU1,-0.06097560975609757,0.30487804878048785,-0.3658536585365854,-0.03515625,0.0302734375,0.919921875
543,3.45,IMU0,0.7317073170731708,0.7317073170731708,0.24390243902439027,-0.0419921875,0.0263671875,0.9599609375
544,3.45,IMU1,-0.06097560975609757,0.3658536585365854,-0.30487804878048785,-0.03515625,0.0302734375,0.919921875
545,3.46,IMU0,0.7317073170731708,0.7926829268292683,0.1829268292682927,-0.0419921875,0.02734375,0.9619140625
546,3.46,IMU1,0.0,0.426829268292683,-0.3658536585365854,-0.03515625,0.029296875,0.9189453125
547,3.47,IMU0,0.7317073170731708,0.9146341463414634,0.1829268292682927,-0.041015625,0.02734375,0.962890625
548,3.47,IMU1,0.0,0.5487804878048781,-0.3658536585365854,-0.03515625,0.029296875,0.9189453125
549,3.48,IMU0,0.7317073170731708,1.0365853658536586,0.1829268292682927,-0.041015625,0.0263671875,0.9619140625
550,3.48,IMU1,-0.06097560975609757,0.5487804878048781,-0.3658536585365854,-0.03515625,0.029296875,0.919921875
551,3.49,IMU0,0.6707317073170732,1.0975609756097562,0.12195121951219513,-0.041015625,0.0263671875,0.9609375
552,3.49,IMU1,-0.06097560975609757,0.6707317073170732,-0.3658536585365854,-0.03515625,0.029296875,0.919921875
553,3.5,IMU0,0.7317073170731708,1.0365853658536586,0.12195121951219513,-0.0419921875,0.0263671875,0.9599609375
554,3.5,IMU1,-0.06097560975609757,0.6097560975609757,-0.3658536585365854,-0.03515625,0.029296875,0.919921875
555,3.51,IMU0,0.7317073170731708,0.9146341463414634,0.12195121951219513,-0.0419921875,0.0263671875,0.9599609375
556,3.51,IMU1,-0.06097560975609757,0.5487804878048781,-0.3658536585365854,-0.033203125,0.0302734375,0.919921875
557,3.52,IMU0,0.7317073170731708,0.853658536585366,0.1829268292682927,-0.04296875,0.0263671875,0.9609375
558,3.52,IMU1,-0.06097560975609757,0.48780487804878053,-0.3658536585365854,-0.03515625,0.03125,0.919921875
559,3.53,IMU0,0.7317073170731708,0.7926829268292683,0.1829268292682927,-0.0419921875,0.0263671875,0.9638671875
560,3.53,IMU1,-0.06097560975609757,0.426829268292683,-0.3658536585365854,-0.0341796875,0.029296875,0.921875
561,3.54,IMU0,0.7317073170731708,0.7317073170731708,0.1829268292682927,-0.04296875,0.0263671875,0.962890625
562,3.54,IMU1,0.0,0.3658536585365854,-0.3658536585365854,-0.03515625,0.029296875,0.921875
563,3.55,IMU0,0.7317073170731708,0.7317073170731708,0.1829268292682927,-0.04296875,0.0263671875,0.962890625
564,3.55,IMU1,-0.06097560975609757,0.3658536585365854,-0.3658536585365854,-0.03515625,0.0283203125,0.921875
565,3.56,IMU0,0.6707317073170732,0.7926829268292683,0.1829268292682927,-0.0419921875,0.02734375,0.9638671875
566,3.56,IMU1,-0.06097560975609757,0.426829268292683,-0.3658536585365854,-0.03515625,0.0283203125,0.921875
567,3.57,IMU0,0.6707317073170732,0.853658536585366,0.1829268292682927,-0.041015625,0.02734375,0.9638671875
568,3.57,IMU1,-0.06097560975609757,0.48780487804878053,-0.3658536585365854,-0.0341796875,0.0283203125,0.9208984375
569,3.58,IMU0,0.7317073170731708,0.9756097560975611,0.24390243902439027,-0.0419921875,0.0263671875,0.9638671875
570,3.58,IMU1,-0.06097560975609757,0.5487804878048781,-0.3658536585365854,-0.0341796875,0.0283203125,0.9189453125
571,3.59,IMU0,0.7317073170731708,1.0365853658536586,0.1829268292682927,-0.04296875,0.02734375,0.9619140625
572,3.59,IMU1,-0.06097560975609757,0.6097560975609757,-0.426829268292683,-0.0341796875,0.029296875,0.9189453125
573,3.6,IMU0,0.6707317073170732,1.0365853658536586,0.1829268292682927,-0.04296875,0.0263671875,0.9609375
574,3.6,IMU1,0.0,0.6707317073170732,-0.3658536585365854,-0.0361328125,0.0302734375,0.919921875
575,3.61,IMU0,0.7317073170731708,1.0365853658536586,0.1829268292682927,-0.04296875,0.0263671875,0.9619140625
576,3.61,IMU1,0.0,0.6707317073170732,-0.426829268292683,-0.037109375,0.029296875,0.9208984375
577,3.62,IMU0,0.7317073170731708,0.9146341463414634,0.24390243902439027,-0.04296875,0.0263671875,0.9619140625
578,3.62,IMU1,0.0,0.5487804878048781,-0.3658536585365854,-0.03515625,0.0302734375,0.919921875
579,3.63,IMU0,0.7317073170731708,0.7926829268292683,0.24390243902439027,-0.04296875,0.02734375,0.962890625
580,3.63,IMU1,0.0,0.426829268292683,-0.3658536585365854,-0.03515625,0.029296875,0.9189453125
581,3.64,IMU0,0.7317073170731708,0.7317073170731708,0.1829268292682927,-0.04296875,0.02734375,0.9638671875
582,3.64,IMU1,-0.06097560975609757,0.3658536585365854,-0.3658536585365854,-0.03515625,0.0302734375,0.9208984375
583,3.65,IMU0,0.7317073170731708,0.6707317073170732,0.24390243902439027,-0.0419921875,0.0283203125,0.962890625
584,3.65,IMU1,0.0,0.3658536585365854,-0.3658536585365854,-0.0361328125,0.029296875,0.9208984375
585,3.66,IMU0,0.7317073170731708,0.6707317073170732,0.1829268292682927,-0.041015625,0.02734375,0.9638671875
586,3.66,IMU1,-0.06097560975609757,0.3658536585365854,-0.30487804878048785,-0.03515625,0.029296875,0.9208984375
587,3.67,IMU0,0.7317073170731708,0.7317073170731708,0.12195121951219513,-0.0419921875,0.0263671875,0.962890625
588,3.67,IMU1,-0.06097560975609757,0.3658536585365854,-0.3658536585365854,-0.03515625,0.029296875,0.919921875
589,3.68,IMU0,0.7317073170731708,0.7926829268292683,0.12195121951219513,-0.0419921875,0.02734375,0.9619140625
590,3.68,IMU1,-0.06097560975609757,0.48780487804878053,-0.3658536585365854,-0.0341796875,0.029296875,0.919921875
591,3.69,IMU0,0.6707317073170732,0.9146341463414634,0.12195121951219513,-0.0419921875,0.0263671875,0.9599609375
592,3.69,IMU1,0.0,0.5487804878048781,-0.30487804878048785,-0.03515625,0.0283203125,0.919921875
593,3.7,IMU0,0.7317073170731708,0.9756097560975611,0.12195121951219513,-0.0419921875,0.0263671875,0.958984375
594,3.7,IMU1,0.0,0.6097560975609757,-0.30487804878048785,-0.0341796875,0.0283203125,0.919921875
595,3.71,IMU0,0.6707317073170732,1.0365853658536586,0.12195121951219513,-0.0419921875,0.02734375,0.9609375
596,3.71,IMU1,-0.06097560975609757,0.6097560975609757,-0.30487804878048785,-0.03515625,0.0283203125,0.9208984375
597,3.72,IMU0,0.6707317073170732,0.9756097560975611,0.12195121951219513,-0.0419921875,0.02734375,0.9599609375
598,3.72,IMU1,0.0,0.6097560975609757,-0.30487804878048785,-0.0341796875,0.0283203125,0.919921875
599,3.73,IMU0,0.6707317073170732,0.9146341463414634,0.1829268292682927,-0.04296875,0.0263671875,0.958984375
600,3.73,IMU1,-0.06097560975609757,0.5487804878048781,-0.30487804878048785,-0.03515625,0.029296875,0.921875
601,3.74,IMU0,0.7317073170731708,0.7926829268292683,0.24390243902439027,-0.04296875,0.0263671875,0.9619140625
602,3.74,IMU1,-0.06097560975609757,0.5487804878048781,-0.30487804878048785,-0.03515625,0.029296875,0.9208984375
603,3.75,IMU0,0.7317073170731708,0.7317073170731708,0.1829268292682927,-0.0419921875,0.02734375,0.9619140625
604,3.75,IMU1,-0.06097560975609757,0.426829268292683,-0.30487804878048785,-0.0361328125,0.029296875,0.9189453125
605,3.76,IMU0,0.7317073170731708,0.7317073170731708,0.1829268292682927,-0.0419921875,0.02734375,0.9619140625
606,3.76,IMU1,-0.06097560975609757,0.3658536585365854,-0.3658536585365854,-0.0341796875,0.0283203125,0.9189453125
607,3.77,IMU0,0.7317073170731708,0.7317073170731708,0.1829268292682927,-0.0419921875,0.02734375,0.9619140625
608,3.77,IMU1,-0.06097560975609757,0.3658536585365854,-0.30487804878048785,-0.033203125,0.0283203125,0.9189453125
609,3.78,IMU0,0.7317073170731708,0.7926829268292683,0.12195121951219513,-0.0419921875,0.0263671875,0.9619140625
610,3.78,IMU1,-0.06097560975609757,0.3658536585365854,-0.3658536585365854,-0.0341796875,0.0283203125,0.9228515625
611,3.79,IMU0,0.6707317073170732,0.853658536585366,0.1829268292682927,-0.04296875,0.0263671875,0.962890625
612,3.79,IMU1,0.0,0.426829268292683,-0.3658536585365854,-0.0341796875,0.0283203125,0.919921875
613,3.8,IMU0,0.6707317073170732,0.9756097560975611,0.1829268292682927,-0.0439453125,0.025390625,0.9619140625
614,3.8,IMU1,-0.06097560975609757,0.48780487804878053,-0.3658536585365854,-0.03515625,0.029296875,0.919921875
615,3.81,IMU0,0.6707317073170732,1.0365853658536586,0.24390243902439027,-0.0439453125,0.0263671875,0.9619140625
616,3.81,IMU1,-0.06097560975609757,0.5487804878048781,-0.3658536585365854,-0.0361328125,0.02734375,0.9189453125
617,3.82,IMU0,0.7317073170731708,1.0365853658536586,0.24390243902439027,-0.04296875,0.02734375,0.962890625
618,3.82,IMU1,-0.06097560975609757,0.6097560975609757,-0.3658536585365854,-0.0361328125,0.0283203125,0.9189453125
619,3.83,IMU0,0.7317073170731708,0.9756097560975611,0.24390243902439027,-0.0439453125,0.02734375,0.9619140625
620,3.83,IMU1,-0.12195121951219513,0.6707317073170732,-0.30487804878048785,-0.03515625,0.0283203125,0.9208984375
621,3.84,IMU0,0.6707317073170732,0.9756097560975611,0.1829268292682927,-0.0439453125,0.0263671875,0.9619140625
622,3.84,IMU1,0.0,0.6097560975609757,-0.30487804878048785,-0.03515625,0.029296875,0.921875
623,3.85,IMU0,0.7317073170731708,0.853658536585366,0.1829268292682927,-0.04296875,0.0263671875,0.9609375
624,3.85,IMU1,0.0,0.48780487804878053,-0.30487804878048785,-0.03515625,0.029296875,0.9208984375
625,3.86,IMU0,0.7317073170731708,0.7926829268292683,0.1829268292682927,-0.04296875,0.02734375,0.9609375
626,3.86,IMU1,0.0,0.426829268292683,-0.30487804878048785,-0.03515625,0.029296875,0.9208984375
627,3.87,IMU0,0.7317073170731708,0.7926829268292683,0.1829268292682927,-0.04296875,0.02734375,0.9609375
628,3.87,IMU1,0.0,0.3658536585365854,-0.30487804878048785,-0.03515625,0.0302734375,0.9189453125
629,3.88,IMU0,0.7317073170731708,0.7317073170731708,0.1829268292682927,-0.04296875,0.0263671875,0.9609375
630,3.88,IMU1,0.0,0.30487804878048785,-0.30487804878048785,-0.03515625,0.0283203125,0.9189453125
631,3.89,IMU0,0.7317073170731708,0.7317073170731708,0.24390243902439027,-0.04296875,0.0263671875,0.9619140625
632,3.89,IMU1,-0.06097560975609757,0.3658536585365854,-0.30487804878048785,-0.0341796875,0.029296875,0.91796875
633,3.9,IMU0,0.7317073170731708,0.853658536585366,0.1829268292682927,-0.0419921875,0.02734375,0.962890625
634,3.9,IMU1,-0.06097560975609757,0.426829268292683,-0.30487804878048785,-0.0341796875,0.0283203125,0.919921875
635,3.91,IMU0,0.7317073170731708,0.9146341463414634,0.1829268292682927,-0.0419921875,0.02734375,0.962890625
636,3.91,IMU1,-0.06097560975609757,0.5487804878048781,-0.30487804878048785,-0.03515625,0.029296875,0.9208984375
637,3.92,IMU0,0.6707317073170732,0.9756097560975611,0.24390243902439027,-0.0419921875,0.0283203125,0.9619140625
638,3.92,IMU1,-0.06097560975609757,0.6707317073170732,-0.30487804878048785,-0.0361328125,0.029296875,0.9189453125
639,3.93,IMU0,0.6707317073170732,1.0365853658536586,0.24390243902439027,-0.04296875,0.02734375,0.962890625
640,3.93,IMU1,-0.06097560975609757,0.7317073170731708,-0.30487804878048785,-0.03515625,0.029296875,0.9208984375
641,3.94,IMU0,0.6707317073170732,1.0365853658536586,0.24390243902439027,-0.04296875,0.0263671875,0.9638671875
642,3.94,IMU1,-0.06097560975609757,0.6707317073170732,-0.30487804878048785,-0.03515625,0.0302734375,0.9208984375
643,3.95,IMU0,0.7317073170731708,0.9146341463414634,0.1829268292682927,-0.04296875,0.0263671875,0.962890625
644,3.95,IMU1,-0.06097560975609757,0.6097560975609757,-0.30487804878048785,-0.03515625,0.0302734375,0.9208984375
645,3.96,IMU0,0.7317073170731708,0.853658536585366,0.1829268292682927,-0.04296875,0.0263671875,0.9609375
646,3.96,IMU1,-0.06097560975609757,0.6097560975609757,-0.3658536585365854,-0.03515625,0.0302734375,0.921875
647,3.97,IMU0,0.6707317073170732,0.7926829268292683,0.1829268292682927,-0.0419921875,0.02734375,0.9619140625
648,3.97,IMU1,-0.06097560975609757,0.426829268292683,-0.3658536585365854,-0.03515625,0.029296875,0.9228515625
649,3.98,IMU0,0.7317073170731708,0.6707317073170732,0.1829268292682927,-0.0419921875,0.0263671875,0.962890625
650,3.98,IMU1,-0.06097560975609757,0.3658536585365854,-0.30487804878048785,-0.03515625,0.029296875,0.9228515625
651,3.99,IMU0,0.6707317073170732,0.6707317073170732,0.24390243902439027,-0.0419921875,0.0263671875,0.9619140625
652,3.99,IMU1,-0.06097560975609757,0.30487804878048785,-0.3658536585365854,-0.03515625,0.0283203125,0.921875
653,4.0,IMU0,0.6707317073170732,0.6707317073170732,0.1829268292682927,-0.0419921875,0.0263671875,0.9619140625
654,4.0,IMU1,-0.06097560975609757,0.3658536585365854,-0.3658536585365854,-0.03515625,0.0283203125,0.9208984375
655,4.01,IMU0,0.6707317073170732,0.7926829268292683,0.1829268292682927,-0.04296875,0.02734375,0.9619140625
656,4.01,IMU1,-0.06097560975609757,0.426829268292683,-0.3658536585365854,-0.03515625,0.029296875,0.921875
657,4.02,IMU0,0.6707317073170732,0.9146341463414634,0.24390243902439027,-0.04296875,0.02734375,0.9599609375
658,4.02,IMU1,0.0,0.48780487804878053,-0.3658536585365854,-0.0341796875,0.0283203125,0.9228515625
659,4.03,IMU0,0.7317073170731708,0.9756097560975611,0.1829268292682927,-0.04296875,0.02734375,0.9609375
660,4.03,IMU1,0.0,0.6097560975609757,-0.3658536585365854,-0.03515625,0.029296875,0.9228515625
661,4.04,IMU0,0.7317073170731708,0.9756097560975611,0.1829268292682927,-0.04296875,0.02734375,0.9619140625
662,4.04,IMU1,0.0,0.6707317073170732,-0.3658536585365854,-0.03515625,0.0283203125,0.919921875
663,4.05,IMU0,0.7317073170731708,1.0365853658536586,0.1829268292682927,-0.04296875,0.0263671875,0.9609375
664,4.05,IMU1,0.0,0.6097560975609757,-0.30487804878048785,-0.0361328125,0.0302734375,0.919921875
665,4.06,IMU0,0.7317073170731708,1.0365853658536586,0.1829268292682927,-0.04296875,0.025390625,0.962890625
666,4.06,IMU1,0.0,0.6097560975609757,-0.3658536585365854,-0.0361328125,0.029296875,0.919921875
667,4.07,IMU0,0.6707317073170732,0.9146341463414634,0.1829268292682927,-0.04296875,0.0263671875,0.9619140625
668,4.07,IMU1,-0.06097560975609757,0.48780487804878053,-0.3658536585365854,-0.03515625,0.029296875,0.919921875
669,4.08,IMU0,0.6707317073170732,0.7926829268292683,0.1829268292682927,-0.04296875,0.0263671875,0.962890625
670,4.08,IMU1,-0.06097560975609757,0.426829268292683,-0.3658536585365854,-0.03515625,0.029296875,0.9208984375
671,4.09,IMU0,0.6707317073170732,0.7317073170731708,0.1829268292682927,-0.0419921875,0.0283203125,0.9638671875
672,4.09,IMU1,0.0,0.3658536585365854,-0.3658536585365854,-0.03515625,0.029296875,0.9208984375
673,4.1,IMU0,0.6707317073170732,0.7317073170731708,0.24390243902439027,-0.0419921875,0.0263671875,0.9619140625
674,4.1,IMU1,0.0,0.30487804878048785,-0.3658536585365854,-0.0361328125,0.029296875,0.9208984375
675,4.11,IMU0,0.6707317073170732,0.7317073170731708,0.24390243902439027,-0.04296875,0.0263671875,0.9638671875
676,4.11,IMU1,0.0,0.3658536585365854,-0.3658536585365854,-0.0361328125,0.029296875,0.9189453125
677,4.12,IMU0,0.6707317073170732,0.7926829268292683,0.24390243902439027,-0.04296875,0.0263671875,0.962890625
678,4.12,IMU1,-0.06097560975609757,0.426829268292683,-0.3658536585365854,-0.03515625,0.029296875,0.921875
679,4.13,IMU0,0.6707317073170732,0.853658536585366,0.24390243902439027,-0.0419921875,0.0263671875,0.962890625
680,4.13,IMU1,-0.06097560975609757,0.5487804878048781,-0.3658536585365854,-0.0341796875,0.029296875,0.919921875
681,4.14,IMU0,0.6707317073170732,0.9146341463414634,0.1829268292682927,-0.04296875,0.02734375,0.9619140625
682,4.14,IMU1,-0.06097560975609757,0.5487804878048781,-0.30487804878048785,-0.0341796875,0.029296875,0.919921875
683,4.15,IMU0,0.6707317073170732,1.0365853658536586,0.1829268292682927,-0.0439453125,0.02734375,0.9599609375
684,4.15,IMU1,0.0,0.6707317073170732,-0.30487804878048785,-0.03515625,0.0302734375,0.9208984375
685,4.16,IMU0,0.6707317073170732,1.0365853658536586,0.1829268292682927,-0.0439453125,0.0263671875,0.9619140625
686,4.16,IMU1,-0.06097560975609757,0.6097560975609757,-0.30487804878048785,-0.03515625,0.0302734375,0.919921875
687,4.17,IMU0,0.6707317073170732,0.9756097560975611,0.1829268292682927,-0.0439453125,0.0263671875,0.9638671875
688,4.17,IMU1,-0.06097560975609757,0.6097560975609757,-0.3658536585365854,-0.0341796875,0.0302734375,0.919921875
689,4.18,IMU0,0.7317073170731708,0.9146341463414634,0.24390243902439027,-0.04296875,0.025390625,0.962890625
690,4.18,IMU1,-0.06097560975609757,0.5487804878048781,-0.3658536585365854,-0.0341796875,0.0302734375,0.9208984375
691,4.19,IMU0,0.7317073170731708,0.853658536585366,0.24390243902439027,-0.04296875,0.0263671875,0.9638671875
692,4.19,IMU1,0.0,0.48780487804878053,-0.3658536585365854,-0.0341796875,0.0302734375,0.9208984375
693,4.2,IMU0,0.7317073170731708,0.7317073170731708,0.1829268292682927,-0.04296875,0.0263671875,0.9638671875
694,4.2,IMU1,0.0,0.426829268292683,-0.3658536585365854,-0.0341796875,0.0302734375,0.9189453125
695,4.21,IMU0,0.7317073170731708,0.7317073170731708,0.24390243902439027,-0.0419921875,0.0263671875,0.962890625
696,4.21,IMU1,0.0,0.3658536585365854,-0.30487804878048785,-0.0341796875,0.029296875,0.9189453125
697,4.22,IMU0,0.7317073170731708,0.7926829268292683,0.1829268292682927,-0.0419921875,0.02734375,0.962890625
698,4.22,IMU1,0.0,0.426829268292683,-0.3658536585365854,-0.0341796875,0.0302734375,0.919921875
699,4.23,IMU0,0.7317073170731708,0.853658536585366,0.1829268292682927,-0.0419921875,0.0263671875,0.962890625
700,4.23,IMU1,-0.06097560975609757,0.48780487804878053,-0.3658536585365854,-0.03515625,0.029296875,0.919921875
701,4.24,IMU0,0.7317073170731708,0.853658536585366,0.1829268292682927,-0.041015625,0.0263671875,0.9619140625
702,4.24,IMU1,-0.06097560975609757,0.48780487804878053,-0.3658536585365854,-0.03515625,0.029296875,0.919921875
703,4.25,IMU0,0.7317073170731708,0.9146341463414634,0.1829268292682927,-0.041015625,0.0263671875,0.9619140625
704,4.25,IMU1,-0.06097560975609757,0.6097560975609757,-0.30487804878048785,-0.0361328125,0.029296875,0.919921875
705,4.26,IMU0,0.7317073170731708,0.9756097560975611,0.1829268292682927,-0.0419921875,0.02734375,0.9619140625
706,4.26,IMU1,-0.06097560975609757,0.6707317073170732,-0.30487804878048785,-0.03515625,0.029296875,0.919921875
707,4.27,IMU0,0.7317073170731708,0.9756097560975611,0.1829268292682927,-0.04296875,0.02734375,0.9619140625
708,4.27,IMU1,-0.06097560975609757,0.6707317073170732,-0.30487804878048785,-0.0361328125,0.0283203125,0.9189453125
709,4.28,IMU0,0.6707317073170732,0.9146341463414634,0.24390243902439027,-0.04296875,0.02734375,0.9609375
710,4.28,IMU1,-0.06097560975609757,0.5487804878048781,-0.30487804878048785,-0.0361328125,0.029296875,0.919921875
711,4.29,IMU0,0.6707317073170732,0.9146341463414634,0.24390243902439027,-0.0419921875,0.0283203125,0.9619140625
712,4.29,IMU1,-0.06097560975609757,0.48780487804878053,-0.30487804878048785,-0.0361328125,0.029296875,0.9208984375
713,4.3,IMU0,0.6707317073170732,0.853658536585366,0.1829268292682927,-0.0419921875,0.0283203125,0.9619140625
714,4.3,IMU1,-0.06097560975609757,0.48780487804878053,-0.30487804878048785,-0.03515625,0.0283203125,0.921875
715,4.31,IMU0,0.6707317073170732,0.7926829268292683,0.1829268292682927,-0.0419921875,0.02734375,0.9609375
716,4.31,IMU1,-0.06097560975609757,0.426829268292683,-0.30487804878048785,-0.03515625,0.029296875,0.921875
717,4.32,IMU0,0.6707317073170732,0.7317073170731708,0.12195121951219513,-0.0419921875,0.02734375,0.9609375
718,4.32,IMU1,-0.06097560975609757,0.426829268292683,-0.30487804878048785,-0.0361328125,0.029296875,0.9208984375
719,4.33,IMU0,0.6707317073170732,0.7317073170731708,0.1829268292682927,-0.0419921875,0.02734375,0.9609375
720,4.33,IMU1,0.0,0.426829268292683,-0.3658536585365854,-0.0361328125,0.029296875,0.9228515625
721,4.34,IMU0,0.7317073170731708,0.7926829268292683,0.1829268292682927,-0.0419921875,0.02734375,0.9599609375
722,4.34,IMU1,0.0,0.426829268292683,-0.3658536585365854,-0.03515625,0.029296875,0.921875
723,4.35,IMU0,0.6707317073170732,0.853658536585366,0.1829268292682927,-0.04296875,0.02734375,0.9609375
724,4.35,IMU1,0.0,0.48780487804878053,-0.3658536585365854,-0.03515625,0.029296875,0.921875
725,4.36,IMU0,0.6707317073170732,0.9756097560975611,0.1829268292682927,-0.0419921875,0.02734375,0.9619140625
726,4.36,IMU1,0.06097560975609757,0.5487804878048781,-0.30487804878048785,-0.03515625,0.029296875,0.921875
727,4.37,IMU0,0.6707317073170732,0.9756097560975611,0.1829268292682927,-0.04296875,0.0263671875,0.9619140625
728,4.37,IMU1,0.0,0.6097560975609757,-0.30487804878048785,-0.03515625,0.0283203125,0.9208984375
729,4.38,IMU0,0.6707317073170732,0.9756097560975611,0.1829268292682927,-0.0419921875,0.0263671875,0.962890625
730,4.38,IMU1,0.0,0.6097560975609757,-0.30487804878048785,-0.03515625,0.02734375,0.9208984375
731,4.39,IMU0,0.6707317073170732,0.9146341463414634,0.1829268292682927,-0.04296875,0.02734375,0.9638671875
732,4.39,IMU1,0.0,0.5487804878048781,-0.30487804878048785,-0.0341796875,0.0283203125,0.919921875
733,4.4,IMU0,0.6707317073170732,0.9146341463414634,0.24390243902439027,-0.04296875,0.02734375,0.9619140625
734,4.4,IMU1,0.0,0.5487804878048781,-0.3658536585365854,-0.0361328125,0.029296875,0.919921875
735,4.41,IMU0,0.6707317073170732,0.853658536585366,0.24390243902439027,-0.04296875,0.02734375,0.9638671875
736,4.41,IMU1,0.0,0.48780487804878053,-0.3658536585365854,-0.03515625,0.0283203125,0.9208984375
737,4.42,IMU0,0.6707317073170732,0.7926829268292683,0.1829268292682927,-0.0419921875,0.02734375,0.9638671875
738,4.42,IMU1,0.0,0.426829268292683,-0.3658536585365854,-0.03515625,0.029296875,0.9208984375
739,4.43,IMU0,0.6707317073170732,0.7317073170731708,0.1829268292682927,-0.041015625,0.02734375,0.962890625
740,4.43,IMU1,0.0,0.426829268292683,-0.3658536585365854,-0.03515625,0.029296875,0.9228515625
741,4.44,IMU0,0.6707317073170732,0.7926829268292683,0.24390243902439027,-0.0419921875,0.02734375,0.9638671875
742,4.44,IMU1,0.0,0.426829268292683,-0.3658536585365854,-0.03515625,0.02734375,0.9228515625
743,4.45,IMU0,0.7317073170731708,0.853658536585366,0.24390243902439027,-0.04296875,0.02734375,0.9619140625
744,4.45,IMU1,-0.06097560975609757,0.48780487804878053,-0.3658536585365854,-0.03515625,0.0283203125,0.9208984375
745,4.46,IMU0,0.7317073170731708,0.9146341463414634,0.24390243902439027,-0.04296875,0.0263671875,0.962890625
746,4.46,IMU1,0.0,0.5487804878048781,-0.3658536585365854,-0.03515625,0.02734375,0.919921875
747,4.47,IMU0,0.7317073170731708,0.9756097560975611,0.24390243902439027,-0.04296875,0.02734375,0.962890625
748,4.47,IMU1,-0.06097560975609757,0.5487804878048781,-0.30487804878048785,-0.03515625,0.029296875,0.919921875
749,4.48,IMU0,0.7317073170731708,0.9756097560975611,0.1829268292682927,-0.04296875,0.0283203125,0.9619140625
750,4.48,IMU1,-0.06097560975609757,0.6097560975609757,-0.30487804878048785,-0.03515625,0.029296875,0.919921875
751,4.49,IMU0,0.6707317073170732,0.9756097560975611,0.24390243902439027,-0.04296875,0.0283203125,0.9609375
752,4.49,IMU1,-0.06097560975609757,0.6097560975609757,-0.30487804878048785,-0.0361328125,0.0302734375,0.9189453125
753,4.5,IMU0,0.6707317073170732,0.9146341463414634,0.24390243902439027,-0.0439453125,0.0283203125,0.9619140625
754,4.5,IMU1,-0.06097560975609757,0.5487804878048781,-0.3658536585365854,-0.03515625,0.029296875,0.9208984375
755,4.51,IMU0,0.6707317073170732,0.853658536585366,0.24390243902439027,-0.04296875,0.0283203125,0.962890625
756,4.51,IMU1,-0.06097560975609757,0.5487804878048781,-0.30487804878048785,-0.0341796875,0.029296875,0.9208984375
757,4.52,IMU0,0.6707317073170732,0.7926829268292683,0.1829268292682927,-0.04296875,0.02734375,0.9638671875
758,4.52,IMU1,-0.06097560975609757,0.48780487804878053,-0.3658536585365854,-0.03515625,0.029296875,0.921875
759,4.53,IMU0,0.6707317073170732,0.7926829268292683,0.1829268292682927,-0.04296875,0.0283203125,0.962890625
760,4.53,IMU1,-0.06097560975609757,0.426829268292683,-0.3658536585365854,-0.0341796875,0.029296875,0.921875
761,4.54,IMU0,0.6707317073170732,0.7317073170731708,0.1829268292682927,-0.0419921875,0.02734375,0.9619140625
762,4.54,IMU1,0.0,0.3658536585365854,-0.3658536585365854,-0.03515625,0.029296875,0.9208984375
763,4.55,IMU0,0.6707317073170732,0.7317073170731708,0.12195121951219513,-0.04296875,0.02734375,0.9619140625
764,4.55,IMU1,0.0,0.426829268292683,-0.3658536585365854,-0.0341796875,0.029296875,0.91796875
765,4.56,IMU0,0.7317073170731708,0.7926829268292683,0.1829268292682927,-0.04296875,0.0263671875,0.9619140625
766,4.56,IMU1,-0.06097560975609757,0.426829268292683,-0.3658536585365854,-0.03515625,0.029296875,0.91796875
767,4.57,IMU0,0.7317073170731708,0.7926829268292683,0.1829268292682927,-0.041015625,0.02734375,0.962890625
768,4.57,IMU1,0.0,0.48780487804878053,-0.30487804878048785,-0.0361328125,0.029296875,0.9189453125
769,4.58,IMU0,0.6707317073170732,0.853658536585366,0.1829268292682927,-0.0419921875,0.025390625,0.962890625
770,4.58,IMU1,-0.06097560975609757,0.6097560975609757,-0.30487804878048785,-0.03515625,0.0302734375,0.9208984375
771,4.59,IMU0,0.7317073170731708,0.9146341463414634,0.24390243902439027,-0.0419921875,0.0263671875,0.9619140625
772,4.59,IMU1,-0.06097560975609757,0.6097560975609757,-0.30487804878048785,-0.03515625,0.0302734375,0.919921875
773,4.6,IMU0,0.7317073170731708,0.9756097560975611,0.24390243902439027,-0.041015625,0.0263671875,0.9619140625
774,4.6,IMU1,-0.06097560975609757,0.6707317073170732,-0.3658536585365854,-0.0341796875,0.0302734375,0.9189453125
775,4.61,IMU0,0.6707317073170732,0.9146341463414634,0.1829268292682927,-0.0419921875,0.0263671875,0.962890625
776,4.61,IMU1,0.0,0.6097560975609757,-0.3658536585365854,-0.03515625,0.029296875,0.91796875
777,4.62,IMU0,0.7317073170731708,0.9146341463414634,0.1829268292682927,-0.04296875,0.025390625,0.9619140625
778,4.62,IMU1,0.0,0.6097560975609757,-0.3658536585365854,-0.03515625,0.029296875,0.9189453125
779,4.63,IMU0,0.7317073170731708,0.853658536585366,0.1829268292682927,-0.04296875,0.0263671875,0.9609375
780,4.63,IMU1,-0.06097560975609757,0.5487804878048781,-0.3658536585365854,-0.03515625,0.029296875,0.919921875
781,4.64,IMU0,0.7317073170731708,0.7926829268292683,0.1829268292682927,-0.04296875,0.02734375,0.9609375
782,4.64,IMU1,-0.06097560975609757,0.48780487804878053,-0.30487804878048785,-0.03515625,0.0302734375,0.9189453125
783,4.65,IMU0,0.7317073170731708,0.7926829268292683,0.1829268292682927,-0.04296875,0.02734375,0.9619140625
784,4.65,IMU1,-0.06097560975609757,0.426829268292683,-0.30487804878048785,-0.0341796875,0.0302734375,0.9208984375
785,4.66,IMU0,0.6707317073170732,1.402439024390244,0.1829268292682927,-0.0361328125,0.0283203125,0.9580078125
786,4.66,IMU1,-0.12195121951219513,1.1585365853658538,-0.30487804878048785,-0.02734375,0.0302734375,0.9189453125
787,4.67,IMU0,0.3658536585365854,3.5975609756097566,0.24390243902439027,-0.033203125,0.02734375,0.9580078125
788,4.67,IMU1,-0.3658536585365854,3.4756097560975614,-0.30487804878048785,-0.025390625,0.03125,0.91796875
789,4.68,IMU0,0.1829268292682927,6.158536585365854,0.1829268292682927,-0.037109375,0.02734375,0.9599609375
790,4.68,IMU1,-0.48780487804878053,5.975609756097562,-0.426829268292683,-0.0302734375,0.0302734375,0.9208984375
791,4.69,IMU0,0.1829268292682927,7.073170731707318,0.12195121951219513,-0.0458984375,0.02734375,0.9638671875
792,4.69,IMU1,-0.48780487804878053,6.707317073170732,-0.426829268292683,-0.0390625,0.0302734375,0.9228515625
793,4.7,IMU0,0.30487804878048785,5.487804878048781,0.1829268292682927,-0.0537109375,0.02734375,0.966796875
794,4.7,IMU1,-0.3658536585365854,5.0,-0.426829268292683,-0.0458984375,0.0302734375,0.921875
795,4.71,IMU0,0.5487804878048781,2.7439024390243905,0.1829268292682927,-0.0546875,0.0283203125,0.96484375
796,4.71,IMU1,-0.12195121951219513,2.25609756097561,-0.3658536585365854,-0.046875,0.029296875,0.9228515625
797,4.72,IMU0,0.7317073170731708,0.426829268292683,0.1829268292682927,-0.052734375,0.0263671875,0.96484375
798,4.72,IMU1,0.0,0.0,-0.3658536585365854,-0.0439453125,0.0302734375,0.9228515625
799,4.73,IMU0,0.853658536585366,-1.0365853658536586,0.24390243902439027,-0.05078125,0.0263671875,0.9658203125
800,4.73,IMU1,0.06097560975609757,-1.524390243902439,-0.30487804878048785,-0.0439453125,0.0302734375,0.9208984375
801,4.74,IMU0,0.9756097560975611,-2.378048780487805,0.24390243902439027,-0.0498046875,0.0263671875,0.9677734375
802,4.74,IMU1,0.1829268292682927,-2.804878048780488,-0.24390243902439027,-0.0439453125,0.029296875,0.9208984375
803,4.75,IMU0,1.0975609756097562,-3.963414634146342,0.24390243902439027,-0.0517578125,0.025390625,0.9677734375
804,4.75,IMU1,0.3658536585365854,-4.51219512195122,-0.24390243902439027,-0.0419921875,0.0283203125,0.923828125
805,4.76,IMU0,1.3414634146341464,-5.2439024390243905,0.12195121951219513,-0.0458984375,0.0244140625,0.966796875
806,4.76,IMU1,0.5487804878048781,-5.670731707317073,-0.30487804878048785,-0.0361328125,0.02734375,0.923828125
807,4.77,IMU0,1.402439024390244,-5.3048780487804885,0.12195121951219513,-0.041015625,0.0244140625,0.962890625
808,4.77,IMU1,0.6097560975609757,-5.670731707317073,-0.30487804878048785,-0.0322265625,0.0283203125,0.921875
809,4.78,IMU0,1.2195121951219514,-4.573170731707317,0.12195121951219513,-0.0390625,0.02734375,0.9609375
810,4.78,IMU1,0.5487804878048781,-4.878048780487806,-0.30487804878048785,-0.03125,0.0302734375,0.91796875
811,4.79,IMU0,1.0365853658536586,-2.804878048780488,0.12195121951219513,-0.0322265625,0.029296875,0.9560546875
812,4.79,IMU1,0.30487804878048785,-3.048780487804878,-0.3658536585365854,-0.0234375,0.0302734375,0.9150390625
813,4.8,IMU0,0.7926829268292683,0.24390243902439027,0.1829268292682927,-0.0302734375,0.0283203125,0.9560546875
814,4.8,IMU1,-0.06097560975609757,0.06097560975609757,-0.30487804878048785,-0.0234375,0.0302734375,0.9140625
815,4.81,IMU0,0.5487804878048781,2.7439024390243905,0.24390243902439027,-0.0361328125,0.02734375,0.958984375
816,4.81,IMU1,-0.30487804878048785,2.5,-0.30487804878048785,-0.03125,0.0302734375,0.9189453125
817,4.82,IMU0,0.426829268292683,3.1707317073170733,0.1829268292682927,-0.04296875,0.02734375,0.962890625
818,4.82,IMU1,-0.3658536585365854,2.8658536585365857,-0.3658536585365854,-0.03515625,0.029296875,0.921875
819,4.83,IMU0,0.48780487804878053,2.1951219512195124,0.1829268292682927,-0.0458984375,0.0263671875,0.96484375
820,4.83,IMU1,-0.1829268292682927,1.8902439024390245,-0.3658536585365854,-0.0390625,0.029296875,0.923828125
821,4.84,IMU0,0.6707317073170732,1.0975609756097562,0.1829268292682927,-0.044921875,0.02734375,0.96484375
822,4.84,IMU1,0.0,0.6707317073170732,-0.3658536585365854,-0.0390625,0.0283203125,0.9228515625
823,4.85,IMU0,0.853658536585366,-0.5487804878048781,0.12195121951219513,-0.048828125,0.0263671875,0.9638671875
824,4.85,IMU1,0.06097560975609757,-0.9756097560975611,-0.426829268292683,-0.0400390625,0.029296875,0.923828125
825,4.86,IMU0,1.0975609756097562,-2.8658536585365857,0.06097560975609757,-0.05078125,0.025390625,0.9658203125
826,4.86,IMU1,0.30487804878048785,-3.353658536585366,-0.426829268292683,-0.04296875,0.029296875,0.9248046875
827,4.87,IMU0,1.4634146341463417,-6.219512195121951,0.0,-0.0537109375,0.025390625,0.96875
828,4.87,IMU1,0.7317073170731708,-6.707317073170732,-0.48780487804878053,-0.044921875,0.0283203125,0.927734375
829,4.88,IMU0,1.8902439024390245,-10.060975609756099,-0.06097560975609757,-0.0498046875,0.029296875,0.96875
830,4.88,IMU1,1.0975609756097562,-10.548780487804878,-0.48780487804878053,-0.04296875,0.0322265625,0.9296875
831,4.89,IMU0,2.1951219512195124,-12.195121951219512,-0.5487804878048781,-0.056640625,0.0498046875,0.962890625
832,4.89,IMU1,1.3414634146341464,-12.560975609756099,-0.9756097560975611,-0.052734375,0.0537109375,0.9208984375
833,4.9,IMU0,2.378048780487805,-13.29268292682927,-5.609756097560976,-0.04296875,0.08984375,0.9658203125
834,4.9,IMU1,1.5853658536585367,-13.658536585365855,-6.2804878048780495,-0.04296875,0.0947265625,0.923828125
835,4.91,IMU0,1.9512195121951221,-10.30487804878049,-12.500000000000002,-0.033203125,0.1181640625,0.9482421875
836,4.91,IMU1,1.2195121951219514,-10.365853658536587,-13.170731707317074,-0.0322265625,0.1220703125,0.9033203125
837,4.92,IMU0,1.524390243902439,-5.487804878048781,-18.902439024390244,-0.03125,0.1279296875,0.947265625
838,4.92,IMU1,0.7317073170731708,-5.7926829268292686,-19.634146341463417,-0.0283203125,0.130859375,0.904296875
839,4.93,IMU0,0.9756097560975611,-0.6097560975609757,-24.390243902439025,-0.0341796875,0.115234375,0.955078125
840,4.93,IMU1,0.30487804878048785,-0.853658536585366,-25.182926829268293,-0.03125,0.1162109375,0.916015625
841,4.94,IMU0,1.524390243902439,-0.1829268292682927,-28.231707317073173,-0.0439453125,-0.0078125,0.96875
842,4.94,IMU1,0.9756097560975611,-0.853658536585366,-28.780487804878053,-0.0322265625,-0.01171875,0.927734375
843,4.95,IMU0,1.524390243902439,-2.5609756097560976,-22.621951219512198,-0.0234375,-0.1123046875,0.9765625
844,4.95,IMU1,0.7926829268292683,-3.1097560975609757,-22.682926829268293,-0.0048828125,-0.111328125,0.935546875
845,4.96,IMU0,1.2195121951219514,-2.1951219512195124,-16.34146341463415,-0.0283203125,-0.0732421875,0.958984375
846,4.96,IMU1,0.5487804878048781,-2.5,-16.70731707317073,-0.0185546875,-0.0673828125,0.91796875
847,4.97,IMU0,0.48780487804878053,1.5853658536585367,-17.195121951219512,-0.0703125,-0.001953125,0.9521484375
848,4.97,IMU1,-0.06097560975609757,1.3414634146341464,-17.865853658536587,-0.0703125,0.001953125,0.9111328125
849,4.98,IMU0,0.0,6.097560975609756,-24.085365853658537,-0.08984375,0.025390625,0.947265625
850,4.98,IMU1,-0.5487804878048781,5.914634146341464,-24.939024390243905,-0.0927734375,0.029296875,0.912109375
851,4.99,IMU0,-0.30487804878048785,9.634146341463415,-31.58536585365854,-0.08984375,0.0458984375,0.96484375
852,4.99,IMU1,-0.853658536585366,9.329268292682928,-32.31707317073171,-0.087890625,0.0498046875,0.919921875
853,5.0,IMU0,-0.3658536585365854,12.80487804878049,-37.13414634146342,-0.0751953125,0.056640625,0.9560546875
854,5.0,IMU1,-0.7926829268292683,12.621951219512196,-37.86585365853659,-0.072265625,0.0595703125,0.9150390625
855,5.01,IMU0,-0.3658536585365854,18.78048780487805,-41.951219512195124,-0.0712890625,0.0576171875,0.9462890625
856,5.01,IMU1,-0.7926829268292683,17.926829268292686,-42.31707317073171,-0.06640625,0.0615234375,0.9072265625
857,5.02,IMU0,-0.6097560975609757,24.512195121951223,-44.63414634146342,-0.0654296875,0.05078125,0.955078125
858,5.02,IMU1,-1.0365853658536586,23.78048780487805,-45.304878048780495,-0.0595703125,0.0546875,0.916015625
859,5.03,IMU0,-1.4634146341463417,26.158536585365855,-45.670731707317074,-0.068359375,0.0478515625,1.0029296875
860,5.03,IMU1,-1.829268292682927,25.731707317073173,-46.40243902439025,-0.0595703125,0.0517578125,0.9609375
861,5.04,IMU0,-4.2682926829268295,26.707317073170735,-43.71951219512196,-0.0576171875,0.0458984375,1.0185546875
862,5.04,IMU1,-4.390243902439025,26.09756097560976,-44.81707317073171,-0.044921875,0.048828125,0.9833984375
863,5.05,IMU0,-9.817073170731708,26.158536585365855,-37.5609756097561,-0.05859375,0.0390625,1.046875
864,5.05,IMU1,-9.878048780487806,25.792682926829272,-38.963414634146346,-0.041015625,0.0419921875,1.0126953125
865,5.06,IMU0,-16.52439024390244,24.02439024390244,-27.073170731707318,-0.0595703125,0.03515625,1.0693359375
866,5.06,IMU1,-16.585365853658537,23.719512195121954,-28.719512195121954,-0.0380859375,0.0380859375,1.0341796875
867,5.07,IMU0,-25.000000000000004,22.500000000000004,-14.207317073170733,-0.0732421875,0.0341796875,1.0888671875
868,5.07,IMU1,-25.000000000000004,22.25609756097561,-16.097560975609756,-0.048828125,0.037109375,1.056640625
869,5.08,IMU0,-32.86585365853659,22.378048780487806,-0.426829268292683,-0.09375,0.01953125,1.08203125
870,5.08,IMU1,-32.987804878048784,21.951219512195124,-2.378048780487805,-0.0703125,0.0205078125,1.0498046875
871,5.09,IMU0,-38.84146341463415,25.670731707317074,13.597560975609758,-0.1181640625,0.0107421875,1.08203125
872,5.09,IMU1,-39.207317073170735,25.243902439024392,11.585365853658537,-0.0966796875,0.01171875,1.0419921875
873,5.1,IMU0,-42.43902439024391,30.30487804878049,27.073170731707318,-0.140625,0.0048828125,1.078125
874,5.1,IMU1,-43.04878048780488,29.87804878048781,25.0609756097561,-0.1181640625,0.0068359375,1.0361328125
875,5.11,IMU0,-42.743902439024396,34.93902439024391,38.59756097560976,-0.1484375,-0.0029296875,1.0810546875
876,5.11,IMU1,-43.59756097560976,34.81707317073171,36.707317073170735,-0.12890625,-0.0029296875,1.0380859375
877,5.12,IMU0,-37.86585365853659,37.987804878048784,46.524390243902445,-0.146484375,-0.01171875,1.080078125
878,5.12,IMU1,-39.207317073170735,37.86585365853659,44.87804878048781,-0.1318359375,-0.009765625,1.025390625
879,5.13,IMU0,-27.31707317073171,41.09756097560976,51.09756097560976,-0.142578125,-0.0166015625,1.07421875
880,5.13,IMU1,-29.08536585365854,40.97560975609756,49.69512195121952,-0.1318359375,-0.013671875,1.015625
881,5.14,IMU0,-13.841463414634148,43.47560975609756,51.951219512195124,-0.140625,-0.0244140625,1.0693359375
882,5.14,IMU1,-15.670731707317074,43.41463414634147,50.85365853658537,-0.1357421875,-0.0205078125,1.0107421875
883,5.15,IMU0,-0.5487804878048781,46.28048780487805,49.146341463414636,-0.1416015625,-0.044921875,1.060546875
884,5.15,IMU1,-2.3170731707317076,46.15853658536586,48.41463414634147,-0.1396484375,-0.0400390625,1.0029296875
885,5.16,IMU0,9.756097560975611,48.65853658536586,43.170731707317074,-0.1474609375,-0.0703125,1.0517578125
886,5.16,IMU1,8.353658536585366,48.53658536585366,42.6219512195122,-0.1474609375,-0.06640625,1.0
887,5.17,IMU0,15.30487804878049,51.21951219512196,34.75609756097561,-0.15625,-0.1015625,1.044921875
888,5.17,IMU1,14.329268292682928,50.91463414634147,34.390243902439025,-0.1591796875,-0.0966796875,0.9970703125
889,5.18,IMU0,16.34146341463415,53.78048780487806,25.121951219512198,-0.166015625,-0.130859375,1.03515625
890,5.18,IMU1,15.731707317073171,53.35365853658537,24.695121951219516,-0.1689453125,-0.125,0.994140625
891,5.19,IMU0,13.231707317073171,56.768292682926834,15.487804878048783,-0.1796875,-0.1298828125,0.98046875
892,5.19,IMU1,12.74390243902439,55.91463414634147,14.939024390243905,-0.17578125,-0.12890625,0.9443359375
893,5.2,IMU0,9.26829268292683,61.21951219512196,7.500000000000001,-0.21875,-0.1142578125,1.0
894,5.2,IMU1,9.02439024390244,60.73170731707317,6.7682926829268295,-0.220703125,-0.1123046875,0.9736328125
895,5.21,IMU0,1.5853658536585367,67.5609756097561,0.9756097560975611,-0.248046875,-0.0947265625,0.970703125
896,5.21,IMU1,1.6463414634146343,66.82926829268293,0.06097560975609757,-0.2451171875,-0.0927734375,0.9423828125
897,5.22,IMU0,-9.26829268292683,76.58536585365854,-4.573170731707317,-0.275390625,-0.08203125,0.9404296875
898,5.22,IMU1,-8.963414634146343,75.54878048780489,-5.731707317073171,-0.2705078125,-0.0791015625,0.9140625
899,5.23,IMU0,-20.243902439024392,88.90243902439025,-9.146341463414634,-0.294921875,-0.08203125,0.9267578125
900,5.23,IMU1,-20.914634146341466,88.96341463414635,-10.914634146341465,-0.291015625,-0.0810546875,0.8955078125
901,5.24,IMU0,-29.02439024390244,102.43902439024392,-11.646341463414634,-0.3056640625,-0.0654296875,0.9208984375
902,5.24,IMU1,-29.573170731707318,102.6219512195122,-13.536585365853659,-0.2998046875,-0.0634765625,0.8857421875
903,5.25,IMU0,-34.268292682926834,115.12195121951221,-11.036585365853659,-0.3095703125,-0.029296875,0.9267578125
904,5.25,IMU1,-34.69512195121951,115.2439024390244,-13.04878048780488,-0.2998046875,-0.0283203125,0.88671875
905,5.26,IMU0,-35.670731707317074,125.1829268292683,-7.500000000000001,-0.3125,0.0029296875,0.93359375
906,5.26,IMU1,-35.85365853658537,125.3048780487805,-9.634146341463415,-0.2998046875,0.005859375,0.8916015625
907,5.27,IMU0,-33.109756097560975,133.84146341463415,-1.2195121951219514,-0.3115234375,0.0244140625,0.935546875
908,5.27,IMU1,-33.170731707317074,133.96341463414635,-3.353658536585366,-0.29296875,0.0283203125,0.88671875
909,5.28,IMU0,-27.012195121951223,141.40243902439025,7.8048780487804885,-0.298828125,0.0361328125,0.939453125
910,5.28,IMU1,-27.073170731707318,141.52439024390245,5.609756097560976,-0.2783203125,0.0400390625,0.888671875
911,5.29,IMU0,-19.695121951219512,146.28048780487805,19.02439024390244,-0.2705078125,0.0419921875,0.947265625
912,5.29,IMU1,-19.81707317073171,146.34146341463415,16.951219512195124,-0.2470703125,0.044921875,0.89453125
913,5.3,IMU0,-12.926829268292684,146.03658536585368,31.646341463414636,-0.2509765625,0.0439453125,0.962890625
914,5.3,IMU1,-13.109756097560977,146.03658536585368,29.573170731707318,-0.2265625,0.046875,0.91015625
915,5.31,IMU0,-7.743902439024391,140.4268292682927,43.71951219512196,-0.2509765625,0.0341796875,0.96484375
916,5.31,IMU1,-8.048780487804878,140.3048780487805,41.58536585365854,-0.23046875,0.0380859375,0.9150390625
917,5.32,IMU0,-2.804878048780488,133.96341463414635,53.23170731707317,-0.2685546875,0.01171875,0.953125
918,5.32,IMU1,-3.1707317073170733,133.90243902439025,51.09756097560976,-0.2529296875,0.0146484375,0.9052734375
919,5.33,IMU0,2.439024390243903,128.2317073170732,58.963414634146346,-0.294921875,-0.0126953125,0.9501953125
920,5.33,IMU1,2.0121951219512195,128.1707317073171,56.89024390243903,-0.2841796875,-0.009765625,0.90234375
921,5.34,IMU0,6.707317073170732,120.73170731707319,60.79268292682927,-0.3369140625,-0.0380859375,0.9423828125
922,5.34,IMU1,6.158536585365854,120.60975609756099,58.84146341463415,-0.33203125,-0.0341796875,0.896484375
923,5.35,IMU0,9.329268292682928,114.45121951219514,58.35365853658537,-0.396484375,-0.06640625,0.919921875
924,5.35,IMU1,8.719512195121952,114.39024390243904,56.40243902439025,-0.396484375,-0.0615234375,0.875
925,5.36,IMU0,10.914634146341465,112.6219512195122,51.585365853658544,-0.4560546875,-0.095703125,0.892578125
926,5.36,IMU1,10.30487804878049,112.6219512195122,49.51219512195122,-0.4599609375,-0.08984375,0.8486328125
927,5.37,IMU0,11.219512195121952,115.00000000000001,41.58536585365854,-0.5029296875,-0.1064453125,0.876953125
928,5.37,IMU1,10.670731707317074,114.93902439024392,39.51219512195122,-0.509765625,-0.1005859375,0.8349609375
929,5.38,IMU0,9.634146341463415,118.84146341463416,29.451219512195124,-0.541015625,-0.1025390625,0.865234375
930,5.38,IMU1,9.085365853658537,118.71951219512196,27.378048780487806,-0.548828125,-0.0966796875,0.8251953125
931,5.39,IMU0,7.682926829268293,123.23170731707319,15.731707317073171,-0.5771484375,-0.095703125,0.84375
932,5.39,IMU1,7.195121951219513,123.10975609756099,13.475609756097562,-0.5849609375,-0.0888671875,0.8056640625
933,5.4,IMU0,6.646341463414635,130.7926829268293,1.2804878048780488,-0.6123046875,-0.08203125,0.8203125
934,5.4,IMU1,6.2804878048780495,130.7317073170732,-1.0365853658536586,-0.6201171875,-0.076171875,0.7783203125
935,5.41,IMU0,7.8048780487804885,141.76829268292684,-12.256097560975611,-0.626953125,-0.0634765625,0.8037109375
936,5.41,IMU1,7.560975609756098,141.64634146341464,-14.634146341463415,-0.6318359375,-0.056640625,0.7578125
937,5.42,IMU0,9.817073170731708,152.5609756097561,-21.707317073170735,-0.6259765625,-0.03125,0.80859375
938,5.42,IMU1,9.634146341463415,152.31707317073173,-24.146341463414636,-0.6240234375,-0.025390625,0.765625
939,5.43,IMU0,11.341463414634147,158.96341463414635,-25.182926829268293,-0.619140625,-0.001953125,0.8203125
940,5.43,IMU1,11.158536585365855,158.71951219512198,-27.5609756097561,-0.6103515625,0.00390625,0.7763671875
941,5.44,IMU0,11.707317073170733,161.89024390243904,-22.621951219512198,-0.6123046875,0.017578125,0.8125
942,5.44,IMU1,11.585365853658537,161.64634146341464,-24.939024390243905,-0.5986328125,0.0244140625,0.7705078125
943,5.45,IMU0,10.365853658536587,163.41463414634148,-15.121951219512196,-0.6064453125,0.03515625,0.78515625
944,5.45,IMU1,10.182926829268293,163.1707317073171,-17.5,-0.5888671875,0.041015625,0.744140625
945,5.46,IMU0,7.25609756097561,164.08536585365854,-4.2682926829268295,-0.6064453125,0.046875,0.759765625
946,5.46,IMU1,7.01219512195122,163.84146341463415,-6.585365853658537,-0.583984375,0.052734375,0.720703125
947,5.47,IMU0,2.25609756097561,162.9268292682927,8.109756097560977,-0.6171875,0.0537109375,0.740234375
948,5.47,IMU1,1.8902439024390245,162.8048780487805,5.853658536585367,-0.59375,0.0595703125,0.7001953125
949,5.48,IMU0,-2.682926829268293,160.4878048780488,20.243902439024392,-0.63671875,0.0439453125,0.7138671875
950,5.48,IMU1,-2.987804878048781,160.4268292682927,17.926829268292686,-0.6142578125,0.0498046875,0.6728515625
951,5.49,IMU0,-5.426829268292684,159.63414634146343,30.487804878048784,-0.6513671875,0.0341796875,0.6884765625
952,5.49,IMU1,-5.731707317073171,159.63414634146343,28.10975609756098,-0.6318359375,0.041015625,0.642578125
953,5.5,IMU0,-5.609756097560976,157.9878048780488,38.59756097560976,-0.6669921875,0.0361328125,0.6669921875
954,5.5,IMU1,-5.914634146341464,157.9878048780488,36.15853658536586,-0.6494140625,0.0419921875,0.62109375
955,5.51,IMU0,-4.817073170731708,154.93902439024393,45.54878048780488,-0.685546875,0.037109375,0.640625
956,5.51,IMU1,-5.182926829268293,155.0,43.170731707317074,-0.671875,0.044921875,0.59375
957,5.52,IMU0,-3.231707317073171,152.7439024390244,50.487804878048784,-0.7080078125,0.0263671875,0.61328125
958,5.52,IMU1,-3.658536585365854,152.8048780487805,48.10975609756098,-0.6962890625,0.033203125,0.5654296875
959,5.53,IMU0,-0.9756097560975611,151.89024390243904,52.926829268292686,-0.7265625,0.0107421875,0.5947265625
960,5.53,IMU1,-1.402439024390244,151.95121951219514,50.54878048780488,-0.716796875,0.017578125,0.546875
961,5.54,IMU0,1.1585365853658538,150.4268292682927,52.5609756097561,-0.7470703125,-0.0068359375,0.583984375
962,5.54,IMU1,0.7317073170731708,150.4878048780488,50.1829268292683,-0.7392578125,0.0,0.537109375
963,5.55,IMU0,2.7439024390243905,149.08536585365854,49.268292682926834,-0.779296875,-0.02734375,0.57421875
964,5.55,IMU1,2.25609756097561,149.08536585365854,46.82926829268293,-0.775390625,-0.0205078125,0.5283203125
965,5.56,IMU0,3.536585365853659,149.51219512195124,43.47560975609756,-0.8056640625,-0.04296875,0.5517578125
966,5.56,IMU1,3.1707317073170733,149.51219512195124,41.09756097560976,-0.8046875,-0.0361328125,0.5078125
967,5.57,IMU0,4.146341463414634,152.25609756097563,36.524390243902445,-0.8134765625,-0.046875,0.53125
968,5.57,IMU1,3.8414634146341466,152.25609756097563,34.146341463414636,-0.8134765625,-0.0380859375,0.4853515625
969,5.58,IMU0,3.8414634146341466,153.53658536585368,29.451219512195124,-0.8203125,-0.0283203125,0.5078125
970,5.58,IMU1,3.536585365853659,153.47560975609758,27.012195121951223,-0.8193359375,-0.01953125,0.4658203125
971,5.59,IMU0,2.378048780487805,153.2926829268293,22.31707317073171,-0.8369140625,-0.0009765625,0.458984375
972,5.59,IMU1,2.073170731707317,153.2317073170732,20.0,-0.8349609375,0.0078125,0.4150390625
973,5.6,IMU0,0.6097560975609757,155.0,15.79268292682927,-0.86328125,0.021484375,0.412109375
974,5.6,IMU1,0.3658536585365854,154.87804878048783,13.475609756097562,-0.861328125,0.0283203125,0.3701171875
975,5.61,IMU0,-0.7317073170731708,158.53658536585368,10.914634146341465,-0.880859375,0.0380859375,0.380859375
976,5.61,IMU1,-0.9756097560975611,158.35365853658539,8.536585365853659,-0.8779296875,0.0458984375,0.337890625
977,5.62,IMU0,-0.853658536585366,163.2317073170732,8.78048780487805,-0.87890625,0.060546875,0.3544921875
978,5.62,IMU1,-1.1585365853658538,163.0487804878049,6.402439024390245,-0.87109375,0.068359375,0.3095703125
979,5.63,IMU0,-0.24390243902439027,167.13414634146343,10.121951219512196,-0.861328125,0.0859375,0.33203125
980,5.63,IMU1,-0.48780487804878053,167.01219512195124,7.621951219512196,-0.8486328125,0.0927734375,0.287109375
981,5.64,IMU0,1.0975609756097562,168.0487804878049,14.26829268292683,-0.8583984375,0.1083984375,0.298828125
982,5.64,IMU1,0.7926829268292683,167.9878048780488,11.76829268292683,-0.8427734375,0.1171875,0.2529296875
983,5.65,IMU0,3.048780487804878,168.53658536585368,19.878048780487806,-0.8798828125,0.119140625,0.2548828125
984,5.65,IMU1,2.7439024390243905,168.41463414634148,17.31707317073171,-0.8623046875,0.1279296875,0.2080078125
985,5.66,IMU0,5.731707317073171,171.28048780487805,26.34146341463415,-0.9091796875,0.1240234375,0.220703125
986,5.66,IMU1,5.365853658536586,171.21951219512198,23.719512195121954,-0.8896484375,0.1318359375,0.171875
987,5.67,IMU0,7.865853658536586,175.4268292682927,33.53658536585366,-0.935546875,0.125,0.1962890625
988,5.67,IMU1,7.500000000000001,175.3658536585366,30.914634146341466,-0.9169921875,0.1337890625,0.1494140625
989,5.68,IMU0,9.695121951219512,180.4268292682927,41.21951219512196,-0.94921875,0.1142578125,0.1806640625
990,5.68,IMU1,9.329268292682928,180.3658536585366,38.47560975609756,-0.9296875,0.123046875,0.1328125
991,5.69,IMU0,11.219512195121952,185.7926829268293,48.84146341463415,-0.9453125,0.1123046875,0.16796875
992,5.69,IMU1,10.914634146341465,185.7926829268293,45.97560975609756,-0.927734375,0.12109375,0.123046875
993,5.7,IMU0,11.951219512195124,189.51219512195124,56.09756097560976,-0.9375,0.111328125,0.15234375
994,5.7,IMU1,11.646341463414634,189.57317073170734,53.23170731707317,-0.919921875,0.1201171875,0.10546875
995,5.71,IMU0,12.865853658536587,192.01219512195124,62.31707317073171,-0.9296875,0.11328125,0.1279296875
996,5.71,IMU1,12.500000000000002,192.07317073170734,59.451219512195124,-0.9130859375,0.1220703125,0.08203125
997,5.72,IMU0,14.817073170731708,193.53658536585368,67.07317073170732,-0.9208984375,0.11328125,0.111328125
998,5.72,IMU1,14.51219512195122,193.65853658536588,64.26829268292684,-0.90625,0.1220703125,0.064453125
999,5.73,IMU0,17.804878048780488,193.59756097560978,70.60975609756098,-0.8974609375,0.1171875,0.09375
1000,5.73,IMU1,17.439024390243905,193.71951219512198,67.8048780487805,-0.884765625,0.1279296875,0.046875
1001,5.74,IMU0,20.243902439024392,189.45121951219514,72.6829268292683,-0.876953125,0.115234375,0.083984375
1002,5.74,IMU1,19.878048780487806,189.63414634146343,69.93902439024392,-0.865234375,0.125,0.037109375
1003,5.75,IMU0,21.158536585365855,182.07317073170734,72.5,-0.8623046875,0.1064453125,0.05859375
1004,5.75,IMU1,20.731707317073173,182.19512195121953,69.87804878048782,-0.8544921875,0.1162109375,0.0126953125
1005,5.76,IMU0,20.60975609756098,173.65853658536588,69.39024390243902,-0.865234375,0.099609375,0.025390625
1006,5.76,IMU1,20.0609756097561,173.84146341463415,66.95121951219512,-0.859375,0.1083984375,-0.017578125
1007,5.77,IMU0,18.658536585365855,165.1219512195122,63.04878048780488,-0.880859375,0.09765625,-0.0205078125
1008,5.77,IMU1,18.170731707317074,165.2439024390244,60.67073170731708,-0.8779296875,0.1064453125,-0.0625
1009,5.78,IMU0,15.975609756097562,158.96341463414635,54.085365853658544,-0.900390625,0.1044921875,-0.0673828125
1010,5.78,IMU1,15.609756097560977,159.08536585365854,51.82926829268293,-0.8994140625,0.1142578125,-0.1064453125
1011,5.79,IMU0,13.597560975609758,155.0609756097561,43.59756097560976,-0.912109375,0.1318359375,-0.12109375
1012,5.79,IMU1,13.109756097560977,155.0,41.40243902439025,-0.9130859375,0.1396484375,-0.1611328125
1013,5.8,IMU0,12.865853658536587,153.47560975609758,33.41463414634146,-0.9169921875,0.1611328125,-0.1630859375
1014,5.8,IMU1,12.378048780487806,153.41463414634148,31.280487804878053,-0.9130859375,0.169921875,-0.2060546875
1015,5.81,IMU0,14.939024390243905,152.25609756097563,26.03658536585366,-0.91015625,0.1982421875,-0.1953125
1016,5.81,IMU1,14.51219512195122,152.19512195121953,23.902439024390247,-0.9033203125,0.20703125,-0.2431640625
1017,5.82,IMU0,19.390243902439025,149.20731707317074,22.5609756097561,-0.91015625,0.2275390625,-0.220703125
1018,5.82,IMU1,18.902439024390244,149.08536585365854,20.426829268292686,-0.8984375,0.2373046875,-0.2705078125
1019,5.83,IMU0,24.695121951219516,145.3048780487805,22.865853658536587,-0.912109375,0.240234375,-0.2451171875
1020,5.83,IMU1,24.207317073170735,145.1219512195122,20.60975609756098,-0.896484375,0.25,-0.2939453125
1021,5.84,IMU0,28.719512195121954,141.52439024390245,25.914634146341466,-0.9091796875,0.23828125,-0.263671875
1022,5.84,IMU1,28.231707317073173,141.34146341463415,23.658536585365855,-0.890625,0.2470703125,-0.3076171875
1023,5.85,IMU0,29.75609756097561,137.25609756097563,30.30487804878049,-0.9013671875,0.234375,-0.28515625
1024,5.85,IMU1,29.32926829268293,137.13414634146343,28.10975609756098,-0.8837890625,0.244140625,-0.326171875
1025,5.86,IMU0,27.987804878048784,132.8048780487805,34.390243902439025,-0.8974609375,0.228515625,-0.3125
1026,5.86,IMU1,27.500000000000004,132.6829268292683,32.25609756097561,-0.8798828125,0.23828125,-0.3525390625
1027,5.87,IMU0,24.81707317073171,127.92682926829269,37.31707317073171,-0.8994140625,0.2353515625,-0.34375
1028,5.87,IMU1,24.390243902439025,127.8658536585366,35.36585365853659,-0.884765625,0.24609375,-0.380859375
1029,5.88,IMU0,21.890243902439025,124.39024390243904,39.024390243902445,-0.9169921875,0.25,-0.3837890625
1030,5.88,IMU1,21.402439024390247,124.26829268292684,37.13414634146342,-0.9033203125,0.2607421875,-0.423828125
1031,5.89,IMU0,21.28048780487805,122.31707317073172,40.0,-0.9345703125,0.2578125,-0.39453125
1032,5.89,IMU1,20.79268292682927,122.25609756097562,38.170731707317074,-0.919921875,0.2705078125,-0.4375
1033,5.9,IMU0,23.10975609756098,119.20731707317074,40.54878048780488,-0.94140625,0.267578125,-0.4033203125
1034,5.9,IMU1,22.5609756097561,119.14634146341464,38.71951219512196,-0.92578125,0.279296875,-0.4453125
1035,5.91,IMU0,25.853658536585368,115.3658536585366,40.1829268292683,-0.9521484375,0.2685546875,-0.4150390625
1036,5.91,IMU1,25.30487804878049,115.2439024390244,38.35365853658537,-0.9384765625,0.2802734375,-0.458984375
1037,5.92,IMU0,28.04878048780488,112.92682926829269,38.47560975609756,-0.958984375,0.26171875,-0.4384765625
1038,5.92,IMU1,27.500000000000004,112.7439024390244,36.82926829268293,-0.9462890625,0.2724609375,-0.482421875
1039,5.93,IMU0,28.902439024390247,111.64634146341464,35.79268292682927,-0.955078125,0.259765625,-0.4521484375
1040,5.93,IMU1,28.353658536585368,111.52439024390245,34.146341463414636,-0.9443359375,0.2705078125,-0.494140625
1041,5.94,IMU0,28.170731707317074,110.60975609756099,32.37804878048781,-0.94921875,0.2607421875,-0.4814453125
1042,5.94,IMU1,27.621951219512198,110.48780487804879,30.670731707317074,-0.939453125,0.271484375,-0.5234375
1043,5.95,IMU0,27.25609756097561,111.28048780487806,28.170731707317074,-0.935546875,0.2607421875,-0.4951171875
1044,5.95,IMU1,26.76829268292683,111.03658536585367,26.52439024390244,-0.9267578125,0.271484375,-0.5390625
1045,5.96,IMU0,27.500000000000004,110.85365853658537,24.695121951219516,-0.91015625,0.265625,-0.5009765625
1046,5.96,IMU1,27.012195121951223,110.60975609756099,23.04878048780488,-0.8984375,0.2763671875,-0.5439453125
1047,5.97,IMU0,29.02439024390244,108.65853658536587,22.80487804878049,-0.880859375,0.267578125,-0.5009765625
1048,5.97,IMU1,28.475609756097562,108.41463414634147,21.158536585365855,-0.8671875,0.2783203125,-0.5439453125
1049,5.98,IMU0,30.60975609756098,103.65853658536587,22.682926829268293,-0.8525390625,0.2666015625,-0.50390625
1050,5.98,IMU1,30.0609756097561,103.53658536585367,21.03658536585366,-0.8388671875,0.2763671875,-0.5478515625
1051,5.99,IMU0,30.914634146341466,97.31707317073172,23.78048780487805,-0.822265625,0.26171875,-0.5244140625
1052,5.99,IMU1,30.426829268292686,97.19512195121952,22.195121951219512,-0.80859375,0.2724609375,-0.5654296875
1053,6.0,IMU0,29.02439024390244,90.2439024390244,24.878048780487806,-0.796875,0.255859375,-0.54296875
1054,6.0,IMU1,28.53658536585366,90.1829268292683,23.353658536585368,-0.783203125,0.2666015625,-0.5791015625
1055,6.01,IMU0,25.54878048780488,82.01219512195122,24.695121951219516,-0.78125,0.2490234375,-0.560546875
1056,6.01,IMU1,25.121951219512198,81.95121951219512,23.29268292682927,-0.7685546875,0.2607421875,-0.599609375
1057,6.02,IMU0,22.31707317073171,73.96341463414635,22.439024390243905,-0.7802734375,0.244140625,-0.5810546875
1058,6.02,IMU1,21.76829268292683,73.90243902439025,21.219512195121954,-0.771484375,0.25390625,-0.62109375
1059,6.03,IMU0,20.48780487804878,68.65853658536587,18.53658536585366,-0.78515625,0.236328125,-0.5888671875
1060,6.03,IMU1,19.939024390243905,68.47560975609757,17.439024390243905,-0.775390625,0.2470703125,-0.6318359375
1061,6.04,IMU0,20.426829268292686,64.26829268292684,13.841463414634148,-0.7880859375,0.2265625,-0.5869140625
1062,6.04,IMU1,19.75609756097561,64.08536585365854,12.80487804878049,-0.7802734375,0.23828125,-0.6279296875
1063,6.05,IMU0,20.914634146341466,61.21951219512196,8.719512195121952,-0.7900390625,0.216796875,-0.5859375
1064,6.05,IMU1,20.30487804878049,60.91463414634147,7.682926829268293,-0.7802734375,0.228515625,-0.6259765625
1065,6.06,IMU0,21.219512195121954,57.560975609756106,3.780487804878049,-0.7841796875,0.2177734375,-0.580078125
1066,6.06,IMU1,20.670731707317074,56.89024390243903,2.3170731707317076,-0.775390625,0.2275390625,-0.619140625
1067,6.07,IMU0,20.79268292682927,52.743902439024396,-0.7317073170731708,-0.787109375,0.2197265625,-0.6015625
1068,6.07,IMU1,20.182926829268293,52.07317073170732,-2.0121951219512195,-0.7783203125,0.2314453125,-0.6416015625
1069,6.08,IMU0,20.30487804878049,50.60975609756098,-4.75609756097561,-0.7998046875,0.228515625,-0.6337890625
1070,6.08,IMU1,19.75609756097561,50.1829268292683,-6.097560975609756,-0.7890625,0.23828125,-0.673828125
1071,6.09,IMU0,20.54878048780488,50.73170731707317,-7.560975609756098,-0.806640625,0.2373046875,-0.6455078125
1072,6.09,IMU1,20.0609756097561,50.304878048780495,-8.719512195121952,-0.7939453125,0.2490234375,-0.6875
1073,6.1,IMU0,21.03658536585366,51.40243902439025,-7.439024390243903,-0.7998046875,0.2412109375,-0.654296875
1074,6.1,IMU1,20.426829268292686,50.97560975609756,-8.414634146341465,-0.7822265625,0.2529296875,-0.693359375
1075,6.11,IMU0,20.0,51.646341463414636,-4.573170731707317,-0.783203125,0.2451171875,-0.6513671875
1076,6.11,IMU1,19.26829268292683,51.09756097560976,-5.426829268292684,-0.7626953125,0.255859375,-0.6884765625
1077,6.12,IMU0,17.31707317073171,49.32926829268293,-0.30487804878048785,-0.77734375,0.244140625,-0.658203125
1078,6.12,IMU1,16.52439024390244,48.78048780487805,-1.0975609756097562,-0.7568359375,0.2548828125,-0.6953125
1079,6.13,IMU0,15.000000000000002,47.6219512195122,3.5975609756097566,-0.7763671875,0.2373046875,-0.6748046875
1080,6.13,IMU1,14.26829268292683,47.19512195121952,2.804878048780488,-0.7578125,0.2470703125,-0.7138671875
1081,6.14,IMU0,13.231707317073171,47.86585365853659,6.707317073170732,-0.76953125,0.2265625,-0.6767578125
1082,6.14,IMU1,12.621951219512196,47.50000000000001,5.914634146341464,-0.7509765625,0.236328125,-0.71484375
1083,6.15,IMU0,13.231707317073171,47.86585365853659,6.707317073170732,-0.76953125,0.2265625,-0.6767578125
1084,6.15,IMU1,11.463414634146343,45.91463414634147,8.414634146341465,-0.734375,0.228515625,-0.701171875
1085,6.16,IMU0,10.670731707317074,42.6219512195122,10.853658536585368,-0.736328125,0.21484375,-0.6689453125
1086,6.16,IMU1,9.817073170731708,42.07317073170732,9.939024390243903,-0.7216796875,0.2255859375,-0.7080078125
1087,6.17,IMU0,8.048780487804878,37.743902439024396,9.939024390243903,-0.7412109375,0.212890625,-0.6953125
1088,6.17,IMU1,7.134146341463415,37.19512195121951,8.902439024390244,-0.73046875,0.224609375,-0.7333984375
1089,6.18,IMU0,5.914634146341464,34.81707317073171,6.341463414634147,-0.755859375,0.216796875,-0.7236328125
1090,6.18,IMU1,5.121951219512195,34.390243902439025,5.182926829268293,-0.74609375,0.228515625,-0.7646484375
1091,6.19,IMU0,5.670731707317073,34.207317073170735,1.3414634146341464,-0.759765625,0.224609375,-0.734375
1092,6.19,IMU1,5.0,33.78048780487805,0.24390243902439027,-0.75,0.2373046875,-0.779296875
1093,6.2,IMU0,7.073170731707318,32.5609756097561,-3.1707317073170733,-0.7568359375,0.232421875,-0.7353515625
1094,6.2,IMU1,6.52439024390244,32.07317073170732,-4.2682926829268295,-0.74609375,0.2451171875,-0.7802734375
1095,6.21,IMU0,9.02439024390244,29.512195121951223,-6.158536585365854,-0.7529296875,0.236328125,-0.7373046875
1096,6.21,IMU1,8.536585365853659,28.902439024390247,-7.073170731707318,-0.7392578125,0.248046875,-0.7822265625
1097,6.22,IMU0,10.24390243902439,25.975609756097562,-7.317073170731708,-0.75,0.23828125,-0.74609375
1098,6.22,IMU1,9.634146341463415,25.30487804878049,-8.109756097560977,-0.7353515625,0.248046875,-0.7900390625
1099,6.23,IMU0,9.817073170731708,21.890243902439025,-6.829268292682928,-0.7470703125,0.236328125,-0.7578125
1100,6.23,IMU1,9.085365853658537,21.219512195121954,-7.500000000000001,-0.73046875,0.24609375,-0.7978515625
1101,6.24,IMU0,8.048780487804878,17.25609756097561,-5.365853658536586,-0.7412109375,0.234375,-0.7646484375
1102,6.24,IMU1,7.195121951219513,16.52439024390244,-5.853658536585367,-0.724609375,0.2451171875,-0.802734375
1103,6.25,IMU0,5.487804878048781,11.463414634146343,-3.7195121951219514,-0.740234375,0.2333984375,-0.7724609375
1104,6.25,IMU1,4.573170731707317,10.670731707317074,-4.207317073170732,-0.7236328125,0.2431640625,-0.8115234375
1105,6.26,IMU0,2.987804878048781,5.670731707317073,-2.6219512195121952,-0.740234375,0.2333984375,-0.7841796875
1106,6.26,IMU1,2.0121951219512195,4.939024390243903,-3.1707317073170733,-0.724609375,0.244140625,-0.8232421875
1107,6.27,IMU0,1.2804878048780488,0.30487804878048785,-2.1951219512195124,-0.7421875,0.2314453125,-0.787109375
1108,6.27,IMU1,0.426829268292683,-0.3658536585365854,-2.682926829268293,-0.7275390625,0.2421875,-0.8271484375
1109,6.28,IMU0,0.5487804878048781,-5.060975609756098,-2.1341463414634148,-0.7412109375,0.2265625,-0.7822265625
1110,6.28,IMU1,-0.1829268292682927,-5.853658536585367,-2.5,-0.7255859375,0.236328125,-0.822265625
1111,6.29,IMU0,0.1829268292682927,-11.219512195121952,-1.6463414634146343,-0.734375,0.21875,-0.76953125
1112,6.29,IMU1,-0.6707317073170732,-11.951219512195124,-2.0121951219512195,-0.7177734375,0.228515625,-0.80859375
1113,6.3,IMU0,-1.402439024390244,-18.963414634146343,-0.9146341463414634,-0.73046875,0.2138671875,-0.7626953125
1114,6.3,IMU1,-2.3170731707317076,-19.878048780487806,-1.1585365853658538,-0.71484375,0.224609375,-0.798828125
1115,6.31,IMU0,-4.51219512195122,-28.231707317073173,-0.5487804878048781,-0.73828125,0.2099609375,-0.76953125
1116,6.31,IMU1,-5.548780487804878,-29.08536585365854,-0.6707317073170732,-0.724609375,0.220703125,-0.802734375
1117,6.32,IMU0,-8.414634146341465,-36.28048780487805,-1.2195121951219514,-0.7548828125,0.2109375,-0.7802734375
1118,6.32,IMU1,-9.51219512195122,-37.01219512195122,-1.402439024390244,-0.7431640625,0.2216796875,-0.8134765625
1119,6.33,IMU0,-12.073170731707318,-43.170731707317074,-3.1097560975609757,-0.7744140625,0.21484375,-0.7802734375
