,ts,id,Gx,Gy,Gz,Ax,Ay,Az
0,-0.301,IMU0,-0.30487804878048785,-0.24390243902439027,-0.30487804878048785,0.0,0.994140625,-0.0234375
1,-0.301,IMU1,1.0975609756097562,-1.1585365853658538,0.0,-0.015625,1.0048828125,-0.0361328125
2,-0.301,IMU2,0.30487804878048785,0.30487804878048785,-0.426829268292683,0.00390625,0.9921875,-0.0078125
3,-0.291,IMU0,-0.30487804878048785,-0.30487804878048785,-0.30487804878048785,0.0,0.99609375,-0.0244140625
4,-0.291,IMU1,1.2195121951219514,-1.1585365853658538,-0.06097560975609757,-0.015625,1.005859375,-0.0361328125
5,-0.291,IMU2,0.30487804878048785,0.24390243902439027,-0.426829268292683,0.0029296875,0.994140625,-0.0087890625
6,-0.281,IMU0,-0.30487804878048785,-0.1829268292682927,-0.30487804878048785,0.0029296875,0.9931640625,-0.03125
7,-0.281,IMU1,1.0975609756097562,-1.0365853658536586,-0.06097560975609757,-0.015625,1.005859375,-0.0400390625
8,-0.281,IMU2,0.24390243902439027,0.3658536585365854,-0.3658536585365854,0.00390625,0.990234375,-0.0146484375
9,-0.271,IMU0,-0.30487804878048785,-0.06097560975609757,-0.30487804878048785,0.0009765625,0.9912109375,-0.0234375
10,-0.271,IMU1,1.0975609756097562,-0.9756097560975611,-0.06097560975609757,-0.0166015625,1.001953125,-0.0341796875
11,-0.271,IMU2,0.24390243902439027,0.48780487804878053,-0.30487804878048785,0.0029296875,0.98828125,-0.005859375
12,-0.261,IMU0,-0.30487804878048785,0.0,-0.30487804878048785,0.0009765625,0.99609375,-0.025390625
13,-0.261,IMU1,1.1585365853658538,-0.9146341463414634,0.0,-0.0166015625,1.005859375,-0.037109375
14,-0.261,IMU2,0.1829268292682927,0.6097560975609757,-0.30487804878048785,0.00390625,0.994140625,-0.0078125
15,-0.251,IMU0,-0.24390243902439027,-0.1829268292682927,-0.30487804878048785,0.0009765625,1.0,-0.021484375
16,-0.251,IMU1,1.0975609756097562,-1.0975609756097562,0.0,-0.0146484375,1.009765625,-0.0322265625
17,-0.251,IMU2,0.30487804878048785,0.24390243902439027,-0.3658536585365854,0.0029296875,0.9970703125,-0.0068359375
18,-0.241,IMU0,-0.30487804878048785,-0.30487804878048785,-0.30487804878048785,-0.0009765625,0.9912109375,-0.021484375
19,-0.241,IMU1,1.0975609756097562,-1.2195121951219514,0.0,-0.013671875,1.001953125,-0.0341796875
20,-0.241,IMU2,0.24390243902439027,0.1829268292682927,-0.30487804878048785,0.00390625,0.9892578125,-0.0029296875
21,-0.231,IMU0,-0.30487804878048785,-0.1829268292682927,-0.3658536585365854,0.0,0.9921875,-0.02734375
22,-0.231,IMU1,1.0975609756097562,-1.2195121951219514,-0.06097560975609757,-0.015625,1.001953125,-0.0390625
23,-0.231,IMU2,0.24390243902439027,0.30487804878048785,-0.3658536585365854,0.00390625,0.98828125,-0.01171875
24,-0.221,IMU0,-0.30487804878048785,-0.12195121951219513,-0.30487804878048785,0.0048828125,0.99609375,-0.0234375
25,-0.221,IMU1,1.0365853658536586,-1.0365853658536586,-0.06097560975609757,-0.0126953125,1.005859375,-0.03515625
26,-0.221,IMU2,0.24390243902439027,0.3658536585365854,-0.3658536585365854,0.0068359375,0.9951171875,-0.0048828125
27,-0.211,IMU0,-0.3658536585365854,-0.3658536585365854,-0.30487804878048785,0.0,0.998046875,-0.0244140625
28,-0.211,IMU1,1.0365853658536586,-1.2804878048780488,0.0,-0.0166015625,1.005859375,-0.0322265625
29,-0.211,IMU2,0.1829268292682927,0.1829268292682927,-0.3658536585365854,0.001953125,0.99609375,-0.0068359375
30,-0.201,IMU0,-0.3658536585365854,-0.48780487804878053,-0.30487804878048785,0.001953125,0.990234375,-0.0205078125
31,-0.201,IMU1,1.1585365853658538,-1.3414634146341464,-0.06097560975609757,-0.01171875,1.0009765625,-0.0380859375
32,-0.201,IMU2,0.1829268292682927,0.06097560975609757,-0.426829268292683,0.0068359375,0.98828125,-0.00390625
33,-0.191,IMU0,-0.30487804878048785,-0.30487804878048785,-0.24390243902439027,0.0029296875,0.9931640625,-0.0263671875
34,-0.191,IMU1,1.0975609756097562,-1.1585365853658538,0.0,-0.01171875,1.001953125,-0.0380859375
35,-0.191,IMU2,0.24390243902439027,0.30487804878048785,-0.3658536585365854,0.0068359375,0.9912109375,-0.0107421875
36,-0.181,IMU0,-0.30487804878048785,0.0,-0.24390243902439027,0.00390625,0.99609375,-0.0244140625
37,-0.181,IMU1,1.0975609756097562,-0.9146341463414634,0.0,-0.0107421875,1.005859375,-0.03515625
38,-0.181,IMU2,0.1829268292682927,0.5487804878048781,-0.30487804878048785,0.0048828125,0.99609375,-0.0107421875
39,-0.171,IMU0,-0.24390243902439027,-0.12195121951219513,-0.30487804878048785,0.0009765625,0.9970703125,-0.0244140625
40,-0.171,IMU1,1.0975609756097562,-1.0365853658536586,-0.12195121951219513,-0.013671875,1.005859375,-0.03515625
41,-0.171,IMU2,0.24390243902439027,0.3658536585365854,-0.3658536585365854,0.0009765625,0.9951171875,-0.005859375
42,-0.161,IMU0,-0.3658536585365854,-0.426829268292683,-0.3658536585365854,0.00390625,0.9951171875,-0.0244140625
43,-0.161,IMU1,1.0365853658536586,-1.2804878048780488,-0.06097560975609757,-0.01171875,1.00390625,-0.0322265625
44,-0.161,IMU2,0.24390243902439027,0.06097560975609757,-0.3658536585365854,0.005859375,0.9931640625,-0.0068359375
45,-0.151,IMU0,-0.30487804878048785,-0.426829268292683,-0.3658536585365854,0.0009765625,0.990234375,-0.02734375
46,-0.151,IMU1,1.0365853658536586,-1.3414634146341464,-0.12195121951219513,-0.013671875,0.9990234375,-0.0400390625
47,-0.151,IMU2,0.24390243902439027,0.06097560975609757,-0.3658536585365854,0.005859375,0.98828125,-0.0087890625
48,-0.141,IMU0,-0.30487804878048785,-0.1829268292682927,-0.426829268292683,0.00390625,0.9951171875,-0.0234375
49,-0.141,IMU1,1.0975609756097562,-1.1585365853658538,-0.12195121951219513,-0.01171875,1.0029296875,-0.0361328125
50,-0.141,IMU2,0.24390243902439027,0.30487804878048785,-0.426829268292683,0.0068359375,0.9921875,-0.0048828125
51,-0.131,IMU0,-0.30487804878048785,-0.1829268292682927,-0.3658536585365854,0.0029296875,1.0400390625,-0.0263671875
52,-0.131,IMU1,1.0365853658536586,-1.0365853658536586,-0.12195121951219513,-0.0126953125,1.0400390625,-0.0390625
53,-0.131,IMU2,0.24390243902439027,0.30487804878048785,-0.3658536585365854,0.005859375,1.029296875,-0.0126953125
54,-0.121,IMU0,-0.6097560975609757,-0.853658536585366,-0.12195121951219513,0.0546875,2.4296875,-0.0205078125
55,-0.121,IMU1,0.7317073170731708,-1.1585365853658538,0.24390243902439027,0.02734375,2.2958984375,-0.0341796875
56,-0.121,IMU2,0.06097560975609757,0.30487804878048785,-0.12195121951219513,0.0625,2.30859375,-0.00390625
57,-0.111,IMU0,-4.085365853658537,-4.878048780487806,1.7682926829268295,0.177734375,6.732421875,0.2041015625
58,-0.111,IMU1,-0.853658536585366,-5.731707317073171,1.829268292682927,0.080078125,6.5439453125,0.19921875
59,-0.111,IMU2,-3.5975609756097566,-4.207317073170732,1.6463414634146343,0.169921875,6.5771484375,0.2392578125
60,-0.101,IMU0,-8.658536585365855,-7.01219512195122,3.1707317073170733,0.0283203125,10.701171875,-0.099609375
61,-0.101,IMU1,-4.634146341463415,-7.439024390243903,3.048780487804878,-0.12109375,10.58203125,-0.0888671875
62,-0.101,IMU2,-7.743902439024391,-6.951219512195123,3.048780487804878,0.009765625,10.609375,-0.05859375
63,-0.091,IMU0,-5.548780487804878,-7.926829268292684,1.524390243902439,0.15234375,12.640625,-0.41796875
64,-0.091,IMU1,-1.402439024390244,-8.658536585365855,1.524390243902439,-0.021484375,12.5947265625,-0.4169921875
65,-0.091,IMU2,-5.914634146341464,-9.02439024390244,1.5853658536585367,0.1376953125,12.6005859375,-0.380859375
66,-0.081,IMU0,-1.4634146341463417,2.5609756097560976,0.7317073170731708,0.1552734375,13.759765625,-0.091796875
67,-0.081,IMU1,1.6463414634146343,1.0975609756097562,0.853658536585366,-0.0302734375,13.7177734375,-0.1279296875
68,-0.081,IMU2,-1.707317073170732,0.853658536585366,0.7926829268292683,0.1357421875,13.7353515625,-0.08203125
69,-0.071,IMU0,-0.12195121951219513,5.060975609756098,-0.06097560975609757,0.2421875,14.5283203125,-0.3017578125
70,-0.071,IMU1,3.231707317073171,4.085365853658537,0.0,-0.015625,14.541015625,-0.28125
71,-0.071,IMU2,0.48780487804878053,5.182926829268293,-0.06097560975609757,0.203125,14.5263671875,-0.2841796875
72,-0.061,IMU0,0.12195121951219513,3.7195121951219514,-0.7317073170731708,0.2783203125,14.7275390625,-0.099609375
73,-0.061,IMU1,2.9268292682926833,1.9512195121951221,-0.6707317073170732,0.0654296875,14.7265625,-0.1689453125
74,-0.061,IMU2,0.1829268292682927,4.2682926829268295,-0.6097560975609757,0.2412109375,14.732421875,-0.078125
75,-0.051,IMU0,-0.48780487804878053,-6.646341463414635,-1.524390243902439,0.19140625,14.5634765625,0.041015625
76,-0.051,IMU1,1.829268292682927,-8.475609756097562,-1.3414634146341464,-0.0634765625,14.57421875,0.0146484375
77,-0.051,IMU2,-0.7926829268292683,-6.890243902439025,-1.402439024390244,0.1455078125,14.5849609375,0.115234375
78,-0.041,IMU0,-1.3414634146341464,-17.073170731707318,-1.707317073170732,0.1982421875,14.3740234375,0.005859375
79,-0.041,IMU1,1.3414634146341464,-17.98780487804878,-1.6463414634146343,-0.0322265625,14.375,-0.07421875
80,-0.041,IMU2,-1.2195121951219514,-17.012195121951223,-1.7682926829268295,0.16015625,14.3935546875,0.0439453125
81,-0.031,IMU0,-1.1585365853658538,-17.621951219512198,-1.7682926829268295,0.1162109375,14.1474609375,0.119140625
82,-0.031,IMU1,0.853658536585366,-18.353658536585368,-1.524390243902439,-0.0859375,14.1259765625,0.0634765625
83,-0.031,IMU2,-1.5853658536585367,-17.621951219512198,-1.707317073170732,0.083984375,14.1748046875,0.1513671875
84,-0.021,IMU0,-0.6097560975609757,-17.134146341463417,-1.402439024390244,0.185546875,13.6025390625,-0.037109375
85,-0.021,IMU1,0.9146341463414634,-18.658536585365855,-1.0975609756097562,-0.052734375,13.5693359375,-0.009765625
86,-0.021,IMU2,-0.3658536585365854,-16.52439024390244,-1.402439024390244,0.15625,13.62890625,-0.0009765625
87,-0.011,IMU0,0.1829268292682927,-22.80487804878049,-1.0365853658536586,0.1962890625,13.0419921875,0.0380859375
88,-0.011,IMU1,1.7682926829268295,-24.085365853658537,-0.7926829268292683,-0.041015625,13.01171875,0.0732421875
89,-0.011,IMU2,0.6707317073170732,-21.82926829268293,-1.0975609756097562,0.1533203125,13.064453125,0.0625
90,-0.001,IMU0,0.5487804878048781,-22.621951219512198,-1.402439024390244,0.1787109375,12.5361328125,-0.083984375
91,-0.001,IMU1,2.0121951219512195,-23.719512195121954,-1.1585365853658538,-0.0126953125,12.51953125,-0.1015625
92,-0.001,IMU2,0.9146341463414634,-22.012195121951223,-1.524390243902439,0.1416015625,12.5498046875,-0.046875
93,0.009,IMU0,1.0975609756097562,-22.98780487804878,-0.853658536585366,0.173828125,12.1748046875,-0.0869140625
94,0.009,IMU1,3.1097560975609757,-24.32926829268293,-0.6097560975609757,-0.0302734375,12.1669921875,-0.0693359375
95,0.009,IMU2,1.5853658536585367,-22.5609756097561,-0.9756097560975611,0.1455078125,12.1884765625,-0.052734375
96,0.019,IMU0,1.7682926829268295,-25.0609756097561,-1.1585365853658538,0.169921875,11.890625,-0.0673828125
97,0.019,IMU1,3.536585365853659,-25.914634146341466,-0.9756097560975611,-0.001953125,11.880859375,-0.0263671875
98,0.019,IMU2,2.1341463414634148,-24.75609756097561,-1.2195121951219514,0.142578125,11.9033203125,-0.0400390625
99,0.029,IMU0,2.5609756097560976,-23.902439024390247,-0.9146341463414634,0.1162109375,11.7099609375,-0.1298828125
100,0.029,IMU1,4.451219512195122,-24.81707317073171,-0.6707317073170732,-0.0625,11.705078125,-0.1962890625
101,0.029,IMU2,2.9268292682926833,-23.53658536585366,-0.9146341463414634,0.08984375,11.72265625,-0.11328125
102,0.039,IMU0,4.695121951219512,-21.463414634146343,-1.3414634146341464,0.15234375,11.53515625,-0.060546875
103,0.039,IMU1,6.402439024390245,-22.439024390243905,-1.0365853658536586,-0.013671875,11.525390625,-0.0556640625
104,0.039,IMU2,4.878048780487806,-20.975609756097562,-1.3414634146341464,0.1220703125,11.548828125,-0.021484375
105,0.049,IMU0,5.609756097560976,-21.158536585365855,-0.853658536585366,0.1513671875,11.3984375,-0.09375
106,0.049,IMU1,7.500000000000001,-21.76829268292683,-0.5487804878048781,-0.025390625,11.3974609375,-0.1123046875
107,0.049,IMU2,6.2804878048780495,-20.670731707317074,-0.9146341463414634,0.125,11.4111328125,-0.0771484375
108,0.059,IMU0,7.378048780487806,-20.60975609756098,-1.2804878048780488,0.115234375,11.2451171875,-0.091796875
109,0.059,IMU1,9.146341463414634,-21.28048780487805,-0.9756097560975611,-0.0439453125,11.23828125,-0.107421875
110,0.059,IMU2,7.987804878048781,-19.939024390243905,-1.2195121951219514,0.0908203125,11.2568359375,-0.0673828125
111,0.069,IMU0,8.414634146341465,-20.0609756097561,-1.3414634146341464,0.166015625,11.1298828125,-0.046875
112,0.069,IMU1,10.365853658536587,-20.79268292682927,-0.9756097560975611,-0.015625,11.150390625,-0.06640625
113,0.069,IMU2,9.085365853658537,-19.451219512195124,-1.2804878048780488,0.140625,11.1416015625,-0.013671875
114,0.079,IMU0,9.878048780487806,-19.451219512195124,-1.707317073170732,0.091796875,11.056640625,-0.0986328125
115,0.079,IMU1,11.646341463414634,-20.243902439024392,-1.402439024390244,-0.068359375,11.068359375,-0.123046875
116,0.079,IMU2,10.365853658536587,-19.02439024390244,-1.6463414634146343,0.072265625,11.0732421875,-0.08203125
117,0.089,IMU0,9.878048780487806,-19.451219512195124,-1.707317073170732,0.091796875,11.056640625,-0.0986328125
118,0.089,IMU1,12.378048780487806,-19.32926829268293,-1.402439024390244,-0.013671875,10.958984375,-0.0458984375
119,0.089,IMU2,11.219512195121952,-18.10975609756098,-1.707317073170732,0.12890625,10.974609375,0.0146484375
120,0.099,IMU0,11.646341463414634,-17.31707317073171,-2.073170731707317,0.09765625,10.8359375,-0.0771484375
121,0.099,IMU1,13.29268292682927,-18.231707317073173,-1.707317073170732,-0.056640625,10.83984375,-0.078125
122,0.099,IMU2,12.134146341463415,-16.82926829268293,-1.9512195121951221,0.0771484375,10.845703125,-0.0498046875
123,0.109,IMU0,12.439024390243903,-16.219512195121954,-2.3170731707317076,0.1328125,10.72265625,0.0087890625
124,0.109,IMU1,14.085365853658537,-17.012195121951223,-1.9512195121951221,-0.0185546875,10.7255859375,-0.044921875
125,0.109,IMU2,12.926829268292684,-15.79268292682927,-2.1951219512195124,0.1142578125,10.734375,0.0322265625
126,0.119,IMU0,13.29268292682927,-15.000000000000002,-2.7439024390243905,0.091796875,10.64453125,-0.0693359375
127,0.119,IMU1,15.121951219512196,-15.609756097560977,-2.378048780487805,-0.064453125,10.6455078125,-0.0908203125
128,0.119,IMU2,13.902439024390246,-14.390243902439027,-2.5609756097560976,0.0712890625,10.6494140625,-0.044921875
129,0.129,IMU0,14.390243902439027,-13.597560975609758,-3.1097560975609757,0.13671875,10.580078125,-0.0302734375
130,0.129,IMU1,16.03658536585366,-14.146341463414636,-2.682926829268293,-0.0205078125,10.59765625,-0.0380859375
131,0.129,IMU2,14.939024390243905,-12.926829268292684,-2.987804878048781,0.1123046875,10.59765625,0.0
132,0.139,IMU0,15.30487804878049,-12.134146341463415,-3.353658536585366,0.1083984375,10.533203125,-0.091796875
133,0.139,IMU1,16.951219512195124,-12.682926829268293,-2.987804878048781,-0.0478515625,10.5224609375,-0.0732421875
134,0.139,IMU2,15.79268292682927,-11.463414634146343,-3.231707317073171,0.0927734375,10.53125,-0.0498046875
135,0.149,IMU0,16.34146341463415,-10.792682926829269,-3.5975609756097566,0.1259765625,10.525390625,-0.015625
136,0.149,IMU1,17.743902439024392,-11.28048780487805,-3.231707317073171,-0.01953125,10.5302734375,-0.05078125
137,0.149,IMU2,16.82926829268293,-10.121951219512196,-3.4756097560975614,0.111328125,10.5361328125,0.0
138,0.159,IMU0,17.012195121951223,-9.02439024390244,-3.963414634146342,0.0986328125,10.5712890625,-0.08203125
139,0.159,IMU1,18.53658536585366,-9.451219512195122,-3.536585365853659,-0.0576171875,10.548828125,-0.076171875
140,0.159,IMU2,17.5609756097561,-8.353658536585366,-3.7195121951219514,0.076171875,10.5673828125,-0.0576171875
141,0.169,IMU0,17.926829268292686,-7.439024390243903,-4.451219512195122,0.1201171875,10.423828125,-0.0205078125
142,0.169,IMU1,19.451219512195124,-7.926829268292684,-4.024390243902439,-0.0361328125,10.4228515625,-0.02734375
143,0.169,IMU2,18.29268292682927,-6.829268292682928,-4.2682926829268295,0.095703125,10.4296875,0.01953125
144,0.179,IMU0,18.53658536585366,-5.731707317073171,-5.0,0.0927734375,10.28515625,-0.0556640625
145,0.179,IMU1,20.0609756097561,-6.158536585365854,-4.451219512195122,-0.0546875,10.296875,-0.064453125
146,0.179,IMU2,18.963414634146343,-5.121951219512195,-4.695121951219512,0.0732421875,10.2998046875,-0.021484375
147,0.189,IMU0,19.32926829268293,-4.207317073170732,-5.487804878048781,0.1162109375,10.2255859375,-0.0263671875
148,0.189,IMU1,20.853658536585368,-4.695121951219512,-5.0,-0.03125,10.2265625,-0.0244140625
149,0.189,IMU2,19.75609756097561,-3.536585365853659,-5.2439024390243905,0.0966796875,10.23046875,0.017578125
150,0.199,IMU0,19.939024390243905,-2.5609756097560976,-6.097560975609756,0.1005859375,10.23046875,-0.03515625
151,0.199,IMU1,21.28048780487805,-3.048780487804878,-5.548780487804878,-0.060546875,10.2119140625,-0.05078125
152,0.199,IMU2,20.365853658536587,-1.9512195121951221,-5.853658536585367,0.0693359375,10.2216796875,-0.0029296875
153,0.209,IMU0,20.426829268292686,-0.6097560975609757,-6.890243902439025,0.1142578125,10.2158203125,0.009765625
154,0.209,IMU1,21.646341463414636,-1.0365853658536586,-6.341463414634147,-0.0419921875,10.2294921875,-0.013671875
155,0.209,IMU2,20.731707317073173,0.06097560975609757,-6.585365853658537,0.0859375,10.2333984375,0.0302734375
156,0.219,IMU0,20.54878048780488,1.2804878048780488,-7.743902439024391,0.099609375,10.166015625,-0.0224609375
157,0.219,IMU1,21.890243902439025,0.7926829268292683,-7.195121951219513,-0.0517578125,10.16796875,-0.0380859375
158,0.219,IMU2,20.914634146341466,2.0121951219512195,-7.439024390243903,0.0771484375,10.171875,0.0078125
159,0.229,IMU0,20.54878048780488,2.8658536585365857,-8.597560975609756,0.111328125,10.0869140625,0.0400390625
160,0.229,IMU1,21.707317073170735,2.439024390243903,-8.109756097560977,-0.0390625,10.109375,0.0224609375
161,0.229,IMU2,20.79268292682927,3.658536585365854,-8.353658536585366,0.0888671875,10.1083984375,0.06640625
162,0.239,IMU0,20.182926829268293,4.329268292682928,-9.329268292682928,0.11328125,10.1064453125,-0.0224609375
163,0.239,IMU1,21.28048780487805,4.024390243902439,-8.841463414634147,-0.0380859375,10.0849609375,-0.0068359375
164,0.239,IMU2,20.48780487804878,5.182926829268293,-9.02439024390244,0.08984375,10.087890625,0.0322265625
165,0.249,IMU0,20.0609756097561,6.158536585365854,-10.426829268292684,0.1015625,10.0478515625,0.0537109375
166,0.249,IMU1,21.097560975609756,5.731707317073171,-9.939024390243903,-0.0478515625,10.0654296875,0.029296875
167,0.249,IMU2,20.30487804878049,7.01219512195122,-10.182926829268293,0.0791015625,10.0654296875,0.0751953125
168,0.259,IMU0,19.512195121951223,7.987804878048781,-11.463414634146343,0.111328125,10.0947265625,0.0478515625
169,0.259,IMU1,20.60975609756098,7.560975609756098,-10.975609756097562,-0.0341796875,10.1083984375,0.02734375
170,0.259,IMU2,19.81707317073171,8.841463414634147,-11.158536585365855,0.0927734375,10.109375,0.07421875
171,0.269,IMU0,19.02439024390244,10.121951219512196,-12.682926829268293,0.1005859375,10.0498046875,0.0400390625
172,0.269,IMU1,20.121951219512198,9.634146341463415,-12.195121951219512,-0.0439453125,10.0458984375,0.0419921875
173,0.269,IMU2,19.390243902439025,10.792682926829269,-12.378048780487806,0.0830078125,10.044921875,0.0927734375
174,0.279,IMU0,18.53658536585366,11.890243902439025,-13.78048780487805,0.1220703125,9.9755859375,0.0380859375
175,0.279,IMU1,19.573170731707318,11.28048780487805,-13.231707317073171,-0.037109375,9.998046875,0.037109375
176,0.279,IMU2,18.78048780487805,12.560975609756099,-13.475609756097562,0.091796875,10.0009765625,0.0830078125
177,0.289,IMU0,17.98780487804878,14.085365853658537,-15.182926829268293,0.109375,9.953125,0.0791015625
178,0.289,IMU1,19.085365853658537,13.353658536585368,-14.573170731707318,-0.0341796875,9.9560546875,0.068359375
179,0.289,IMU2,18.231707317073173,14.634146341463415,-14.817073170731708,0.09375,9.9580078125,0.1171875
180,0.299,IMU0,17.195121951219512,15.914634146341465,-16.03658536585366,0.146484375,9.9189453125,0.080078125
181,0.299,IMU1,18.170731707317074,15.243902439024392,-15.365853658536587,-0.0009765625,9.923828125,0.0546875
182,0.299,IMU2,17.5,16.463414634146343,-15.670731707317074,0.1240234375,9.92578125,0.0986328125
183,0.309,IMU0,16.585365853658537,17.682926829268293,-16.890243902439025,0.1181640625,9.9599609375,0.0888671875
184,0.309,IMU1,17.5,17.012195121951223,-16.158536585365855,-0.01953125,9.9541015625,0.0439453125
185,0.309,IMU2,16.82926829268293,18.231707317073173,-16.52439024390244,0.103515625,9.9580078125,0.0869140625
186,0.319,IMU0,15.487804878048783,19.512195121951223,-17.439024390243905,0.146484375,9.9306640625,0.10546875
187,0.319,IMU1,16.463414634146343,18.963414634146343,-16.82926829268293,0.001953125,9.94140625,0.0673828125
188,0.319,IMU2,15.853658536585368,20.121951219512198,-17.134146341463417,0.1318359375,9.9423828125,0.1162109375
189,0.329,IMU0,14.573170731707318,20.670731707317074,-17.5609756097561,0.1318359375,9.8779296875,0.1220703125
190,0.329,IMU1,15.487804878048783,20.182926829268293,-16.951219512195124,-0.0185546875,9.8857421875,0.09765625
191,0.329,IMU2,14.817073170731708,21.34146341463415,-17.195121951219512,0.1083984375,9.888671875,0.1484375
192,0.339,IMU0,13.414634146341465,22.500000000000004,-17.439024390243905,0.158203125,9.8544921875,0.1162109375
193,0.339,IMU1,14.390243902439027,21.890243902439025,-16.82926829268293,0.015625,9.8701171875,0.08984375
194,0.339,IMU2,13.719512195121952,23.170731707317074,-17.073170731707318,0.140625,9.8681640625,0.1337890625
195,0.349,IMU0,12.621951219512196,24.390243902439025,-17.31707317073171,0.1298828125,9.8271484375,0.1259765625
196,0.349,IMU1,13.597560975609758,23.719512195121954,-16.76829268292683,-0.015625,9.83984375,0.115234375
197,0.349,IMU2,12.926829268292684,25.0609756097561,-17.012195121951223,0.111328125,9.837890625,0.150390625
198,0.359,IMU0,11.52439024390244,26.402439024390247,-17.195121951219512,0.158203125,9.8203125,0.142578125
199,0.359,IMU1,12.439024390243903,25.731707317073173,-16.646341463414636,0.0107421875,9.826171875,0.1279296875
200,0.359,IMU2,11.890243902439025,27.073170731707318,-16.890243902439025,0.1396484375,9.828125,0.177734375
201,0.369,IMU0,10.853658536585368,28.292682926829272,-16.76829268292683,0.1435546875,9.888671875,0.11328125
202,0.369,IMU1,11.890243902439025,27.682926829268297,-16.219512195121954,-0.0107421875,9.900390625,0.14453125
203,0.369,IMU2,11.158536585365855,29.08536585365854,-16.52439024390244,0.1201171875,9.9013671875,0.162109375
204,0.379,IMU0,10.121951219512196,29.87804878048781,-16.402439024390244,0.169921875,9.8076171875,0.18359375
205,0.379,IMU1,11.036585365853659,29.32926829268293,-15.853658536585368,0.02734375,9.8193359375,0.1376953125
206,0.379,IMU2,10.426829268292684,30.670731707317074,-16.097560975609756,0.1513671875,9.818359375,0.2021484375
207,0.389,IMU0,9.634146341463415,31.52439024390244,-15.853658536585368,0.150390625,9.912109375,0.1748046875
208,0.389,IMU1,10.365853658536587,31.03658536585366,-15.30487804878049,0.0078125,9.9169921875,0.1552734375
209,0.389,IMU2,9.756097560975611,32.25609756097561,-15.54878048780488,0.1318359375,9.923828125,0.20703125
210,0.399,IMU0,9.02439024390244,32.926829268292686,-15.121951219512196,0.193359375,9.900390625,0.18359375
211,0.399,IMU1,9.817073170731708,32.31707317073171,-14.573170731707318,0.046875,9.9189453125,0.1669921875
212,0.399,IMU2,9.207317073170733,33.59756097560976,-14.817073170731708,0.17578125,9.916015625,0.2119140625
213,0.409,IMU0,8.170731707317074,34.024390243902445,-13.841463414634148,0.19140625,9.8056640625,0.166015625
214,0.409,IMU1,9.085365853658537,33.47560975609756,-13.414634146341465,0.0498046875,9.8173828125,0.140625
215,0.409,IMU2,8.475609756097562,34.69512195121951,-13.597560975609758,0.177734375,9.8173828125,0.1943359375
216,0.419,IMU0,7.01219512195122,35.30487804878049,-12.500000000000002,0.1904296875,9.7666015625,0.20703125
217,0.419,IMU1,7.865853658536586,34.63414634146342,-12.073170731707318,0.052734375,9.78125,0.18359375
218,0.419,IMU2,7.378048780487806,35.91463414634147,-12.195121951219512,0.1767578125,9.779296875,0.234375
219,0.429,IMU0,5.7926829268292686,36.15853658536586,-11.036585365853659,0.197265625,9.6728515625,0.1748046875
220,0.429,IMU1,6.707317073170732,35.609756097560975,-10.548780487804878,0.0576171875,9.6884765625,0.158203125
221,0.429,IMU2,6.158536585365854,36.890243902439025,-10.670731707317074,0.1845703125,9.6845703125,0.2060546875
222,0.439,IMU0,4.451219512195122,37.5609756097561,-9.817073170731708,0.1767578125,9.712890625,0.1767578125
223,0.439,IMU1,5.365853658536586,37.01219512195122,-9.329268292682928,0.03515625,9.71875,0.1650390625
224,0.439,IMU2,4.817073170731708,38.29268292682927,-9.51219512195122,0.16015625,9.7275390625,0.20703125
225,0.449,IMU0,2.9268292682926833,38.41463414634147,-8.658536585365855,0.1962890625,9.759765625,0.2060546875
226,0.449,IMU1,3.780487804878049,37.86585365853659,-8.170731707317074,0.0498046875,9.7705078125,0.189453125
227,0.449,IMU2,3.1707317073170733,39.268292682926834,-8.353658536585366,0.1806640625,9.771484375,0.2353515625
228,0.459,IMU0,1.3414634146341464,39.87804878048781,-7.500000000000001,0.1953125,9.759765625,0.20703125
229,0.459,IMU1,2.1951219512195124,39.146341463414636,-7.01219512195122,0.0546875,9.7705078125,0.1875
230,0.459,IMU2,1.5853658536585367,40.670731707317074,-7.25609756097561,0.1826171875,9.771484375,0.236328125
231,0.469,IMU0,-0.48780487804878053,41.09756097560976,-6.219512195121951,0.208984375,9.853515625,0.171875
232,0.469,IMU1,0.5487804878048781,40.487804878048784,-5.7926829268292686,0.0712890625,9.873046875,0.1845703125
233,0.469,IMU2,-0.06097560975609757,42.01219512195122,-6.036585365853659,0.1923828125,9.865234375,0.20703125
234,0.479,IMU0,-2.439024390243903,42.5609756097561,-4.75609756097561,0.20703125,9.83984375,0.212890625
235,0.479,IMU1,-1.524390243902439,41.768292682926834,-4.329268292682928,0.068359375,9.853515625,0.2021484375
236,0.479,IMU2,-2.073170731707317,43.35365853658537,-4.51219512195122,0.1953125,9.8515625,0.2412109375
237,0.489,IMU0,-4.51219512195122,43.78048780487805,-3.048780487804878,0.21484375,9.8701171875,0.1904296875
238,0.489,IMU1,-3.536585365853659,43.04878048780488,-2.6219512195121952,0.07421875,9.87109375,0.169921875
239,0.489,IMU2,-4.146341463414634,44.57317073170732,-2.804878048780488,0.2021484375,9.884765625,0.2275390625
240,0.499,IMU0,-6.7682926829268295,45.1219512195122,-1.707317073170732,0.1728515625,9.9892578125,0.2138671875
241,0.499,IMU1,-5.670731707317073,44.32926829268293,-1.2804878048780488,0.0361328125,10.0087890625,0.1552734375
242,0.499,IMU2,-6.463414634146342,45.97560975609756,-1.524390243902439,0.166015625,9.9970703125,0.2568359375
243,0.509,IMU0,-8.78048780487805,47.13414634146342,-0.5487804878048781,0.1962890625,9.818359375,0.1396484375
244,0.509,IMU1,-7.865853658536586,46.40243902439025,-0.1829268292682927,0.048828125,9.845703125,0.142578125
245,0.509,IMU2,-8.414634146341465,47.86585365853659,-0.3658536585365854,0.177734375,9.828125,0.1767578125
246,0.519,IMU0,-10.731707317073171,48.78048780487805,0.5487804878048781,0.171875,9.654296875,0.1875
247,0.519,IMU1,-9.817073170731708,47.926829268292686,0.853658536585366,0.0224609375,9.673828125,0.1962890625
248,0.519,IMU2,-10.365853658536587,49.63414634146342,0.7317073170731708,0.1591796875,9.6640625,0.208984375
249,0.529,IMU0,-12.621951219512196,51.15853658536586,1.402439024390244,0.1767578125,9.546875,0.12109375
250,0.529,IMU1,-11.707317073170733,50.1219512195122,1.829268292682927,0.0361328125,9.57421875,0.111328125
251,0.529,IMU2,-12.195121951219512,52.01219512195122,1.6463414634146343,0.1552734375,9.5439453125,0.185546875
252,0.539,IMU0,-14.329268292682928,53.59756097560976,2.25609756097561,0.154296875,9.462890625,0.1474609375
253,0.539,IMU1,-13.536585365853659,52.6219512195122,2.6219512195121952,0.0185546875,9.4814453125,0.1357421875
254,0.539,IMU2,-13.963414634146343,54.268292682926834,2.3170731707317076,0.1396484375,9.470703125,0.162109375
255,0.549,IMU0,-15.914634146341465,55.73170731707317,2.8658536585365857,0.1396484375,9.3740234375,0.1259765625
256,0.549,IMU1,-15.121951219512196,54.75609756097561,3.231707317073171,0.0048828125,9.390625,0.1044921875
257,0.549,IMU2,-15.609756097560977,56.524390243902445,2.9268292682926833,0.125,9.3828125,0.154296875
258,0.559,IMU0,-17.5,58.17073170731708,3.231707317073171,0.126953125,9.322265625,0.107421875
259,0.559,IMU1,-16.646341463414636,57.19512195121952,3.5975609756097566,-0.0078125,9.333984375,0.099609375
260,0.559,IMU2,-17.134146341463417,59.024390243902445,3.2926829268292686,0.111328125,9.3359375,0.134765625
261,0.569,IMU0,-18.84146341463415,60.54878048780488,3.4756097560975614,0.115234375,9.306640625,0.0751953125
262,0.569,IMU1,-18.10975609756098,59.57317073170732,3.780487804878049,-0.017578125,9.318359375,0.056640625
263,0.569,IMU2,-18.414634146341466,61.34146341463415,3.536585365853659,0.0986328125,9.31640625,0.09765625
264,0.579,IMU0,-19.878048780487806,63.17073170731708,3.414634146341464,0.1064453125,9.3046875,0.052734375
265,0.579,IMU1,-19.26829268292683,62.13414634146342,3.780487804878049,-0.025390625,9.3134765625,0.0380859375
266,0.579,IMU2,-19.512195121951223,63.963414634146346,3.4756097560975614,0.0927734375,9.3154296875,0.0947265625
267,0.589,IMU0,-20.731707317073173,65.60975609756098,3.414634146341464,0.1025390625,9.365234375,0.0341796875
268,0.589,IMU1,-20.182926829268293,64.57317073170732,3.7195121951219514,-0.03515625,9.376953125,0.033203125
269,0.589,IMU2,-20.426829268292686,66.34146341463415,3.4756097560975614,0.0849609375,9.369140625,0.06640625
270,0.599,IMU0,-21.402439024390247,67.8658536585366,3.231707317073171,0.099609375,9.357421875,0.029296875
271,0.599,IMU1,-20.975609756097562,66.89024390243902,3.536585365853659,-0.0380859375,9.3662109375,0.01171875
272,0.599,IMU2,-21.219512195121954,68.71951219512195,3.2926829268292686,0.0888671875,9.3642578125,0.0498046875
273,0.609,IMU0,-22.073170731707318,70.48780487804879,3.1707317073170733,0.0908203125,9.3486328125,-0.001953125
274,0.609,IMU1,-21.585365853658537,69.39024390243902,3.536585365853659,-0.044921875,9.35546875,-0.0126953125
275,0.609,IMU2,-21.707317073170735,71.34146341463415,3.231707317073171,0.076171875,9.353515625,0.01953125
276,0.619,IMU0,-22.743902439024392,73.29268292682927,2.682926829268293,0.0888671875,9.4365234375,0.0224609375
277,0.619,IMU1,-22.25609756097561,72.13414634146342,3.1097560975609757,-0.0546875,9.42578125,-0.0107421875
278,0.619,IMU2,-22.378048780487806,74.02439024390245,2.7439024390243905,0.0615234375,9.5087890625,0.0498046875
279,0.629,IMU0,-23.53658536585366,76.40243902439025,2.0121951219512195,0.087890625,9.5068359375,-0.0087890625
280,0.629,IMU1,-23.170731707317074,75.3658536585366,2.439024390243903,-0.04296875,9.51171875,-0.068359375
281,0.629,IMU2,-23.170731707317074,76.95121951219512,2.073170731707317,0.05078125,9.5693359375,0.0546875
282,0.639,IMU0,-23.84146341463415,79.39024390243902,1.0975609756097562,0.0625,9.4453125,-0.0908203125
283,0.639,IMU1,-23.475609756097562,78.41463414634147,1.5853658536585367,-0.0751953125,9.4599609375,-0.1044921875
284,0.639,IMU2,-23.475609756097562,80.3048780487805,1.1585365853658538,0.0478515625,9.4443359375,-0.0625
285,0.649,IMU0,-24.146341463414636,82.8658536585366,0.48780487804878053,0.0859375,9.330078125,-0.0869140625
286,0.649,IMU1,-23.84146341463415,81.70731707317074,0.9146341463414634,-0.052734375,9.337890625,-0.09765625
287,0.649,IMU2,-23.719512195121954,83.84146341463415,0.6097560975609757,0.0732421875,9.341796875,-0.0771484375
288,0.659,IMU0,-23.902439024390247,86.21951219512196,-0.1829268292682927,0.0615234375,9.3994140625,-0.1611328125
289,0.659,IMU1,-23.719512195121954,85.1829268292683,0.1829268292682927,-0.080078125,9.3740234375,-0.1787109375
290,0.659,IMU2,-23.353658536585368,87.31707317073172,-0.12195121951219513,0.046875,9.435546875,-0.142578125
291,0.669,IMU0,-23.658536585365855,89.87804878048782,-0.9146341463414634,0.0849609375,9.3232421875,-0.16015625
292,0.669,IMU1,-23.53658536585366,88.90243902439025,-0.48780487804878053,-0.05078125,9.33984375,-0.1787109375
293,0.669,IMU2,-23.353658536585368,90.91463414634147,-0.853658536585366,0.06640625,9.3232421875,-0.12890625
294,0.679,IMU0,-23.10975609756098,93.41463414634147,-1.524390243902439,0.06640625,9.2265625,-0.2109375
295,0.679,IMU1,-23.04878048780488,92.6219512195122,-1.0365853658536586,-0.06640625,9.236328125,-0.21484375
296,0.679,IMU2,-22.743902439024392,94.39024390243904,-1.3414634146341464,0.0537109375,9.2353515625,-0.17578125
297,0.689,IMU0,-22.25609756097561,96.89024390243904,-2.0121951219512195,0.083984375,9.1591796875,-0.228515625
298,0.689,IMU1,-22.195121951219512,96.28048780487806,-1.524390243902439,-0.0537109375,9.1708984375,-0.25390625
299,0.689,IMU2,-22.012195121951223,97.8658536585366,-1.829268292682927,0.0703125,9.1689453125,-0.1943359375
300,0.699,IMU0,-20.975609756097562,99.81707317073172,-2.5,0.064453125,9.158203125,-0.2568359375
301,0.699,IMU1,-21.03658536585366,99.14634146341464,-2.073170731707317,-0.0625,9.1796875,-0.2822265625
302,0.699,IMU2,-20.670731707317074,100.91463414634147,-2.378048780487805,0.056640625,9.1591796875,-0.201171875
303,0.709,IMU0,-19.207317073170735,102.8658536585366,-3.048780487804878,0.099609375,9.2021484375,-0.26171875
304,0.709,IMU1,-19.085365853658537,102.13414634146342,-2.5609756097560976,-0.029296875,9.2216796875,-0.28515625
305,0.709,IMU2,-18.78048780487805,103.84146341463415,-2.8658536585365857,0.0859375,9.220703125,-0.240234375
306,0.719,IMU0,-17.073170731707318,105.42682926829269,-3.2926829268292686,0.0927734375,9.162109375,-0.318359375
307,0.719,IMU1,-17.012195121951223,105.00000000000001,-2.7439024390243905,-0.03515625,9.166015625,-0.322265625
308,0.719,IMU2,-16.585365853658537,106.76829268292684,-3.1097560975609757,0.078125,9.17578125,-0.2958984375
309,0.729,IMU0,-14.878048780487806,108.65853658536587,-3.414634146341464,0.107421875,9.09765625,-0.3154296875
310,0.729,IMU1,-14.939024390243905,108.23170731707317,-2.804878048780488,-0.0283203125,9.0986328125,-0.3388671875
311,0.729,IMU2,-14.451219512195124,109.87804878048782,-3.1097560975609757,0.0908203125,9.111328125,-0.287109375
312,0.739,IMU0,-12.560975609756099,111.70731707317074,-3.353658536585366,0.109375,9.0546875,-0.34765625
313,0.739,IMU1,-12.560975609756099,111.34146341463416,-2.682926829268293,-0.0166015625,9.05859375,-0.3642578125
314,0.739,IMU2,-12.500000000000002,112.56097560975611,-2.987804878048781,0.0966796875,9.0615234375,-0.322265625
315,0.749,IMU0,-10.121951219512196,114.63414634146342,-3.231707317073171,0.111328125,9.0517578125,-0.3623046875
316,0.749,IMU1,-10.24390243902439,114.26829268292684,-2.5609756097560976,-0.0234375,9.064453125,-0.38671875
317,0.749,IMU2,-9.939024390243903,115.48780487804879,-2.7439024390243905,0.0947265625,9.056640625,-0.3408203125
318,0.759,IMU0,-7.378048780487806,117.92682926829269,-3.1707317073170733,0.111328125,9.041015625,-0.3671875
319,0.759,IMU1,-7.439024390243903,117.56097560975611,-2.5,-0.0224609375,9.0419921875,-0.41015625
320,0.759,IMU2,-7.25609756097561,118.65853658536587,-2.682926829268293,0.0966796875,9.048828125,-0.3603515625
321,0.769,IMU0,-4.634146341463415,120.73170731707319,-2.987804878048781,0.1201171875,9.0,-0.3603515625
322,0.769,IMU1,-4.634146341463415,120.3048780487805,-2.25609756097561,-0.017578125,9.001953125,-0.3681640625
323,0.769,IMU2,-4.573170731707317,121.64634146341464,-2.5,0.1015625,9.0107421875,-0.33203125
324,0.779,IMU0,-1.829268292682927,123.35365853658537,-2.6219512195121952,0.111328125,8.982421875,-0.3515625
325,0.779,IMU1,-2.0121951219512195,122.92682926829269,-1.8902439024390245,-0.01171875,8.9931640625,-0.3837890625
326,0.779,IMU2,-1.829268292682927,124.26829268292684,-2.1341463414634148,0.0966796875,8.9912109375,-0.337890625
327,0.789,IMU0,0.9756097560975611,126.03658536585367,-2.1951219512195124,0.1171875,9.0029296875,-0.3720703125
328,0.789,IMU1,0.7317073170731708,125.85365853658537,-1.4634146341463417,-0.0224609375,9.0087890625,-0.3671875
329,0.789,IMU2,1.0975609756097562,127.07317073170732,-1.6463414634146343,0.1005859375,9.0146484375,-0.3515625
330,0.799,IMU0,3.780487804878049,128.96341463414635,-2.073170731707317,0.1162109375,8.9560546875,-0.33203125
331,0.799,IMU1,3.4756097560975614,128.78048780487805,-1.2195121951219514,-0.0126953125,8.955078125,-0.359375
332,0.799,IMU2,3.9024390243902443,130.0,-1.402439024390244,0.0986328125,8.9658203125,-0.3134765625
333,0.809,IMU0,6.341463414634147,131.64634146341464,-1.402439024390244,0.13671875,8.90234375,-0.337890625
334,0.809,IMU1,5.975609756097562,131.40243902439025,-0.48780487804878053,0.001953125,8.908203125,-0.361328125
335,0.809,IMU2,6.402439024390245,132.6829268292683,-0.7926829268292683,0.1220703125,8.91015625,-0.3212890625
336,0.819,IMU0,8.78048780487805,134.20731707317074,-1.0365853658536586,0.1220703125,8.888671875,-0.30078125
337,0.819,IMU1,8.292682926829269,134.02439024390245,-0.1829268292682927,-0.0078125,8.900390625,-0.30859375
338,0.819,IMU2,8.78048780487805,135.3048780487805,-0.426829268292683,0.1064453125,8.896484375,-0.28125
339,0.829,IMU0,10.914634146341465,136.40243902439025,-0.426829268292683,0.1494140625,8.900390625,-0.30078125
340,0.829,IMU1,10.548780487804878,136.28048780487805,0.48780487804878053,0.0107421875,8.9150390625,-0.30859375
341,0.829,IMU2,10.975609756097562,137.5609756097561,0.24390243902439027,0.1337890625,8.9091796875,-0.279296875
342,0.839,IMU0,12.74390243902439,138.84146341463415,0.3658536585365854,0.1357421875,8.9169921875,-0.2431640625
343,0.839,IMU1,12.378048780487806,138.84146341463415,1.2195121951219514,0.0302734375,8.9228515625,-0.298828125
344,0.839,IMU2,12.926829268292684,140.0,1.0365853658536586,0.123046875,8.92578125,-0.2265625
345,0.849,IMU0,14.451219512195124,141.21951219512195,1.5853658536585367,0.1650390625,9.10546875,-0.2275390625
346,0.849,IMU1,13.78048780487805,141.34146341463415,2.5609756097560976,0.02734375,9.12890625,-0.296875
347,0.849,IMU2,14.634146341463415,142.5,2.378048780487805,0.1455078125,9.1181640625,-0.189453125
348,0.859,IMU0,15.182926829268293,144.14634146341464,1.829268292682927,0.0693359375,9.1689453125,-0.166015625
349,0.859,IMU1,14.634146341463415,144.02439024390245,2.804878048780488,-0.072265625,9.193359375,-0.2041015625
350,0.859,IMU2,15.426829268292684,145.3048780487805,2.7439024390243905,0.0478515625,9.1826171875,-0.134765625
351,0.869,IMU0,16.28048780487805,147.31707317073173,2.5,0.1435546875,9.0390625,-0.2236328125
352,0.869,IMU1,15.670731707317074,147.07317073170734,3.536585365853659,-0.0009765625,9.046875,-0.2177734375
353,0.869,IMU2,16.585365853658537,148.41463414634148,3.414634146341464,0.123046875,9.048828125,-0.1982421875
354,0.879,IMU0,17.5,149.63414634146343,3.048780487804878,0.0244140625,8.919921875,-0.158203125
355,0.879,IMU1,16.70731707317073,149.69512195121953,4.085365853658537,-0.0986328125,8.9189453125,-0.189453125
356,0.879,IMU2,17.743902439024392,150.7317073170732,3.9024390243902443,0.009765625,8.9267578125,-0.140625
357,0.889,IMU0,18.231707317073173,151.70731707317074,3.7195121951219514,0.1181640625,8.8017578125,-0.1259765625
358,0.889,IMU1,17.5609756097561,151.89024390243904,4.878048780487806,-0.005859375,8.806640625,-0.1435546875
359,0.889,IMU2,18.53658536585366,152.8658536585366,4.634146341463415,0.107421875,8.810546875,-0.1025390625
360,0.899,IMU0,18.597560975609756,153.59756097560978,4.51219512195122,0.0302734375,8.7412109375,-0.087890625
361,0.899,IMU1,17.865853658536587,153.71951219512195,5.487804878048781,-0.1015625,8.7490234375,-0.10546875
362,0.899,IMU2,18.902439024390244,154.63414634146343,5.365853658536586,0.0146484375,8.7490234375,-0.0634765625
363,0.909,IMU0,18.53658536585366,155.7317073170732,4.939024390243903,0.0634765625,8.78515625,-0.05859375
364,0.909,IMU1,17.682926829268293,155.7926829268293,5.975609756097562,-0.0517578125,8.841796875,-0.0595703125
365,0.909,IMU2,18.78048780487805,156.89024390243904,5.853658536585367,0.052734375,8.814453125,-0.03125
366,0.919,IMU0,17.98780487804878,158.2317073170732,5.365853658536586,-0.0556640625,8.8037109375,-0.0576171875
367,0.919,IMU1,17.073170731707318,158.2926829268293,6.2804878048780495,-0.1787109375,8.8154296875,-0.0400390625
368,0.919,IMU2,18.231707317073173,159.39024390243904,6.219512195121951,-0.072265625,8.814453125,-0.0068359375
369,0.929,IMU0,16.890243902439025,160.7926829268293,5.060975609756098,0.005859375,8.70703125,0.029296875
370,0.929,IMU1,15.914634146341465,160.7926829268293,6.097560975609756,-0.1123046875,8.7109375,0.0146484375
371,0.929,IMU2,17.134146341463417,161.95121951219514,5.975609756097562,-0.009765625,8.7109375,0.0576171875
372,0.939,IMU0,15.54878048780488,163.2317073170732,5.060975609756098,-0.091796875,8.6142578125,-0.001953125
373,0.939,IMU1,14.390243902439027,163.2926829268293,5.975609756097562,-0.2197265625,8.6162109375,-0.01171875
374,0.939,IMU2,15.670731707317074,164.39024390243904,5.975609756097562,-0.1103515625,8.619140625,0.033203125
375,0.949,IMU0,14.207317073170733,166.09756097560978,4.207317073170732,-0.0498046875,8.5703125,0.0703125
376,0.949,IMU1,13.170731707317074,166.15853658536588,5.182926829268293,-0.1728515625,8.57421875,0.05078125
377,0.949,IMU2,14.390243902439027,167.31707317073173,5.121951219512195,-0.064453125,8.5751953125,0.09765625
378,0.959,IMU0,12.682926829268293,168.71951219512198,3.353658536585366,-0.1015625,8.5341796875,0.03515625
379,0.959,IMU1,11.707317073170733,168.90243902439025,4.207317073170732,-0.2314453125,8.5498046875,0.0224609375
380,0.959,IMU2,12.926829268292684,170.0609756097561,4.207317073170732,-0.125,8.5458984375,0.0625
381,0.969,IMU0,10.975609756097562,171.34146341463415,2.0121951219512195,-0.07421875,8.5126953125,0.115234375
382,0.969,IMU1,10.060975609756099,171.28048780487805,2.987804878048781,-0.1884765625,8.525390625,0.107421875
383,0.969,IMU2,11.28048780487805,172.7439024390244,2.9268292682926833,-0.0869140625,8.5224609375,0.1416015625
384,0.979,IMU0,8.963414634146343,173.59756097560978,0.9146341463414634,-0.0859375,8.5888671875,0.0830078125
385,0.979,IMU1,7.926829268292684,173.2317073170732,1.8902439024390245,-0.189453125,8.7021484375,0.0859375
386,0.979,IMU2,9.146341463414634,174.69512195121953,1.829268292682927,-0.0947265625,8.65625,0.123046875
387,0.989,IMU0,6.829268292682928,175.5487804878049,-0.426829268292683,-0.0703125,8.7353515625,0.1005859375
388,0.989,IMU1,5.487804878048781,175.4268292682927,0.48780487804878053,-0.1904296875,8.73828125,0.12109375
389,0.989,IMU2,6.707317073170732,176.70731707317074,0.48780487804878053,-0.0849609375,8.736328125,0.1513671875
390,0.999,IMU0,4.75609756097561,177.6829268292683,-1.5853658536585367,-0.033203125,8.6396484375,0.1376953125
391,0.999,IMU1,3.414634146341464,177.37804878048783,-0.6707317073170732,-0.171875,8.646484375,0.099609375
392,0.999,IMU2,4.634146341463415,178.78048780487808,-0.7317073170731708,-0.0615234375,8.6484375,0.1318359375
393,1.009,IMU0,3.1097560975609757,179.32926829268294,-2.682926829268293,-0.0478515625,8.5,0.0673828125
394,1.009,IMU1,1.8902439024390245,179.14634146341464,-1.7682926829268295,-0.1787109375,8.49609375,0.078125
395,1.009,IMU2,3.048780487804878,180.5487804878049,-1.8902439024390245,-0.0673828125,8.4990234375,0.1123046875
396,1.019,IMU0,1.524390243902439,180.97560975609758,-3.4756097560975614,-0.0263671875,8.3505859375,0.087890625
397,1.019,IMU1,0.1829268292682927,180.5487804878049,-2.5,-0.1552734375,8.353515625,0.07421875
398,1.019,IMU2,1.402439024390244,182.07317073170734,-2.6219512195121952,-0.0478515625,8.3544921875,0.1201171875
399,1.029,IMU0,0.24390243902439027,182.13414634146343,-3.963414634146342,-0.0361328125,8.259765625,0.0419921875
400,1.029,IMU1,-1.0975609756097562,181.89024390243904,-2.9268292682926833,-0.1591796875,8.265625,0.0341796875
401,1.029,IMU2,0.3658536585365854,183.35365853658539,-3.1097560975609757,-0.0537109375,8.265625,0.076171875
402,1.039,IMU0,-0.7317073170731708,183.90243902439025,-4.329268292682928,-0.029296875,8.2412109375,0.0654296875
403,1.039,IMU1,-2.1341463414634148,183.78048780487808,-3.414634146341464,-0.140625,8.2470703125,0.0390625
404,1.039,IMU2,-0.5487804878048781,185.2439024390244,-3.536585365853659,-0.0361328125,8.2451171875,0.0849609375
405,1.049,IMU0,-1.3414634146341464,185.5487804878049,-4.634146341463415,-0.0302734375,8.2109375,0.0146484375
406,1.049,IMU1,-2.804878048780488,185.5487804878049,-3.7195121951219514,-0.15625,8.21875,0.015625
407,1.049,IMU2,-1.0365853658536586,186.82926829268294,-3.780487804878049,-0.052734375,8.2177734375,0.0556640625
408,1.059,IMU0,-1.9512195121951221,187.25609756097563,-5.060975609756098,-0.01171875,8.158203125,0.0771484375
409,1.059,IMU1,-3.5975609756097566,187.19512195121953,-4.085365853658537,-0.1318359375,8.1640625,0.0595703125
410,1.059,IMU2,-1.9512195121951221,188.47560975609758,-4.207317073170732,-0.0263671875,8.1640625,0.099609375
411,1.069,IMU0,-3.353658536585366,189.08536585365854,-4.939024390243903,-0.013671875,8.1357421875,0.009765625
412,1.069,IMU1,-4.51219512195122,188.71951219512198,-3.963414634146342,-0.138671875,8.1396484375,-0.0087890625
413,1.069,IMU2,-3.1707317073170733,190.00000000000003,-4.146341463414634,-0.0341796875,8.1396484375,0.0283203125
414,1.079,IMU0,-4.207317073170732,190.7926829268293,-5.060975609756098,-0.0078125,8.0712890625,0.025390625
415,1.079,IMU1,-5.182926829268293,190.4268292682927,-4.146341463414634,-0.126953125,8.0751953125,0.0126953125
416,1.079,IMU2,-3.9024390243902443,191.89024390243904,-4.207317073170732,-0.0234375,8.0732421875,0.05078125
417,1.089,IMU0,-5.060975609756098,192.43902439024393,-4.817073170731708,0.0126953125,8.0107421875,-0.0380859375
418,1.089,IMU1,-6.463414634146342,192.13414634146343,-3.8414634146341466,-0.1103515625,8.0146484375,-0.05078125
419,1.089,IMU2,-5.0,193.47560975609758,-3.963414634146342,-0.0078125,8.013671875,-0.013671875
420,1.099,IMU0,-5.426829268292684,193.78048780487808,-4.451219512195122,0.015625,7.962890625,-0.0390625
421,1.099,IMU1,-6.951219512195123,193.53658536585368,-3.4756097560975614,-0.10546875,7.970703125,-0.0478515625
422,1.099,IMU2,-5.426829268292684,195.06097560975613,-3.5975609756097566,-0.0029296875,7.970703125,-0.01171875
423,1.109,IMU0,-5.609756097560976,195.97560975609758,-3.8414634146341466,0.015625,7.955078125,-0.0908203125
424,1.109,IMU1,-7.134146341463415,195.6707317073171,-2.9268292682926833,-0.0927734375,7.962890625,-0.1201171875
425,1.109,IMU2,-5.609756097560976,197.07317073170734,-3.1097560975609757,0.0078125,7.9638671875,-0.0791015625
426,1.119,IMU0,-5.182926829268293,198.0487804878049,-3.536585365853659,0.017578125,7.9560546875,-0.1123046875
427,1.119,IMU1,-6.890243902439025,197.9268292682927,-2.5609756097560976,-0.095703125,7.9619140625,-0.1201171875
428,1.119,IMU2,-5.182926829268293,199.20731707317074,-2.804878048780488,0.0048828125,7.9609375,-0.0849609375
429,1.129,IMU0,-4.75609756097561,199.93902439024393,-3.1707317073170733,0.025390625,7.927734375,-0.154296875
430,1.129,IMU1,-6.341463414634147,199.69512195121953,-2.1341463414634148,-0.091796875,7.9208984375,-0.1767578125
431,1.129,IMU2,-4.75609756097561,201.15853658536588,-2.439024390243903,0.0126953125,7.921875,-0.138671875
432,1.139,IMU0,-4.329268292682928,202.07317073170734,-2.804878048780488,0.0380859375,8.0234375,-0.234375
433,1.139,IMU1,-5.609756097560976,201.58536585365854,-1.707317073170732,-0.0810546875,8.0439453125,-0.248046875
434,1.139,IMU2,-4.2682926829268295,203.2926829268293,-1.9512195121951221,0.0244140625,8.037109375,-0.21484375
435,1.149,IMU0,-3.2926829268292686,204.14634146341464,-2.1341463414634148,0.044921875,7.9716796875,-0.24609375
436,1.149,IMU1,-4.75609756097561,203.71951219512198,-1.0975609756097562,-0.0673828125,7.9853515625,-0.26171875
437,1.149,IMU2,-3.048780487804878,205.4268292682927,-1.2195121951219514,0.033203125,7.9814453125,-0.2255859375
438,1.159,IMU0,-1.8902439024390245,205.91463414634148,-1.4634146341463417,0.0595703125,7.904296875,-0.2861328125
439,1.159,IMU1,-3.2926829268292686,205.609756097561,-0.48780487804878053,-0.0595703125,7.9228515625,-0.306640625
440,1.159,IMU2,-1.7682926829268295,207.07317073170734,-0.5487804878048781,0.0458984375,7.9169921875,-0.2666015625
441,1.169,IMU0,-0.12195121951219513,207.25609756097563,-0.6097560975609757,0.0595703125,7.7626953125,-0.2724609375
442,1.169,IMU1,-1.5853658536585367,207.01219512195124,0.3658536585365854,-0.046875,7.779296875,-0.3037109375
443,1.169,IMU2,-0.1829268292682927,208.35365853658539,0.24390243902439027,0.0498046875,7.7724609375,-0.2568359375
444,1.179,IMU0,1.707317073170732,208.53658536585368,0.426829268292683,0.0810546875,7.6669921875,-0.2822265625
445,1.179,IMU1,0.3658536585365854,208.53658536585368,1.4634146341463417,-0.033203125,7.6865234375,-0.2861328125
446,1.179,IMU2,1.5853658536585367,209.75609756097563,1.3414634146341464,0.0693359375,7.6787109375,-0.2548828125
447,1.189,IMU0,3.658536585365854,209.51219512195124,1.9512195121951221,0.0947265625,7.5146484375,-0.27734375
448,1.189,IMU1,2.0121951219512195,209.63414634146343,2.987804878048781,-0.0087890625,7.5283203125,-0.3037109375
449,1.189,IMU2,3.2926829268292686,210.7926829268293,2.987804878048781,0.0859375,7.5234375,-0.26171875
450,1.199,IMU0,5.2439024390243905,211.64634146341464,3.536585365853659,0.0986328125,7.388671875,-0.2744140625
451,1.199,IMU1,3.536585365853659,211.58536585365854,4.51219512195122,-0.0146484375,7.4052734375,-0.291015625
452,1.199,IMU2,5.121951219512195,212.8048780487805,4.51219512195122,0.087890625,7.3984375,-0.2509765625
453,1.209,IMU0,6.646341463414635,213.1707317073171,5.487804878048781,0.1123046875,7.23828125,-0.259765625
454,1.209,IMU1,4.878048780487806,213.109756097561,6.463414634146342,0.0029296875,7.2529296875,-0.2734375
455,1.209,IMU2,6.646341463414635,214.32926829268294,6.463414634146342,0.103515625,7.2470703125,-0.2392578125
456,1.219,IMU0,7.500000000000001,214.75609756097563,7.743902439024391,0.0810546875,7.146484375,-0.255859375
457,1.219,IMU1,5.7926829268292686,214.63414634146343,8.719512195121952,-0.0263671875,7.158203125,-0.2763671875
458,1.219,IMU2,7.682926829268293,215.91463414634148,8.719512195121952,0.07421875,7.154296875,-0.23828125
459,1.229,IMU0,8.414634146341465,215.85365853658539,9.817073170731708,0.0810546875,7.08203125,-0.2109375
460,1.229,IMU1,6.585365853658537,215.85365853658539,10.792682926829269,-0.021484375,7.0927734375,-0.236328125
461,1.229,IMU2,8.536585365853659,217.13414634146343,10.792682926829269,0.07421875,7.087890625,-0.19140625
462,1.239,IMU0,9.02439024390244,217.25609756097563,11.707317073170733,0.0205078125,7.033203125,-0.2119140625
463,1.239,IMU1,7.317073170731708,217.07317073170734,12.682926829268293,-0.080078125,7.037109375,-0.2265625
464,1.239,IMU2,9.085365853658537,218.47560975609758,12.682926829268293,0.01171875,7.0390625,-0.1943359375
465,1.249,IMU0,9.390243902439025,218.2317073170732,13.475609756097562,-0.0419921875,7.1259765625,-0.1533203125
466,1.249,IMU1,7.926829268292684,218.2317073170732,14.390243902439027,-0.1357421875,7.1259765625,-0.181640625
467,1.249,IMU2,9.329268292682928,219.75609756097563,14.390243902439027,-0.05078125,7.130859375,-0.1279296875
468,1.259,IMU0,9.573170731707318,219.32926829268294,14.756097560975611,-0.0595703125,7.083984375,-0.185546875
469,1.259,IMU1,7.8048780487804885,219.45121951219514,15.731707317073171,-0.16796875,7.095703125,-0.1953125
470,1.259,IMU2,9.695121951219512,220.7317073170732,15.670731707317074,-0.0693359375,7.08984375,-0.1630859375
471,1.269,IMU0,9.573170731707318,221.15853658536588,14.817073170731708,-0.15625,7.0263671875,-0.1005859375
472,1.269,IMU1,7.865853658536586,221.34146341463418,15.975609756097562,-0.2578125,7.033203125,-0.111328125
473,1.269,IMU2,9.390243902439025,222.56097560975613,15.914634146341465,-0.169921875,7.0322265625,-0.0849609375
474,1.279,IMU0,9.26829268292683,222.8048780487805,14.26829268292683,-0.16015625,6.9677734375,-0.103515625
475,1.279,IMU1,7.317073170731708,223.0487804878049,15.487804878048783,-0.2587890625,6.9765625,-0.130859375
476,1.279,IMU2,9.329268292682928,224.14634146341464,15.243902439024392,-0.1728515625,6.97265625,-0.0810546875
477,1.289,IMU0,9.02439024390244,224.87804878048783,13.475609756097562,-0.224609375,6.93359375,-0.078125
478,1.289,IMU1,7.01219512195122,224.87804878048783,14.634146341463415,-0.330078125,6.939453125,-0.0908203125
479,1.289,IMU2,8.597560975609756,226.15853658536588,14.451219512195124,-0.23828125,6.9404296875,-0.056640625
480,1.299,IMU0,8.292682926829269,227.19512195121953,11.951219512195124,-0.26171875,6.9658203125,-0.0478515625
481,1.299,IMU1,6.097560975609756,227.25609756097563,13.170731707317074,-0.3603515625,6.9638671875,-0.072265625
482,1.299,IMU2,7.926829268292684,228.71951219512198,12.987804878048781,-0.27734375,6.974609375,-0.0205078125
483,1.309,IMU0,7.560975609756098,229.69512195121953,9.756097560975611,-0.330078125,7.1689453125,-0.0927734375
484,1.309,IMU1,5.731707317073171,229.51219512195124,10.975609756097562,-0.4306640625,7.1689453125,-0.09765625
485,1.309,IMU2,7.25609756097561,231.28048780487808,10.853658536585368,-0.34765625,7.177734375,-0.08203125
486,1.319,IMU0,6.829268292682928,232.50000000000003,6.585365853658537,-0.337890625,7.2119140625,-0.0244140625
487,1.319,IMU1,5.060975609756098,232.68292682926833,7.865853658536586,-0.453125,7.220703125,-0.0244140625
488,1.319,IMU2,6.463414634146342,234.02439024390245,7.621951219512196,-0.353515625,7.2158203125,-0.0087890625
489,1.329,IMU0,6.097560975609756,236.03658536585368,2.987804878048781,-0.4169921875,7.3486328125,-0.10546875
490,1.329,IMU1,4.085365853658537,236.09756097560978,4.329268292682928,-0.5322265625,7.361328125,-0.115234375
491,1.329,IMU2,5.914634146341464,237.01219512195124,3.963414634146342,-0.4345703125,7.3447265625,-0.078125
492,1.339,IMU0,5.975609756097562,239.14634146341464,-1.1585365853658538,-0.37890625,7.099609375,-0.0283203125
493,1.339,IMU1,3.353658536585366,239.08536585365854,0.24390243902439027,-0.490234375,7.1201171875,-0.05078125
494,1.339,IMU2,5.487804878048781,240.4268292682927,-0.06097560975609757,-0.3955078125,7.1015625,-0.0107421875
495,1.349,IMU0,5.365853658536586,241.58536585365854,-4.573170731707317,-0.3916015625,6.859375,-0.111328125
496,1.349,IMU1,3.1707317073170733,241.46341463414637,-3.231707317073171,-0.4833984375,6.8701171875,-0.138671875
497,1.349,IMU2,4.817073170731708,242.9878048780488,-3.536585365853659,-0.4091796875,6.86328125,-0.083984375
498,1.359,IMU0,5.7926829268292686,243.96341463414637,-8.231707317073171,-0.375,6.6640625,-0.091796875
499,1.359,IMU1,3.414634146341464,243.84146341463418,-6.829268292682928,-0.4794921875,6.6689453125,-0.11328125
500,1.359,IMU2,5.426829268292684,245.4878048780488,-7.195121951219513,-0.3818359375,6.666015625,-0.0546875
501,1.369,IMU0,5.853658536585367,245.4878048780488,-10.975609756097562,-0.294921875,6.4814453125,-0.12109375
502,1.369,IMU1,4.329268292682928,245.3658536585366,-9.695121951219512,-0.396484375,6.49609375,-0.130859375
503,1.369,IMU2,5.365853658536586,246.82926829268294,-9.878048780487806,-0.3076171875,6.484375,-0.1044921875
504,1.379,IMU0,6.463414634146342,247.01219512195124,-13.719512195121952,-0.2607421875,6.3232421875,-0.0888671875
505,1.379,IMU1,5.0,246.64634146341464,-12.378048780487806,-0.361328125,6.3310546875,-0.1064453125
506,1.379,IMU2,5.975609756097562,248.109756097561,-12.621951219512196,-0.2666015625,6.326171875,-0.0654296875
507,1.389,IMU0,6.707317073170732,248.2317073170732,-15.426829268292684,-0.158203125,6.1845703125,-0.1015625
508,1.389,IMU1,4.695121951219512,248.0487804878049,-14.085365853658537,-0.251953125,6.1982421875,-0.115234375
509,1.389,IMU2,6.2804878048780495,249.26829268292684,-14.26829268292683,-0.173828125,6.1865234375,-0.0791015625
510,1.399,IMU0,7.378048780487806,249.02439024390247,-16.402439024390244,-0.138671875,6.0263671875,-0.0703125
511,1.399,IMU1,5.3048780487804885,248.84146341463418,-15.121951219512196,-0.2373046875,6.0439453125,-0.0830078125
512,1.399,IMU2,7.134146341463415,250.4268292682927,-15.243902439024392,-0.1494140625,6.0244140625,-0.0341796875
513,1.409,IMU0,7.8048780487804885,249.87804878048783,-17.012195121951223,-0.0693359375,5.83203125,-0.0791015625
514,1.409,IMU1,5.670731707317073,249.75609756097563,-15.731707317073171,-0.1611328125,5.849609375,-0.0869140625
515,1.409,IMU2,7.500000000000001,251.28048780487808,-15.79268292682927,-0.08203125,5.830078125,-0.05859375
516,1.419,IMU0,7.987804878048781,250.4878048780488,-17.439024390243905,-0.033203125,5.5869140625,-0.056640625
517,1.419,IMU1,5.609756097560976,250.6707317073171,-16.097560975609756,-0.1240234375,5.6044921875,-0.064453125
518,1.419,IMU2,7.987804878048781,252.07317073170734,-16.219512195121954,-0.03515625,5.58203125,-0.0390625
519,1.429,IMU0,8.109756097560977,250.7926829268293,-17.378048780487806,0.0478515625,5.3095703125,-0.0654296875
520,1.429,IMU1,5.609756097560976,250.6707317073171,-15.975609756097562,-0.0361328125,5.333984375,-0.0693359375
521,1.429,IMU2,8.353658536585366,252.25609756097563,-16.03658536585366,0.0439453125,5.3037109375,-0.0390625
522,1.439,IMU0,8.414634146341465,250.24390243902442,-16.28048780487805,0.0986328125,5.0283203125,-0.072265625
523,1.439,IMU1,6.158536585365854,250.06097560975613,-15.000000000000002,0.0224609375,5.05078125,-0.0869140625
524,1.439,IMU2,8.170731707317074,251.82926829268294,-14.878048780487806,0.0986328125,5.021484375,-0.0439453125
525,1.449,IMU0,8.719512195121952,249.57317073170734,-14.756097560975611,0.111328125,4.705078125,-0.0322265625
526,1.449,IMU1,6.52439024390244,249.32926829268294,-13.353658536585368,0.0400390625,4.7294921875,-0.0419921875
527,1.449,IMU2,8.597560975609756,250.97560975609758,-13.353658536585368,0.109375,4.6923828125,-0.017578125
528,1.459,IMU0,8.658536585365855,248.84146341463418,-13.29268292682927,0.1240234375,4.38671875,-0.00390625
529,1.459,IMU1,6.402439024390245,248.96341463414637,-11.951219512195124,0.0595703125,4.4091796875,-0.0205078125
530,1.459,IMU2,8.109756097560977,250.12195121951223,-11.890243902439025,0.1298828125,4.373046875,0.0126953125
531,1.469,IMU0,8.109756097560977,247.37804878048783,-11.890243902439025,0.166015625,4.1005859375,0.0224609375
532,1.469,IMU1,6.036585365853659,247.68292682926833,-10.548780487804878,0.10546875,4.1220703125,0.0048828125
533,1.469,IMU2,7.865853658536586,248.96341463414637,-10.548780487804878,0.171875,4.0888671875,0.033203125
534,1.479,IMU0,7.682926829268293,246.03658536585368,-9.939024390243903,0.212890625,3.85546875,0.02734375
535,1.479,IMU1,5.426829268292684,246.15853658536588,-8.536585365853659,0.1533203125,3.8759765625,0.021484375
536,1.479,IMU2,7.500000000000001,247.50000000000003,-8.658536585365855,0.216796875,3.8486328125,0.052734375
537,1.489,IMU0,6.951219512195123,243.78048780487808,-7.743902439024391,0.2412109375,3.66796875,0.0498046875
538,1.489,IMU1,4.695121951219512,244.02439024390247,-6.402439024390245,0.1875,3.6884765625,0.0419921875
539,1.489,IMU2,6.951219512195123,245.3658536585366,-6.52439024390244,0.2451171875,3.6591796875,0.0693359375
540,1.499,IMU0,5.914634146341464,242.37804878048783,-5.365853658536586,0.25390625,3.525390625,0.068359375
541,1.499,IMU1,4.146341463414634,242.50000000000003,-3.963414634146342,0.19921875,3.5458984375,0.0625
542,1.499,IMU2,6.219512195121951,243.71951219512198,-4.085365853658537,0.25,3.521484375,0.09375
543,1.509,IMU0,4.573170731707317,241.21951219512198,-2.8658536585365857,0.2294921875,3.4560546875,0.0947265625
544,1.509,IMU1,2.378048780487805,241.15853658536588,-1.524390243902439,0.1826171875,3.4755859375,0.078125
545,1.509,IMU2,4.51219512195122,242.43902439024393,-1.6463414634146343,0.232421875,3.46484375,0.1123046875
546,1.519,IMU0,2.1341463414634148,237.9878048780488,-0.30487804878048785,0.3134765625,4.28515625,0.3154296875
547,1.519,IMU1,-0.1829268292682927,235.97560975609758,0.6707317073170732,0.1376953125,4.4248046875,0.2646484375
548,1.519,IMU2,1.3414634146341464,237.8048780487805,0.48780487804878053,0.21484375,4.4287109375,0.2783203125
549,1.529,IMU0,1.5853658536585367,238.59756097560978,0.30487804878048785,0.15234375,4.4951171875,0.046875
550,1.529,IMU1,-4.878048780487806,238.59756097560978,1.707317073170732,0.09375,4.470703125,0.05078125
551,1.529,IMU2,-2.987804878048781,238.78048780487808,1.6463414634146343,0.1513671875,4.4560546875,0.0888671875
552,1.539,IMU0,0.6097560975609757,237.9878048780488,0.3658536585365854,0.20703125,3.953125,0.0810546875
553,1.539,IMU1,-4.024390243902439,237.68292682926833,1.7682926829268295,0.15625,3.9267578125,0.0380859375
554,1.539,IMU2,-2.25609756097561,238.2926829268293,1.707317073170732,0.208984375,3.9111328125,0.0673828125
555,1.549,IMU0,-1.3414634146341464,236.58536585365854,1.524390243902439,0.24609375,3.4248046875,0.0927734375
556,1.549,IMU1,-5.060975609756098,236.64634146341464,2.8658536585365857,0.1806640625,3.412109375,0.0751953125
557,1.549,IMU2,-2.682926829268293,237.68292682926833,2.804878048780488,0.2265625,3.3984375,0.10546875
558,1.559,IMU0,-2.439024390243903,235.4878048780488,2.804878048780488,0.171875,2.9931640625,-0.005859375
559,1.559,IMU1,-5.182926829268293,235.7926829268293,4.085365853658537,0.123046875,2.9794921875,-0.0380859375
560,1.559,IMU2,-3.536585365853659,236.82926829268294,4.024390243902439,0.1708984375,3.00390625,0.0087890625
561,1.569,IMU0,-2.5609756097560976,235.3658536585366,3.8414634146341466,0.14453125,2.6533203125,0.0029296875
562,1.569,IMU1,-4.695121951219512,235.4878048780488,5.0,0.1005859375,2.646484375,-0.00390625
563,1.569,IMU2,-3.1707317073170733,236.82926829268294,5.0,0.142578125,2.66015625,0.0146484375
564,1.579,IMU0,-2.8658536585365857,236.15853658536588,4.2682926829268295,0.072265625,2.328125,-0.0068359375
565,1.579,IMU1,-5.426829268292684,235.91463414634148,5.426829268292684,0.033203125,2.3173828125,-0.0146484375
566,1.579,IMU2,-3.1097560975609757,237.25609756097563,5.2439024390243905,0.0693359375,2.3359375,0.013671875
567,1.589,IMU0,-3.1707317073170733,236.58536585365854,4.329268292682928,0.08203125,2.1005859375,-0.017578125
568,1.589,IMU1,-5.365853658536586,236.58536585365854,5.426829268292684,0.046875,2.103515625,-0.02734375
569,1.589,IMU2,-3.1097560975609757,237.74390243902442,5.2439024390243905,0.0810546875,2.1044921875,0.001953125
570,1.599,IMU0,-3.414634146341464,237.19512195121953,4.024390243902439,0.044921875,1.890625,-0.0380859375
571,1.599,IMU1,-5.548780487804878,237.50000000000003,5.060975609756098,0.0166015625,1.8896484375,-0.046875
572,1.599,IMU2,-3.414634146341464,238.71951219512198,5.0,0.04296875,1.892578125,-0.0234375
573,1.609,IMU0,-3.5975609756097566,238.109756097561,3.7195121951219514,0.04296875,1.640625,-0.091796875
574,1.609,IMU1,-5.548780487804878,238.2926829268293,4.817073170731708,0.015625,1.62890625,-0.11328125
575,1.609,IMU2,-3.414634146341464,239.63414634146343,4.634146341463415,0.0439453125,1.642578125,-0.076171875
576,1.619,IMU0,-3.4756097560975614,238.65853658536588,3.658536585365854,0.0439453125,1.3203125,-0.125
577,1.619,IMU1,-5.121951219512195,238.59756097560978,4.695121951219512,0.021484375,1.3154296875,-0.1318359375
578,1.619,IMU2,-3.353658536585366,239.87804878048783,4.573170731707317,0.0439453125,1.322265625,-0.109375
579,1.629,IMU0,-2.9268292682926833,239.20731707317074,3.5975609756097566,0.01953125,1.0537109375,-0.1552734375
580,1.629,IMU1,-4.75609756097561,239.39024390243904,4.695121951219512,-0.001953125,1.0517578125,-0.169921875
581,1.629,IMU2,-3.048780487804878,240.7926829268293,4.573170731707317,0.0205078125,1.0556640625,-0.1376953125
582,1.639,IMU0,-1.829268292682927,240.3658536585366,3.658536585365854,0.01953125,0.8681640625,-0.2109375
583,1.639,IMU1,-4.085365853658537,240.4878048780488,4.817073170731708,0.0029296875,0.8671875,-0.2197265625
584,1.639,IMU2,-1.829268292682927,242.01219512195124,4.634146341463415,0.021484375,0.865234375,-0.197265625
585,1.649,IMU0,-0.5487804878048781,241.03658536585368,4.085365853658537,0.017578125,0.736328125,-0.1787109375
586,1.649,IMU1,-2.5609756097560976,241.28048780487808,5.2439024390243905,0.0009765625,0.7373046875,-0.1953125
587,1.649,IMU2,-0.48780487804878053,242.68292682926833,5.060975609756098,0.01953125,0.7333984375,-0.1689453125
588,1.659,IMU0,1.0365853658536586,241.89024390243904,4.2682926829268295,-0.017578125,0.6533203125,-0.2001953125
589,1.659,IMU1,-0.6707317073170732,242.07317073170734,5.365853658536586,-0.0322265625,0.6513671875,-0.2080078125
590,1.659,IMU2,0.7926829268292683,243.53658536585368,5.3048780487804885,-0.015625,0.6494140625,-0.1875
591,1.669,IMU0,2.3170731707317076,242.9878048780488,4.329268292682928,-0.0166015625,0.5888671875,-0.185546875
592,1.669,IMU1,0.6097560975609757,243.109756097561,5.426829268292684,-0.0302734375,0.591796875,-0.2021484375
593,1.669,IMU2,2.0121951219512195,244.51219512195124,5.365853658536586,-0.015625,0.5849609375,-0.1708984375
594,1.679,IMU0,3.7195121951219514,243.90243902439028,4.329268292682928,-0.0341796875,0.5244140625,-0.1884765625
595,1.679,IMU1,1.4634146341463417,244.20731707317074,5.548780487804878,-0.0478515625,0.529296875,-0.185546875
596,1.679,IMU2,3.4756097560975614,245.4878048780488,5.426829268292684,-0.033203125,0.51953125,-0.169921875
597,1.689,IMU0,4.51219512195122,244.87804878048783,4.573170731707317,-0.05078125,0.4482421875,-0.1591796875
598,1.689,IMU1,2.7439024390243905,244.81707317073173,5.7926829268292686,-0.06640625,0.4501953125,-0.1650390625
599,1.689,IMU2,4.51219512195122,246.15853658536588,5.670731707317073,-0.0498046875,0.4443359375,-0.14453125
600,1.699,IMU0,5.670731707317073,245.97560975609758,4.878048780487806,-0.1171875,0.37109375,-0.1669921875
601,1.699,IMU1,4.024390243902439,245.91463414634148,6.036585365853659,-0.1337890625,0.373046875,-0.1708984375
602,1.699,IMU2,5.365853658536586,247.19512195121953,6.036585365853659,-0.1181640625,0.365234375,-0.15234375
603,1.709,IMU0,6.341463414634147,247.9878048780488,4.573170731707317,-0.1875,0.2705078125,-0.1630859375
604,1.709,IMU1,4.817073170731708,248.109756097561,5.609756097560976,-0.2001953125,0.2705078125,-0.1748046875
605,1.709,IMU2,6.219512195121951,249.32926829268294,5.670731707317073,-0.189453125,0.2646484375,-0.150390625
606,1.719,IMU0,7.073170731707318,250.7926829268293,3.658536585365854,-0.228515625,0.1640625,-0.1474609375
607,1.719,IMU1,4.51219512195122,250.97560975609758,4.75609756097561,-0.234375,0.1640625,-0.1650390625
608,1.719,IMU2,6.951219512195123,251.89024390243904,4.75609756097561,-0.228515625,0.1572265625,-0.1396484375
609,1.729,IMU0,8.353658536585366,252.9878048780488,2.1951219512195124,-0.240234375,0.0615234375,-0.1171875
610,1.729,IMU1,5.609756097560976,253.35365853658539,3.414634146341464,-0.2421875,0.0634765625,-0.1376953125
611,1.729,IMU2,8.414634146341465,254.57317073170734,3.353658536585366,-0.23828125,0.0546875,-0.1064453125
612,1.739,IMU0,9.451219512195122,254.14634146341464,0.7926829268292683,-0.251953125,-0.037109375,-0.08203125
613,1.739,IMU1,6.52439024390244,254.14634146341464,2.073170731707317,-0.2568359375,-0.03515625,-0.0859375
614,1.739,IMU2,9.451219512195122,255.7317073170732,2.0121951219512195,-0.251953125,-0.04296875,-0.0673828125
615,1.749,IMU0,10.121951219512196,254.26829268292684,-0.48780487804878053,-0.25,-0.134765625,-0.0537109375
616,1.749,IMU1,7.134146341463415,254.39024390243904,0.7926829268292683,-0.2548828125,-0.1357421875,-0.056640625
617,1.749,IMU2,10.121951219512196,255.7926829268293,0.6707317073170732,-0.2509765625,-0.140625,-0.037109375
618,1.759,IMU0,10.609756097560977,254.14634146341464,-1.8902439024390245,-0.2509765625,-0.234375,-0.021484375
619,1.759,IMU1,7.743902439024391,254.57317073170734,-0.6097560975609757,-0.2509765625,-0.2333984375,-0.0263671875
620,1.759,IMU2,10.365853658536587,255.6707317073171,-0.6707317073170732,-0.2509765625,-0.2431640625,-0.005859375
621,1.769,IMU0,10.365853658536587,254.14634146341464,-3.536585365853659,-0.265625,-0.328125,0.041015625
622,1.769,IMU1,7.621951219512196,254.45121951219514,-2.25609756097561,-0.265625,-0.326171875,0.0498046875
623,1.769,IMU2,10.060975609756099,255.97560975609758,-2.3170731707317076,-0.2685546875,-0.3349609375,0.06640625
624,1.779,IMU0,9.146341463414634,254.63414634146343,-5.182926829268293,-0.2060546875,-0.40625,0.08203125
625,1.779,IMU1,6.52439024390244,254.51219512195124,-3.963414634146342,-0.205078125,-0.4013671875,0.0712890625
626,1.779,IMU2,9.146341463414634,255.7926829268293,-4.024390243902439,-0.20703125,-0.412109375,0.091796875
627,1.789,IMU0,8.78048780487805,254.69512195121953,-6.402439024390245,-0.1826171875,-0.4697265625,0.0380859375
628,1.789,IMU1,6.219512195121951,254.69512195121953,-5.182926829268293,-0.171875,-0.466796875,0.029296875
629,1.789,IMU2,8.841463414634147,255.97560975609758,-5.2439024390243905,-0.17578125,-0.4755859375,0.0498046875
630,1.799,IMU0,9.634146341463415,254.69512195121953,-7.926829268292684,-0.1708984375,-0.541015625,0.0322265625
631,1.799,IMU1,6.951219512195123,255.00000000000003,-6.707317073170732,-0.1669921875,-0.53515625,0.0244140625
632,1.799,IMU2,9.207317073170733,256.1585365853659,-6.7682926829268295,-0.171875,-0.544921875,0.0439453125
633,1.809,IMU0,10.365853658536587,254.26829268292684,-9.51219512195122,-0.1494140625,-0.60546875,0.06640625
634,1.809,IMU1,7.926829268292684,254.69512195121953,-8.231707317073171,-0.146484375,-0.6025390625,0.0654296875
635,1.809,IMU2,10.24390243902439,255.97560975609758,-8.414634146341465,-0.1533203125,-0.6123046875,0.0947265625
636,1.819,IMU0,10.182926829268293,254.08536585365857,-10.670731707317074,-0.1083984375,-0.6630859375,0.125
637,1.819,IMU1,7.926829268292684,254.20731707317074,-9.390243902439025,-0.0947265625,-0.6552734375,0.1171875
638,1.819,IMU2,10.060975609756099,255.7317073170732,-9.451219512195122,-0.1005859375,-0.66796875,0.146484375
639,1.829,IMU0,9.573170731707318,253.47560975609758,-11.219512195121952,-0.0693359375,-0.7099609375,0.1435546875
640,1.829,IMU1,7.621951219512196,253.2926829268293,-10.0,-0.056640625,-0.7041015625,0.1279296875
641,1.829,IMU2,9.26829268292683,254.69512195121953,-10.0,-0.0625,-0.7177734375,0.1572265625
642,1.839,IMU0,8.902439024390244,252.8658536585366,-11.463414634146343,-0.048828125,-0.7470703125,0.15625
643,1.839,IMU1,7.195121951219513,252.68292682926833,-10.24390243902439,-0.0341796875,-0.736328125,0.1455078125
644,1.839,IMU2,8.963414634146343,254.14634146341464,-10.24390243902439,-0.0419921875,-0.7509765625,0.171875
645,1.849,IMU0,8.109756097560977,251.64634146341464,-11.52439024390244,-0.0361328125,-0.7626953125,0.1806640625
646,1.849,IMU1,6.219512195121951,251.76829268292684,-10.30487804878049,-0.0185546875,-0.755859375,0.1689453125
647,1.849,IMU2,8.231707317073171,253.1707317073171,-10.426829268292684,-0.025390625,-0.76953125,0.1923828125
648,1.859,IMU0,7.134146341463415,250.3658536585366,-11.463414634146343,-0.0068359375,-0.771484375,0.1982421875
649,1.859,IMU1,5.060975609756098,250.609756097561,-10.24390243902439,0.009765625,-0.76171875,0.1953125
650,1.859,IMU2,7.25609756097561,252.13414634146343,-10.365853658536587,0.0029296875,-0.775390625,0.220703125
651,1.869,IMU0,6.097560975609756,249.39024390243904,-11.28048780487805,0.015625,-0.7724609375,0.2177734375
652,1.869,IMU1,4.207317073170732,249.26829268292684,-10.182926829268293,0.03125,-0.76171875,0.2099609375
653,1.869,IMU2,6.097560975609756,251.15853658536588,-10.182926829268293,0.02734375,-0.7763671875,0.2333984375
654,1.879,IMU0,4.75609756097561,248.109756097561,-10.914634146341465,0.0400390625,-0.7802734375,0.2451171875
655,1.879,IMU1,2.8658536585365857,247.9878048780488,-9.817073170731708,0.0498046875,-0.767578125,0.2392578125
656,1.879,IMU2,4.573170731707317,249.63414634146343,-9.817073170731708,0.046875,-0.7822265625,0.2626953125
657,1.889,IMU0,3.1707317073170733,246.52439024390247,-10.487804878048781,0.0673828125,-0.7890625,0.26953125
658,1.889,IMU1,1.3414634146341464,246.46341463414637,-9.390243902439025,0.0771484375,-0.77734375,0.2578125
659,1.889,IMU2,3.1097560975609757,247.9878048780488,-9.451219512195122,0.0732421875,-0.79296875,0.2822265625
660,1.899,IMU0,1.402439024390244,244.63414634146343,-10.060975609756099,0.0810546875,-0.80078125,0.271484375
661,1.899,IMU1,-0.5487804878048781,244.81707317073173,-8.963414634146343,0.0966796875,-0.7900390625,0.259765625
662,1.899,IMU2,1.402439024390244,246.28048780487808,-9.085365853658537,0.0927734375,-0.8056640625,0.2861328125
663,1.909,IMU0,-0.5487804878048781,242.9878048780488,-9.573170731707318,0.103515625,-0.8056640625,0.251953125
664,1.909,IMU1,-2.6219512195121952,243.0487804878049,-8.414634146341465,0.1142578125,-0.79296875,0.24609375
665,1.909,IMU2,-0.7926829268292683,244.45121951219514,-8.597560975609756,0.111328125,-0.8076171875,0.271484375
666,1.919,IMU0,-2.25609756097561,241.15853658536588,-8.963414634146343,0.125,-0.80859375,0.23828125
667,1.919,IMU1,-4.024390243902439,241.15853658536588,-7.865853658536586,0.1376953125,-0.7939453125,0.2333984375
668,1.919,IMU2,-2.6219512195121952,242.43902439024393,-7.926829268292684,0.134765625,-0.810546875,0.2587890625
669,1.929,IMU0,-3.780487804878049,239.57317073170734,-8.353658536585366,0.15625,-0.814453125,0.232421875
670,1.929,IMU1,-6.219512195121951,239.45121951219514,-7.134146341463415,0.16796875,-0.80078125,0.2236328125
671,1.929,IMU2,-4.51219512195122,240.6707317073171,-7.25609756097561,0.1650390625,-0.8193359375,0.25
672,1.939,IMU0,-5.426829268292684,238.1707317073171,-7.621951219512196,0.1728515625,-0.81640625,0.2021484375
673,1.939,IMU1,-7.560975609756098,237.8658536585366,-6.463414634146342,0.1875,-0.802734375,0.1923828125
674,1.939,IMU2,-5.548780487804878,239.20731707317074,-6.585365853658537,0.185546875,-0.8212890625,0.2197265625
675,1.949,IMU0,-7.073170731707318,236.70731707317074,-6.585365853658537,0.1884765625,-0.8203125,0.1650390625
676,1.949,IMU1,-8.78048780487805,236.58536585365854,-5.487804878048781,0.2021484375,-0.8076171875,0.1630859375
677,1.949,IMU2,-7.439024390243903,237.9268292682927,-5.670731707317073,0.19921875,-0.82421875,0.1884765625
678,1.959,IMU0,-8.109756097560977,235.3658536585366,-5.670731707317073,0.185546875,-0.8232421875,0.1298828125
679,1.959,IMU1,-10.365853658536587,235.24390243902442,-4.573170731707317,0.19921875,-0.810546875,0.12109375
680,1.959,IMU2,-8.78048780487805,236.64634146341464,-4.695121951219512,0.1943359375,-0.8271484375,0.150390625
681,1.969,IMU0,-9.085365853658537,234.32926829268294,-4.75609756097561,0.189453125,-0.8271484375,0.1015625
682,1.969,IMU1,-11.097560975609756,234.14634146341464,-3.658536585365854,0.2080078125,-0.81640625,0.087890625
683,1.969,IMU2,-9.26829268292683,235.7926829268293,-3.8414634146341466,0.2021484375,-0.8349609375,0.11328125
684,1.979,IMU0,-9.878048780487806,233.59756097560978,-3.7195121951219514,0.197265625,-0.8291015625,0.0625
685,1.979,IMU1,-12.01219512195122,233.41463414634148,-2.682926829268293,0.20703125,-0.8203125,0.0615234375
686,1.979,IMU2,-9.695121951219512,235.06097560975613,-2.9268292682926833,0.2060546875,-0.8359375,0.080078125
687,1.989,IMU0,-10.609756097560977,232.68292682926833,-2.804878048780488,0.18359375,-0.833984375,0.0244140625
688,1.989,IMU1,-12.195121951219512,232.25609756097563,-1.7682926829268295,0.1943359375,-0.8232421875,0.0205078125
689,1.989,IMU2,-10.426829268292684,234.02439024390245,-1.9512195121951221,0.193359375,-0.83984375,0.0419921875
690,1.999,IMU0,-10.792682926829269,231.64634146341464,-1.9512195121951221,0.16015625,-0.83984375,-0.0029296875
691,1.999,IMU1,-12.865853658536587,231.46341463414637,-0.853658536585366,0.1728515625,-0.828125,-0.0078125
692,1.999,IMU2,-10.609756097560977,233.1707317073171,-1.0975609756097562,0.1708984375,-0.8447265625,0.015625
693,2.009,IMU0,-10.914634146341465,230.85365853658539,-1.2804878048780488,0.1572265625,-0.84375,-0.0244140625
694,2.009,IMU1,-12.560975609756099,230.4268292682927,-0.30487804878048785,0.1669921875,-0.83203125,-0.033203125
695,2.009,IMU2,-10.548780487804878,232.01219512195124,-0.426829268292683,0.1650390625,-0.8466796875,-0.009765625
696,2.019,IMU0,-11.036585365853659,230.00000000000003,-0.7317073170731708,0.158203125,-0.8427734375,-0.05859375
697,2.019,IMU1,-12.621951219512196,229.63414634146343,0.24390243902439027,0.16796875,-0.830078125,-0.0654296875
698,2.019,IMU2,-10.670731707317074,231.28048780487808,0.06097560975609757,0.166015625,-0.84765625,-0.04296875
699,2.029,IMU0,-10.853658536585368,229.45121951219514,-0.30487804878048785,0.158203125,-0.8359375,-0.083984375
700,2.029,IMU1,-12.560975609756099,229.08536585365854,0.6707317073170732,0.1689453125,-0.826171875,-0.0947265625
701,2.029,IMU2,-10.426829268292684,230.4878048780488,0.48780487804878053,0.1650390625,-0.8427734375,-0.0703125
702,2.039,IMU0,-10.060975609756099,228.90243902439028,0.30487804878048785,0.154296875,-0.841796875,-0.1083984375
703,2.039,IMU1,-11.829268292682928,228.35365853658539,1.2195121951219514,0.166015625,-0.8310546875,-0.1181640625
704,2.039,IMU2,-9.756097560975611,229.87804878048783,1.0365853658536586,0.1611328125,-0.84765625,-0.09375
705,2.049,IMU0,-8.78048780487805,229.20731707317074,0.9756097560975611,0.1572265625,-0.84765625,-0.1806640625
706,2.049,IMU1,-10.609756097560977,228.78048780487808,1.8902439024390245,0.1640625,-0.8369140625,-0.1865234375
707,2.049,IMU2,-8.841463414634147,230.3658536585366,1.829268292682927,0.1630859375,-0.8525390625,-0.1689453125
708,2.059,IMU0,-6.951219512195123,229.69512195121953,1.402439024390244,0.11328125,-0.8486328125,-0.203125
709,2.059,IMU1,-8.902439024390244,229.45121951219514,2.439024390243903,0.1201171875,-0.83984375,-0.2109375
710,2.059,IMU2,-7.01219512195122,230.97560975609758,2.3170731707317076,0.1181640625,-0.8544921875,-0.1923828125
711,2.069,IMU0,-5.487804878048781,230.609756097561,1.402439024390244,0.095703125,-0.845703125,-0.166015625
712,2.069,IMU1,-7.560975609756098,230.12195121951223,2.439024390243903,0.1044921875,-0.8388671875,-0.1767578125
713,2.069,IMU2,-5.487804878048781,231.76829268292684,2.3170731707317076,0.1025390625,-0.8525390625,-0.154296875
714,2.079,IMU0,-4.2682926829268295,230.85365853658539,1.524390243902439,0.1103515625,-0.8369140625,-0.154296875
715,2.079,IMU1,-6.097560975609756,230.4268292682927,2.5609756097560976,0.1201171875,-0.828125,-0.1689453125
716,2.079,IMU2,-4.329268292682928,232.19512195121953,2.5,0.1142578125,-0.84375,-0.140625
717,2.089,IMU0,-3.4756097560975614,231.34146341463418,1.707317073170732,0.0888671875,-0.8359375,-0.169921875
718,2.089,IMU1,-5.2439024390243905,231.09756097560978,2.7439024390243905,0.08984375,-0.8271484375,-0.181640625
719,2.089,IMU2,-3.4756097560975614,232.74390243902442,2.682926829268293,0.0947265625,-0.841796875,-0.1572265625
720,2.099,IMU0,-2.073170731707317,231.76829268292684,1.707317073170732,0.087890625,-0.830078125,-0.16796875
721,2.099,IMU1,-3.780487804878049,231.70731707317074,2.804878048780488,0.0947265625,-0.8212890625,-0.1826171875
722,2.099,IMU2,-2.439024390243903,233.109756097561,2.682926829268293,0.091796875,-0.8359375,-0.1552734375
723,2.109,IMU0,-0.9756097560975611,231.82926829268294,1.829268292682927,0.0888671875,-0.82421875,-0.158203125
724,2.109,IMU1,-2.7439024390243905,231.89024390243904,2.9268292682926833,0.095703125,-0.81640625,-0.1748046875
725,2.109,IMU2,-1.2804878048780488,233.2926829268293,2.8658536585365857,0.09375,-0.8310546875,-0.14453125
726,2.119,IMU0,-0.30487804878048785,232.56097560975613,2.1341463414634148,0.0693359375,-0.8173828125,-0.1669921875
727,2.119,IMU1,-2.378048780487805,232.43902439024393,3.231707317073171,0.076171875,-0.80859375,-0.1796875
728,2.119,IMU2,-0.6707317073170732,233.78048780487808,3.1707317073170733,0.0732421875,-0.82421875,-0.1494140625
729,2.129,IMU0,0.6707317073170732,232.9878048780488,2.3170731707317076,0.0556640625,-0.8056640625,-0.1611328125
730,2.129,IMU1,-1.2195121951219514,232.9268292682927,3.353658536585366,0.064453125,-0.7958984375,-0.17578125
731,2.129,IMU2,0.3658536585365854,234.20731707317074,3.353658536585366,0.05859375,-0.8115234375,-0.142578125
732,2.139,IMU0,1.4634146341463417,233.109756097561,2.378048780487805,0.046875,-0.79296875,-0.1376953125
733,2.139,IMU1,-0.5487804878048781,233.0487804878049,3.4756097560975614,0.0576171875,-0.7880859375,-0.154296875
734,2.139,IMU2,1.5853658536585367,234.51219512195124,3.353658536585366,0.05078125,-0.798828125,-0.123046875
735,2.149,IMU0,2.1951219512195124,233.35365853658539,2.439024390243903,0.0400390625,-0.779296875,-0.13671875
736,2.149,IMU1,-0.06097560975609757,233.59756097560978,3.5975609756097566,0.0390625,-0.7734375,-0.142578125
737,2.149,IMU2,2.1341463414634148,234.69512195121953,3.4756097560975614,0.037109375,-0.7861328125,-0.1142578125
738,2.159,IMU0,2.8658536585365857,234.14634146341464,2.3170731707317076,0.015625,-0.7724609375,-0.1181640625
739,2.159,IMU1,0.48780487804878053,234.26829268292684,3.4756097560975614,0.0224609375,-0.765625,-0.1318359375
740,2.159,IMU2,2.6219512195121952,235.3658536585366,3.2926829268292686,0.021484375,-0.779296875,-0.1064453125
741,2.169,IMU0,3.1707317073170733,234.51219512195124,1.9512195121951221,-0.0029296875,-0.7705078125,-0.119140625
742,2.169,IMU1,1.1585365853658538,234.32926829268294,3.1097560975609757,0.0009765625,-0.7646484375,-0.1298828125
743,2.169,IMU2,3.231707317073171,235.609756097561,2.9268292682926833,-0.0009765625,-0.77734375,-0.10546875
744,2.179,IMU0,3.4756097560975614,234.75609756097563,1.524390243902439,-0.0068359375,-0.7607421875,-0.134765625
745,2.179,IMU1,1.0975609756097562,234.69512195121953,2.804878048780488,-0.0078125,-0.7568359375,-0.1298828125
746,2.179,IMU2,3.2926829268292686,235.85365853658539,2.5609756097560976,-0.005859375,-0.767578125,-0.12109375
747,2.189,IMU0,4.2682926829268295,235.06097560975613,1.2195121951219514,-0.0029296875,-0.7763671875,-0.119140625
748,2.189,IMU1,2.073170731707317,234.93902439024393,2.439024390243903,0.0029296875,-0.765625,-0.1240234375
749,2.189,IMU2,4.2682926829268295,236.46341463414637,2.25609756097561,0.0009765625,-0.783203125,-0.1025390625
750,2.199,IMU0,4.939024390243903,235.3048780487805,0.9756097560975611,-0.0009765625,-0.798828125,-0.08984375
751,2.199,IMU1,2.7439024390243905,235.609756097561,2.073170731707317,0.0087890625,-0.7900390625,-0.1044921875
752,2.199,IMU2,5.121951219512195,236.95121951219514,1.9512195121951221,0.005859375,-0.8046875,-0.076171875
753,2.209,IMU0,5.548780487804878,235.4878048780488,0.6707317073170732,0.009765625,-0.8115234375,-0.078125
754,2.209,IMU1,3.414634146341464,235.6707317073171,1.7682926829268295,0.0146484375,-0.8017578125,-0.0849609375
755,2.209,IMU2,5.609756097560976,237.01219512195124,1.707317073170732,0.0146484375,-0.8173828125,-0.06640625
756,2.219,IMU0,5.731707317073171,235.7317073170732,0.48780487804878053,0.01171875,-0.8173828125,-0.072265625
757,2.219,IMU1,4.146341463414634,235.609756097561,1.5853658536585367,0.01953125,-0.8095703125,-0.08203125
758,2.219,IMU2,5.731707317073171,237.07317073170734,1.524390243902439,0.017578125,-0.822265625,-0.0595703125
759,2.229,IMU0,5.975609756097562,235.6707317073171,0.24390243902439027,0.015625,-0.8232421875,-0.0654296875
760,2.229,IMU1,4.451219512195122,235.5487804878049,1.402439024390244,0.025390625,-0.8125,-0.07421875
761,2.229,IMU2,5.914634146341464,237.07317073170734,1.2804878048780488,0.021484375,-0.8271484375,-0.05078125
762,2.239,IMU0,6.158536585365854,235.3658536585366,0.0,0.017578125,-0.822265625,-0.0478515625
763,2.239,IMU1,4.451219512195122,235.18292682926833,1.1585365853658538,0.02734375,-0.8134765625,-0.060546875
764,2.239,IMU2,6.2804878048780495,236.76829268292684,1.0365853658536586,0.025390625,-0.8271484375,-0.0322265625
765,2.249,IMU0,6.341463414634147,234.39024390243904,-0.12195121951219513,0.0341796875,-0.8203125,-0.0322265625
766,2.249,IMU1,4.51219512195122,234.51219512195124,1.0365853658536586,0.0439453125,-0.8095703125,-0.0478515625
767,2.249,IMU2,6.2804878048780495,235.91463414634148,0.9756097560975611,0.0419921875,-0.8251953125,-0.017578125
768,2.259,IMU0,6.341463414634147,234.39024390243904,-0.12195121951219513,0.0341796875,-0.8203125,-0.0322265625
769,2.259,IMU1,4.573170731707317,233.53658536585368,1.0365853658536586,0.0498046875,-0.8115234375,-0.03515625
770,2.259,IMU2,6.646341463414635,235.00000000000003,0.9146341463414634,0.0439453125,-0.8271484375,-0.00390625
771,2.269,IMU0,6.585365853658537,232.9268292682927,-0.06097560975609757,0.0400390625,-0.8203125,-0.0068359375
772,2.269,IMU1,4.207317073170732,233.1707317073171,1.0975609756097562,0.048828125,-0.8095703125,-0.0185546875
773,2.269,IMU2,6.707317073170732,234.45121951219514,0.9756097560975611,0.04296875,-0.826171875,0.0087890625
774,2.279,IMU0,6.463414634146342,232.62195121951223,0.0,0.0419921875,-0.8203125,0.009765625
775,2.279,IMU1,4.451219512195122,232.8048780487805,1.1585365853658538,0.05078125,-0.810546875,-0.001953125
776,2.279,IMU2,6.219512195121951,234.14634146341464,1.1585365853658538,0.044921875,-0.826171875,0.02734375
777,2.289,IMU0,6.158536585365854,232.25609756097563,0.12195121951219513,0.0478515625,-0.8232421875,0.0263671875
778,2.289,IMU1,4.024390243902439,232.37804878048783,1.2804878048780488,0.0546875,-0.8134765625,0.0107421875
779,2.289,IMU2,6.2804878048780495,233.78048780487808,1.1585365853658538,0.05078125,-0.828125,0.03515625
780,2.299,IMU0,5.853658536585367,231.34146341463418,0.1829268292682927,0.0517578125,-0.822265625,0.046875
781,2.299,IMU1,3.353658536585366,231.40243902439028,1.3414634146341464,0.0625,-0.8115234375,0.0322265625
782,2.299,IMU2,5.548780487804878,232.68292682926833,1.2195121951219514,0.0576171875,-0.8271484375,0.0556640625
783,2.309,IMU0,5.487804878048781,230.609756097561,0.24390243902439027,0.044921875,-0.8232421875,0.048828125
784,2.309,IMU1,3.658536585365854,230.5487804878049,1.402439024390244,0.0517578125,-0.8134765625,0.041015625
785,2.309,IMU2,5.426829268292684,232.01219512195124,1.2804878048780488,0.048828125,-0.828125,0.0654296875
786,2.319,IMU0,4.75609756097561,230.00000000000003,0.30487804878048785,0.0439453125,-0.82421875,0.0732421875
787,2.319,IMU1,3.048780487804878,229.93902439024393,1.402439024390244,0.052734375,-0.8134765625,0.0654296875
788,2.319,IMU2,4.451219512195122,231.15853658536588,1.3414634146341464,0.0498046875,-0.828125,0.0908203125
789,2.329,IMU0,3.963414634146342,229.20731707317074,0.426829268292683,0.0400390625,-0.82421875,0.083984375
790,2.329,IMU1,1.829268292682927,229.20731707317074,1.524390243902439,0.05078125,-0.8134765625,0.0751953125
791,2.329,IMU2,3.8414634146341466,230.3048780487805,1.402439024390244,0.0478515625,-0.828125,0.0986328125
792,2.339,IMU0,3.231707317073171,228.59756097560978,0.5487804878048781,0.041015625,-0.8291015625,0.0634765625
793,2.339,IMU1,1.402439024390244,228.2317073170732,1.707317073170732,0.048828125,-0.818359375,0.05078125
794,2.339,IMU2,3.5975609756097566,229.87804878048783,1.524390243902439,0.048828125,-0.833984375,0.0751953125
795,2.349,IMU0,2.8658536585365857,227.9268292682927,0.7317073170731708,0.029296875,-0.822265625,0.0595703125
796,2.349,IMU1,1.0365853658536586,227.7439024390244,1.8902439024390245,0.0361328125,-0.810546875,0.05078125
797,2.349,IMU2,3.1097560975609757,229.39024390243904,1.707317073170732,0.03515625,-0.826171875,0.0732421875
798,2.359,IMU0,2.439024390243903,227.56097560975613,0.9146341463414634,0.009765625,-0.818359375,0.060546875
799,2.359,IMU1,0.9146341463414634,227.31707317073173,1.9512195121951221,0.0224609375,-0.8095703125,0.052734375
800,2.359,IMU2,2.6219512195121952,229.08536585365854,1.829268292682927,0.0185546875,-0.82421875,0.0751953125
801,2.369,IMU0,1.9512195121951221,227.13414634146343,0.9756097560975611,-0.009765625,-0.8193359375,0.052734375
802,2.369,IMU1,0.3658536585365854,227.07317073170734,2.0121951219512195,0.0009765625,-0.8095703125,0.0400390625
803,2.369,IMU2,1.8902439024390245,228.53658536585368,1.8902439024390245,-0.00390625,-0.826171875,0.060546875
804,2.379,IMU0,1.6463414634146343,226.82926829268294,0.6707317073170732,-0.021484375,-0.8203125,0.044921875
805,2.379,IMU1,0.12195121951219513,226.64634146341464,1.707317073170732,-0.0126953125,-0.8115234375,0.029296875
806,2.379,IMU2,1.7682926829268295,228.109756097561,1.524390243902439,-0.0166015625,-0.826171875,0.0517578125
807,2.389,IMU0,1.2195121951219514,226.46341463414637,0.0,-0.037109375,-0.82421875,0.0341796875
808,2.389,IMU1,-0.6707317073170732,226.40243902439028,1.0365853658536586,-0.0244140625,-0.8154296875,0.0263671875
809,2.389,IMU2,1.402439024390244,227.8048780487805,0.853658536585366,-0.029296875,-0.830078125,0.0517578125
810,2.399,IMU0,0.9146341463414634,226.15853658536588,-0.9756097560975611,-0.021484375,-0.822265625,0.0107421875
811,2.399,IMU1,-0.6707317073170732,226.03658536585368,0.06097560975609757,-0.0078125,-0.8154296875,-0.0029296875
812,2.399,IMU2,1.0975609756097562,227.50000000000003,-0.12195121951219513,-0.013671875,-0.828125,0.0224609375
813,2.409,IMU0,0.9756097560975611,226.03658536585368,-1.5853658536585367,0.0048828125,-0.8125,-0.0029296875
814,2.409,IMU1,-0.6707317073170732,226.03658536585368,-0.48780487804878053,0.0185546875,-0.80859375,-0.0185546875
815,2.409,IMU2,1.0975609756097562,227.25609756097563,-0.6707317073170732,0.0126953125,-0.8212890625,0.0078125
816,2.419,IMU0,0.853658536585366,226.09756097560978,-1.4634146341463417,0.03515625,-0.814453125,-0.0087890625
817,2.419,IMU1,-0.9146341463414634,226.09756097560978,-0.3658536585365854,0.044921875,-0.8076171875,-0.0205078125
818,2.419,IMU2,0.9146341463414634,227.37804878048783,-0.48780487804878053,0.041015625,-0.8212890625,0.00390625
819,2.429,IMU0,0.6707317073170732,226.15853658536588,-1.0365853658536586,0.0380859375,-0.8115234375,-0.0234375
820,2.429,IMU1,-1.0365853658536586,225.97560975609758,0.06097560975609757,0.046875,-0.8046875,-0.04296875
821,2.429,IMU2,0.6097560975609757,227.31707317073173,-0.06097560975609757,0.0439453125,-0.818359375,-0.0107421875
822,2.439,IMU0,1.1585365853658538,226.28048780487808,-0.6097560975609757,0.0234375,-0.814453125,-0.0595703125
823,2.439,IMU1,-0.3658536585365854,226.03658536585368,0.426829268292683,0.0302734375,-0.80859375,-0.072265625
824,2.439,IMU2,1.3414634146341464,227.56097560975613,0.3658536585365854,0.0302734375,-0.8212890625,-0.0478515625
825,2.449,IMU0,1.9512195121951221,226.34146341463418,-0.1829268292682927,0.001953125,-0.814453125,-0.0771484375
826,2.449,IMU1,0.5487804878048781,225.97560975609758,0.853658536585366,0.0078125,-0.8056640625,-0.0888671875
827,2.449,IMU2,2.1951219512195124,227.50000000000003,0.853658536585366,0.0078125,-0.8203125,-0.0634765625
828,2.459,IMU0,3.1097560975609757,225.97560975609758,0.12195121951219513,-0.0390625,-0.8115234375,-0.0712890625
829,2.459,IMU1,1.0365853658536586,226.03658536585368,1.3414634146341464,-0.03515625,-0.806640625,-0.078125
830,2.459,IMU2,3.1707317073170733,227.50000000000003,1.1585365853658538,-0.03125,-0.81640625,-0.05859375
831,2.469,IMU0,3.963414634146342,226.46341463414637,0.1829268292682927,-0.080078125,-0.8271484375,-0.0625
832,2.469,IMU1,2.3170731707317076,226.46341463414637,1.2804878048780488,-0.072265625,-0.8212890625,-0.0673828125
833,2.469,IMU2,3.9024390243902443,227.8048780487805,1.2195121951219514,-0.07421875,-0.8330078125,-0.0458984375
834,2.479,IMU0,4.51219512195122,226.70731707317074,-0.06097560975609757,-0.0986328125,-0.841796875,-0.041015625
835,2.479,IMU1,2.439024390243903,226.82926829268294,1.1585365853658538,-0.0869140625,-0.8349609375,-0.056640625
836,2.479,IMU2,4.2682926829268295,227.9268292682927,1.0365853658536586,-0.0947265625,-0.8466796875,-0.02734375
837,2.489,IMU0,4.939024390243903,227.50000000000003,-0.3658536585365854,-0.1083984375,-0.8515625,-0.0244140625
838,2.489,IMU1,2.987804878048781,227.50000000000003,0.7926829268292683,-0.103515625,-0.841796875,-0.041015625
839,2.489,IMU2,4.878048780487806,228.78048780487808,0.7317073170731708,-0.10546875,-0.8544921875,-0.009765625
840,2.499,IMU0,5.2439024390243905,228.109756097561,-1.0975609756097562,-0.12890625,-0.8544921875,-0.01953125
841,2.499,IMU1,3.048780487804878,228.2317073170732,0.0,-0.1201171875,-0.845703125,-0.0302734375
842,2.499,IMU2,5.2439024390243905,229.51219512195124,-0.06097560975609757,-0.126953125,-0.8583984375,-0.0029296875
843,2.509,IMU0,5.365853658536586,228.41463414634148,-2.1951219512195124,-0.1240234375,-0.8525390625,-0.015625
844,2.509,IMU1,3.2926829268292686,228.53658536585368,-1.1585365853658538,-0.111328125,-0.8447265625,-0.02734375
845,2.509,IMU2,5.426829268292684,229.81707317073173,-1.1585365853658538,-0.12109375,-0.859375,0.0
846,2.519,IMU0,5.975609756097562,228.65853658536588,-3.048780487804878,-0.1025390625,-0.8447265625,-0.013671875
847,2.519,IMU1,3.658536585365854,228.90243902439028,-1.829268292682927,-0.091796875,-0.8388671875,-0.0244140625
848,2.519,IMU2,5.975609756097562,229.93902439024393,-2.0121951219512195,-0.1005859375,-0.8515625,0.00390625
849,2.529,IMU0,6.890243902439025,228.71951219512198,-3.4756097560975614,-0.087890625,-0.84375,-0.0322265625
850,2.529,IMU1,4.51219512195122,228.84146341463418,-2.1951219512195124,-0.080078125,-0.8359375,-0.0302734375
851,2.529,IMU2,6.829268292682928,230.12195121951223,-2.439024390243903,-0.083984375,-0.849609375,-0.0146484375
852,2.539,IMU0,7.8048780487804885,228.1707317073171,-3.7195121951219514,-0.109375,-0.8310546875,0.0146484375
853,2.539,IMU1,5.487804878048781,228.109756097561,-2.5609756097560976,-0.1025390625,-0.8232421875,0.013671875
854,2.539,IMU2,7.743902439024391,229.69512195121953,-2.682926829268293,-0.1044921875,-0.8359375,0.0341796875
855,2.549,IMU0,7.8048780487804885,228.1707317073171,-3.7195121951219514,-0.109375,-0.8310546875,0.0146484375
856,2.549,IMU1,6.463414634146342,227.56097560975613,-3.414634146341464,-0.138671875,-0.8232421875,0.033203125
857,2.549,IMU2,8.353658536585366,229.20731707317074,-3.353658536585366,-0.140625,-0.837890625,0.0595703125
858,2.559,IMU0,8.597560975609756,227.8658536585366,-5.548780487804878,-0.134765625,-0.830078125,0.046875
859,2.559,IMU1,6.829268292682928,227.7439024390244,-4.451219512195122,-0.123046875,-0.8203125,0.0419921875
860,2.559,IMU2,8.78048780487805,229.20731707317074,-4.451219512195122,-0.130859375,-0.8359375,0.0654296875
861,2.569,IMU0,8.414634146341465,228.0487804878049,-6.341463414634147,-0.0927734375,-0.82421875,0.1015625
862,2.569,IMU1,6.52439024390244,227.7439024390244,-5.2439024390243905,-0.0751953125,-0.814453125,0.0947265625
863,2.569,IMU2,8.353658536585366,229.45121951219514,-5.182926829268293,-0.0859375,-0.828125,0.12109375
864,2.579,IMU0,7.621951219512196,228.2317073170732,-6.707317073170732,-0.0830078125,-0.8232421875,0.0986328125
865,2.579,IMU1,6.097560975609756,228.0487804878049,-5.548780487804878,-0.0771484375,-0.814453125,0.099609375
866,2.579,IMU2,7.621951219512196,229.81707317073173,-5.609756097560976,-0.0810546875,-0.8291015625,0.1201171875
867,2.589,IMU0,7.560975609756098,227.8658536585366,-7.134146341463415,-0.072265625,-0.822265625,0.0751953125
868,2.589,IMU1,5.975609756097562,227.7439024390244,-5.975609756097562,-0.060546875,-0.8134765625,0.06640625
869,2.589,IMU2,7.743902439024391,229.45121951219514,-6.036585365853659,-0.06640625,-0.828125,0.091796875
870,2.599,IMU0,7.743902439024391,227.31707317073173,-7.317073170731708,-0.0634765625,-0.8193359375,0.11328125
871,2.599,IMU1,5.853658536585367,227.25609756097563,-6.097560975609756,-0.052734375,-0.810546875,0.0986328125
872,2.599,IMU2,8.048780487804878,228.90243902439028,-6.2804878048780495,-0.0556640625,-0.8251953125,0.1220703125
873,2.609,IMU0,7.317073170731708,227.25609756097563,-7.378048780487806,-0.05078125,-0.8134765625,0.138671875
874,2.609,IMU1,5.2439024390243905,227.13414634146343,-6.097560975609756,-0.041015625,-0.8037109375,0.130859375
875,2.609,IMU2,7.500000000000001,228.59756097560978,-6.2804878048780495,-0.04296875,-0.818359375,0.15234375
876,2.619,IMU0,6.463414634146342,226.95121951219514,-6.890243902439025,-0.02734375,-0.8134765625,0.1484375
877,2.619,IMU1,4.573170731707317,226.89024390243904,-5.731707317073171,-0.0166015625,-0.8046875,0.1337890625
878,2.619,IMU2,6.219512195121951,228.41463414634148,-5.914634146341464,-0.01953125,-0.8193359375,0.162109375
879,2.629,IMU0,5.670731707317073,226.34146341463418,-6.402439024390245,-0.0380859375,-0.8115234375,0.125
880,2.629,IMU1,3.7195121951219514,226.34146341463418,-5.2439024390243905,-0.0302734375,-0.8037109375,0.1220703125
881,2.629,IMU2,5.731707317073171,227.8658536585366,-5.426829268292684,-0.0322265625,-0.818359375,0.146484375
882,2.639,IMU0,5.2439024390243905,225.3658536585366,-6.158536585365854,-0.0517578125,-0.8076171875,0.140625
883,2.639,IMU1,3.2926829268292686,225.4878048780488,-4.939024390243903,-0.04296875,-0.80078125,0.134765625
884,2.639,IMU2,5.2439024390243905,227.01219512195124,-5.121951219512195,-0.046875,-0.814453125,0.15625
885,2.649,IMU0,4.390243902439025,225.00000000000003,-5.914634146341464,-0.037109375,-0.8095703125,0.138671875
886,2.649,IMU1,2.378048780487805,225.06097560975613,-4.695121951219512,-0.0263671875,-0.8017578125,0.1328125
887,2.649,IMU2,4.878048780487806,226.52439024390245,-4.878048780487806,-0.03125,-0.81640625,0.158203125
888,2.659,IMU0,3.7195121951219514,224.57317073170734,-5.548780487804878,-0.060546875,-0.8095703125,0.1298828125
889,2.659,IMU1,1.7682926829268295,224.57317073170734,-4.390243902439025,-0.0498046875,-0.80078125,0.1220703125
890,2.659,IMU2,3.9024390243902443,225.97560975609758,-4.51219512195122,-0.0546875,-0.814453125,0.14453125
891,2.669,IMU0,3.1707317073170733,224.26829268292684,-5.548780487804878,-0.0751953125,-0.810546875,0.1171875
892,2.669,IMU1,1.0365853658536586,224.08536585365854,-4.390243902439025,-0.0625,-0.8046875,0.107421875
893,2.669,IMU2,3.4756097560975614,225.5487804878049,-4.573170731707317,-0.0673828125,-0.8193359375,0.1298828125
894,2.679,IMU0,2.7439024390243905,223.53658536585368,-5.670731707317073,-0.08203125,-0.7998046875,0.1259765625
895,2.679,IMU1,0.24390243902439027,223.65853658536588,-4.573170731707317,-0.0732421875,-0.791015625,0.1181640625
896,2.679,IMU2,2.6219512195121952,225.18292682926833,-4.695121951219512,-0.0771484375,-0.8056640625,0.140625
897,2.689,IMU0,2.1951219512195124,222.7439024390244,-6.097560975609756,-0.087890625,-0.7978515625,0.125
898,2.689,IMU1,-0.12195121951219513,222.8048780487805,-5.0,-0.08203125,-0.7890625,0.12109375
899,2.689,IMU2,2.073170731707317,224.39024390243904,-5.121951219512195,-0.0859375,-0.8037109375,0.142578125
900,2.699,IMU0,1.524390243902439,222.62195121951223,-6.2804878048780495,-0.056640625,-0.794921875,0.107421875
901,2.699,IMU1,-0.7926829268292683,222.56097560975613,-5.121951219512195,-0.0458984375,-0.78515625,0.103515625
902,2.699,IMU2,1.6463414634146343,224.02439024390245,-5.3048780487804885,-0.05078125,-0.80078125,0.126953125
903,2.709,IMU0,1.0975609756097562,222.43902439024393,-6.52439024390244,-0.08984375,-0.7919921875,0.095703125
904,2.709,IMU1,-0.7317073170731708,221.95121951219514,-5.426829268292684,-0.0791015625,-0.7841796875,0.087890625
905,2.709,IMU2,1.0365853658536586,223.71951219512198,-5.487804878048781,-0.083984375,-0.7978515625,0.1123046875
906,2.719,IMU0,0.6097560975609757,221.46341463414637,-7.073170731707318,-0.078125,-0.7880859375,0.1123046875
907,2.719,IMU1,-1.4634146341463417,221.34146341463418,-5.914634146341464,-0.064453125,-0.7802734375,0.099609375
908,2.719,IMU2,0.7317073170731708,223.109756097561,-6.097560975609756,-0.0693359375,-0.7939453125,0.125
909,2.729,IMU0,-0.12195121951219513,220.85365853658539,-7.560975609756098,-0.0859375,-0.7783203125,0.0908203125
910,2.729,IMU1,-1.7682926829268295,220.609756097561,-6.463414634146342,-0.0751953125,-0.7705078125,0.080078125
911,2.729,IMU2,0.1829268292682927,222.43902439024393,-6.585365853658537,-0.080078125,-0.7841796875,0.1044921875
912,2.739,IMU0,-0.30487804878048785,220.7317073170732,-8.170731707317074,-0.068359375,-0.779296875,0.056640625
913,2.739,IMU1,-2.073170731707317,220.4268292682927,-7.073170731707318,-0.0615234375,-0.771484375,0.0546875
914,2.739,IMU2,0.12195121951219513,222.19512195121953,-7.195121951219513,-0.0673828125,-0.78515625,0.0771484375
915,2.749,IMU0,0.06097560975609757,220.3048780487805,-8.597560975609756,-0.0390625,-0.7802734375,0.0322265625
916,2.749,IMU1,-1.707317073170732,220.18292682926833,-7.560975609756098,-0.0302734375,-0.7724609375,0.0263671875
917,2.749,IMU2,0.30487804878048785,221.76829268292684,-7.682926829268293,-0.03515625,-0.7861328125,0.048828125
918,2.759,IMU0,0.6707317073170732,219.93902439024393,-8.78048780487805,-0.02734375,-0.7763671875,0.0302734375
919,2.759,IMU1,-1.2195121951219514,219.93902439024393,-7.743902439024391,-0.017578125,-0.7685546875,0.0205078125
920,2.759,IMU2,0.7926829268292683,221.28048780487808,-7.865853658536586,-0.021484375,-0.7822265625,0.0458984375
921,2.769,IMU0,0.853658536585366,219.69512195121953,-8.719512195121952,-0.0087890625,-0.76953125,0.0595703125
922,2.769,IMU1,-0.7926829268292683,219.63414634146343,-7.621951219512196,0.001953125,-0.759765625,0.052734375
923,2.769,IMU2,1.0365853658536586,220.97560975609758,-7.8048780487804885,-0.001953125,-0.7734375,0.078125
924,2.779,IMU0,0.9146341463414634,219.39024390243904,-8.475609756097562,-0.001953125,-0.7685546875,0.0439453125
925,2.779,IMU1,-0.9756097560975611,219.51219512195124,-7.439024390243903,0.0029296875,-0.7587890625,0.0400390625
926,2.779,IMU2,1.1585365853658538,220.7926829268293,-7.621951219512196,0.001953125,-0.7724609375,0.0615234375
927,2.789,IMU0,1.2195121951219514,218.96341463414635,-8.353658536585366,0.0146484375,-0.7646484375,0.01953125
928,2.789,IMU1,-0.9146341463414634,218.90243902439028,-7.25609756097561,0.0205078125,-0.7548828125,0.0166015625
929,2.789,IMU2,1.2195121951219514,220.2439024390244,-7.439024390243903,0.01953125,-0.76953125,0.037109375
930,2.799,IMU0,1.5853658536585367,218.65853658536588,-7.926829268292684,0.0302734375,-0.7705078125,0.015625
931,2.799,IMU1,-0.426829268292683,218.65853658536588,-6.890243902439025,0.0419921875,-0.7587890625,0.013671875
932,2.799,IMU2,1.524390243902439,220.06097560975613,-7.073170731707318,0.0380859375,-0.7734375,0.0322265625
933,2.809,IMU0,2.073170731707317,218.53658536585368,-7.682926829268293,0.0205078125,-0.7626953125,0.00390625
934,2.809,IMU1,-0.12195121951219513,218.47560975609758,-6.646341463414635,0.03125,-0.75390625,0.0029296875
935,2.809,IMU2,2.073170731707317,219.75609756097563,-6.829268292682928,0.029296875,-0.7666015625,0.0205078125
936,2.819,IMU0,2.3170731707317076,218.65853658536588,-7.560975609756098,0.04296875,-0.759765625,0.0166015625
937,2.819,IMU1,0.3658536585365854,218.47560975609758,-6.463414634146342,0.05078125,-0.7490234375,0.013671875
938,2.819,IMU2,2.439024390243903,219.81707317073173,-6.585365853658537,0.0478515625,-0.7646484375,0.0341796875
939,2.829,IMU0,2.5,218.2926829268293,-7.01219512195122,0.0703125,-0.7587890625,0.0185546875
940,2.829,IMU1,0.6097560975609757,218.109756097561,-5.914634146341464,0.080078125,-0.748046875,0.017578125
941,2.829,IMU2,2.25609756097561,219.57317073170734,-6.036585365853659,0.078125,-0.763671875,0.037109375
942,2.839,IMU0,2.5,218.0487804878049,-6.036585365853659,0.0869140625,-0.7568359375,0.025390625
943,2.839,IMU1,0.5487804878048781,218.0487804878049,-5.0,0.0986328125,-0.7470703125,0.0166015625
944,2.839,IMU2,2.7439024390243905,219.20731707317074,-5.121951219512195,0.0947265625,-0.76171875,0.0419921875
945,2.849,IMU0,2.7439024390243905,217.31707317073173,-4.878048780487806,0.0966796875,-0.75390625,0.0322265625
946,2.849,IMU1,0.6707317073170732,217.31707317073173,-3.8414634146341466,0.1064453125,-0.7451171875,0.0185546875
947,2.849,IMU2,2.7439024390243905,218.65853658536588,-3.9024390243902443,0.1044921875,-0.759765625,0.0458984375
948,2.859,IMU0,2.9268292682926833,216.76829268292684,-3.5975609756097566,0.0908203125,-0.7509765625,0.029296875
949,2.859,IMU1,0.9756097560975611,216.64634146341464,-2.6219512195121952,0.09765625,-0.7412109375,0.021484375
950,2.859,IMU2,2.8658536585365857,218.109756097561,-2.682926829268293,0.09765625,-0.755859375,0.041015625
951,2.869,IMU0,3.353658536585366,216.21951219512198,-2.5,0.08203125,-0.75390625,0.0390625
952,2.869,IMU1,1.2195121951219514,216.15853658536588,-1.4634146341463417,0.09375,-0.744140625,0.03515625
953,2.869,IMU2,2.987804878048781,217.56097560975613,-1.524390243902439,0.0888671875,-0.7587890625,0.0498046875
954,2.879,IMU0,3.353658536585366,215.7317073170732,-1.6463414634146343,0.0625,-0.751953125,0.0439453125
955,2.879,IMU1,1.5853658536585367,215.6707317073171,-0.6707317073170732,0.07421875,-0.7431640625,0.0419921875
956,2.879,IMU2,3.353658536585366,217.13414634146343,-0.6707317073170732,0.068359375,-0.7578125,0.0556640625
957,2.889,IMU0,3.048780487804878,215.2439024390244,-1.0975609756097562,0.0380859375,-0.74609375,0.076171875
958,2.889,IMU1,1.3414634146341464,215.12195121951223,-0.06097560975609757,0.0498046875,-0.7353515625,0.072265625
959,2.889,IMU2,3.353658536585366,216.64634146341464,-0.1829268292682927,0.04296875,-0.75,0.0908203125
960,2.899,IMU0,2.3170731707317076,214.93902439024393,-0.853658536585366,0.0244140625,-0.736328125,0.09765625
961,2.899,IMU1,0.853658536585366,214.57317073170734,0.12195121951219513,0.0322265625,-0.7275390625,0.0908203125
962,2.899,IMU2,2.378048780487805,216.03658536585368,0.06097560975609757,0.03125,-0.7412109375,0.1103515625
963,2.909,IMU0,1.6463414634146343,214.51219512195124,-0.9756097560975611,-0.0078125,-0.7392578125,0.080078125
964,2.909,IMU1,0.1829268292682927,214.14634146341464,0.0,0.0029296875,-0.7314453125,0.0693359375
965,2.909,IMU2,1.829268292682927,215.6707317073171,-0.06097560975609757,-0.005859375,-0.74609375,0.0927734375
966,2.919,IMU0,1.402439024390244,214.14634146341464,-1.2804878048780488,0.0107421875,-0.7353515625,0.0458984375
967,2.919,IMU1,0.0,213.84146341463418,-0.24390243902439027,0.01953125,-0.728515625,0.0361328125
968,2.919,IMU2,1.4634146341463417,215.3658536585366,-0.3658536585365854,0.0146484375,-0.740234375,0.0615234375
969,2.929,IMU0,1.2804878048780488,213.35365853658539,-1.2804878048780488,-0.0048828125,-0.7275390625,0.0439453125
970,2.929,IMU1,-0.48780487804878053,213.41463414634148,-0.24390243902439027,0.005859375,-0.7216796875,0.0322265625
971,2.929,IMU2,1.524390243902439,214.75609756097563,-0.426829268292683,-0.0009765625,-0.7353515625,0.0576171875
972,2.939,IMU0,0.9756097560975611,212.9268292682927,-1.402439024390244,0.0048828125,-0.73046875,0.0419921875
973,2.939,IMU1,-0.853658536585366,212.9268292682927,-0.30487804878048785,0.01171875,-0.720703125,0.0380859375
974,2.939,IMU2,1.1585365853658538,214.32926829268294,-0.5487804878048781,0.0087890625,-0.7373046875,0.0595703125
975,2.949,IMU0,0.9756097560975611,212.8048780487805,-1.402439024390244,0.0078125,-0.7333984375,0.0166015625
976,2.949,IMU1,-1.0975609756097562,212.68292682926833,-0.24390243902439027,0.017578125,-0.72265625,0.013671875
977,2.949,IMU2,0.9146341463414634,214.08536585365854,-0.48780487804878053,0.01171875,-0.7392578125,0.0361328125
978,2.959,IMU0,1.0975609756097562,212.62195121951223,-1.2804878048780488,0.001953125,-0.73046875,0.0087890625
979,2.959,IMU1,-0.9756097560975611,212.50000000000003,-0.24390243902439027,0.009765625,-0.7197265625,-0.0048828125
980,2.959,IMU2,1.1585365853658538,213.71951219512198,-0.48780487804878053,0.0068359375,-0.736328125,0.0302734375
981,2.969,IMU0,1.2804878048780488,212.37804878048783,-1.402439024390244,-0.0107421875,-0.7275390625,0.0263671875
982,2.969,IMU1,-0.6707317073170732,212.31707317073173,-0.3658536585365854,0.0,-0.7177734375,0.0107421875
983,2.969,IMU2,1.0975609756097562,213.41463414634148,-0.48780487804878053,-0.0078125,-0.7333984375,0.0478515625
984,2.979,IMU0,1.3414634146341464,212.25609756097563,-1.6463414634146343,-0.0244140625,-0.7275390625,0.0185546875
985,2.979,IMU1,-0.426829268292683,212.13414634146343,-0.5487804878048781,-0.0146484375,-0.7177734375,0.0107421875
986,2.979,IMU2,1.2804878048780488,213.53658536585368,-0.7317073170731708,-0.0166015625,-0.7333984375,0.0341796875
987,2.989,IMU0,1.4634146341463417,212.31707317073173,-1.7682926829268295,-0.0185546875,-0.7158203125,0.00390625
988,2.989,IMU1,0.0,212.07317073170734,-0.6707317073170732,-0.0107421875,-0.708984375,-0.009765625
989,2.989,IMU2,1.707317073170732,213.47560975609758,-0.853658536585366,-0.013671875,-0.7216796875,0.0166015625
990,2.999,IMU0,1.6463414634146343,212.13414634146343,-1.7682926829268295,-0.021484375,-0.71484375,0.0166015625
991,2.999,IMU1,0.1829268292682927,211.95121951219514,-0.6097560975609757,-0.013671875,-0.7060546875,0.0078125
992,2.999,IMU2,1.707317073170732,213.41463414634148,-0.7317073170731708,-0.0146484375,-0.720703125,0.03515625
993,3.009,IMU0,1.5853658536585367,212.43902439024393,-1.707317073170732,-0.0166015625,-0.7177734375,0.0166015625
994,3.009,IMU1,0.06097560975609757,212.07317073170734,-0.6097560975609757,-0.0078125,-0.7099609375,0.009765625
995,3.009,IMU2,1.6463414634146343,213.65853658536588,-0.6707317073170732,-0.0107421875,-0.72265625,0.0361328125
996,3.019,IMU0,1.6463414634146343,212.56097560975613,-1.6463414634146343,-0.0068359375,-0.7177734375,0.0078125
997,3.019,IMU1,-0.12195121951219513,212.31707317073173,-0.6097560975609757,0.0009765625,-0.7099609375,0.0
998,3.019,IMU2,1.7682926829268295,213.84146341463418,-0.7317073170731708,-0.0029296875,-0.72265625,0.0244140625
999,3.029,IMU0,1.7682926829268295,212.56097560975613,-1.6463414634146343,-0.0009765625,-0.712890625,0.0166015625
1000,3.029,IMU1,0.12195121951219513,212.31707317073173,-0.6097560975609757,0.0078125,-0.703125,0.00390625
1001,3.029,IMU2,2.1341463414634148,213.71951219512198,-0.6707317073170732,0.0048828125,-0.716796875,0.0322265625
1002,3.039,IMU0,1.9512195121951221,212.50000000000003,-1.3414634146341464,0.0087890625,-0.7060546875,0.0224609375
1003,3.039,IMU1,-0.24390243902439027,212.19512195121953,-0.1829268292682927,0.017578125,-0.697265625,0.0126953125
1004,3.039,IMU2,2.378048780487805,213.71951219512198,-0.426829268292683,0.013671875,-0.7138671875,0.0400390625
1005,3.049,IMU0,2.073170731707317,212.07317073170734,-1.2195121951219514,-0.0166015625,-0.7080078125,0.0224609375
1006,3.049,IMU1,0.5487804878048781,211.76829268292684,-0.12195121951219513,-0.0048828125,-0.7001953125,0.013671875
1007,3.049,IMU2,2.3170731707317076,213.35365853658539,-0.3658536585365854,-0.0126953125,-0.7138671875,0.037109375
1008,3.059,IMU0,2.073170731707317,212.07317073170734,-1.2804878048780488,-0.0263671875,-0.70703125,0.013671875
1009,3.059,IMU1,0.853658536585366,211.64634146341464,-0.1829268292682927,-0.0146484375,-0.69921875,0.001953125
1010,3.059,IMU2,2.5,213.35365853658539,-0.3658536585365854,-0.0224609375,-0.7138671875,0.02734375
1011,3.069,IMU0,2.3170731707317076,212.01219512195124,-1.402439024390244,-0.0361328125,-0.7001953125,0.013671875
1012,3.069,IMU1,0.9756097560975611,211.70731707317074,-0.426829268292683,-0.0244140625,-0.6923828125,0.001953125
1013,3.069,IMU2,2.5609756097560976,213.35365853658539,-0.5487804878048781,-0.0302734375,-0.7060546875,0.02734375
1014,3.079,IMU0,2.25609756097561,212.01219512195124,-1.5853658536585367,-0.0302734375,-0.7041015625,0.04296875
1015,3.079,IMU1,0.7317073170731708,211.89024390243904,-0.5487804878048781,-0.0205078125,-0.697265625,0.0244140625
1016,3.079,IMU2,2.3170731707317076,213.41463414634148,-0.7317073170731708,-0.0244140625,-0.7109375,0.05078125
1017,3.089,IMU0,2.073170731707317,212.07317073170734,-1.6463414634146343,-0.02734375,-0.7041015625,0.013671875
1018,3.089,IMU1,0.426829268292683,212.13414634146343,-0.5487804878048781,-0.01953125,-0.6962890625,0.0029296875
1019,3.089,IMU2,2.073170731707317,213.47560975609758,-0.7317073170731708,-0.0224609375,-0.7099609375,0.02734375
1020,3.099,IMU0,2.1951219512195124,212.19512195121953,-1.707317073170732,-0.0322265625,-0.697265625,-0.0107421875
1021,3.099,IMU1,0.426829268292683,212.07317073170734,-0.6097560975609757,-0.0263671875,-0.689453125,-0.0107421875
1022,3.099,IMU2,2.1341463414634148,213.47560975609758,-0.7926829268292683,-0.0283203125,-0.703125,0.0107421875
1023,3.109,IMU0,2.3170731707317076,211.76829268292684,-1.8902439024390245,-0.03515625,-0.6962890625,-0.005859375
1024,3.109,IMU1,0.6707317073170732,211.52439024390245,-0.7926829268292683,-0.029296875,-0.6884765625,-0.0107421875
1025,3.109,IMU2,2.1341463414634148,213.0487804878049,-0.9146341463414634,-0.03125,-0.7021484375,0.0126953125
1026,3.119,IMU0,2.682926829268293,211.46341463414635,-2.073170731707317,-0.0380859375,-0.6953125,-0.0234375
1027,3.119,IMU1,1.0365853658536586,211.21951219512198,-1.0365853658536586,-0.03515625,-0.685546875,-0.0263671875
1028,3.119,IMU2,2.7439024390243905,213.0487804878049,-1.0975609756097562,-0.037109375,-0.701171875,-0.0029296875
1029,3.129,IMU0,3.1097560975609757,211.40243902439028,-2.3170731707317076,-0.046875,-0.689453125,-0.029296875
1030,3.129,IMU1,1.7682926829268295,211.21951219512198,-1.2804878048780488,-0.0400390625,-0.681640625,-0.033203125
1031,3.129,IMU2,3.353658536585366,212.8048780487805,-1.402439024390244,-0.04296875,-0.6962890625,-0.0107421875
1032,3.139,IMU0,3.5975609756097566,211.46341463414635,-2.5,-0.0400390625,-0.6865234375,-0.017578125
1033,3.139,IMU1,2.3170731707317076,211.28048780487808,-1.402439024390244,-0.033203125,-0.6796875,-0.013671875
1034,3.139,IMU2,3.963414634146342,212.68292682926833,-1.5853658536585367,-0.0341796875,-0.693359375,0.0087890625
1035,3.149,IMU0,3.8414634146341466,211.46341463414635,-2.5,-0.033203125,-0.6875,0.005859375
1036,3.149,IMU1,2.5,211.34146341463418,-1.402439024390244,-0.02734375,-0.6796875,0.0087890625
1037,3.149,IMU2,4.146341463414634,212.7439024390244,-1.524390243902439,-0.0302734375,-0.693359375,0.0322265625
1038,3.159,IMU0,3.9024390243902443,211.52439024390245,-2.5,-0.04296875,-0.685546875,0.0
1039,3.159,IMU1,2.5,211.21951219512198,-1.3414634146341464,-0.037109375,-0.677734375,0.0009765625
1040,3.159,IMU2,4.146341463414634,212.68292682926833,-1.524390243902439,-0.041015625,-0.69140625,0.0244140625
1041,3.169,IMU0,4.207317073170732,211.46341463414635,-2.5609756097560976,-0.0458984375,-0.68359375,-0.005859375
1042,3.169,IMU1,2.804878048780488,211.34146341463418,-1.4634146341463417,-0.037109375,-0.677734375,-0.0126953125
1043,3.169,IMU2,4.51219512195122,212.7439024390244,-1.6463414634146343,-0.0400390625,-0.689453125,0.0107421875
1044,3.179,IMU0,4.634146341463415,211.40243902439028,-2.6219512195121952,-0.041015625,-0.681640625,0.013671875
1045,3.179,IMU1,3.231707317073171,211.28048780487808,-1.524390243902439,-0.0361328125,-0.6748046875,0.009765625
1046,3.179,IMU2,5.060975609756098,212.8048780487805,-1.6463414634146343,-0.0380859375,-0.6875,0.0322265625
1047,3.189,IMU0,4.75609756097561,211.46341463414635,-2.5609756097560976,-0.0458984375,-0.6826171875,0.0244140625
1048,3.189,IMU1,3.2926829268292686,211.28048780487808,-1.524390243902439,-0.037109375,-0.6748046875,0.013671875
1049,3.189,IMU2,5.2439024390243905,212.8048780487805,-1.6463414634146343,-0.041015625,-0.6884765625,0.037109375
1050,3.199,IMU0,4.817073170731708,211.28048780487808,-2.6219512195121952,-0.0419921875,-0.6806640625,0.04296875
1051,3.199,IMU1,3.4756097560975614,211.09756097560978,-1.5853658536585367,-0.037109375,-0.671875,0.03515625
1052,3.199,IMU2,5.182926829268293,212.43902439024393,-1.707317073170732,-0.0400390625,-0.685546875,0.0595703125
1053,3.209,IMU0,4.573170731707317,210.85365853658539,-2.682926829268293,-0.0458984375,-0.67578125,0.052734375
1054,3.209,IMU1,3.048780487804878,210.85365853658539,-1.524390243902439,-0.0380859375,-0.666015625,0.0390625
1055,3.209,IMU2,4.817073170731708,212.01219512195124,-1.707317073170732,-0.0419921875,-0.6796875,0.0625
1056,3.219,IMU0,4.390243902439025,210.4878048780488,-2.8658536585365857,-0.033203125,-0.6708984375,0.0498046875
1057,3.219,IMU1,2.804878048780488,210.4268292682927,-1.707317073170732,-0.0205078125,-0.6611328125,0.0380859375
1058,3.219,IMU2,4.51219512195122,211.64634146341464,-1.8902439024390245,-0.0244140625,-0.67578125,0.0625
1059,3.229,IMU0,4.207317073170732,210.1829268292683,-2.9268292682926833,-0.01953125,-0.6640625,0.0498046875
1060,3.229,IMU1,2.5,210.1829268292683,-1.7682926829268295,-0.01171875,-0.654296875,0.041015625
1061,3.229,IMU2,4.329268292682928,211.40243902439028,-1.9512195121951221,-0.013671875,-0.669921875,0.060546875
1062,3.239,IMU0,3.7195121951219514,209.93902439024393,-2.7439024390243905,-0.0029296875,-0.666015625,0.0498046875
1063,3.239,IMU1,2.1341463414634148,209.81707317073173,-1.5853658536585367,0.005859375,-0.65625,0.046875
1064,3.239,IMU2,3.8414634146341466,211.15853658536588,-1.707317073170732,0.0029296875,-0.671875,0.07421875
1065,3.249,IMU0,3.2926829268292686,209.45121951219514,-2.1951219512195124,0.0048828125,-0.6650390625,0.0478515625
1066,3.249,IMU1,1.829268292682927,209.26829268292684,-1.0365853658536586,0.0126953125,-0.65625,0.0400390625
1067,3.249,IMU2,3.1707317073170733,210.6707317073171,-1.1585365853658538,0.0107421875,-0.6708984375,0.0673828125
1068,3.259,IMU0,2.8658536585365857,209.08536585365854,-1.707317073170732,-0.0166015625,-0.6669921875,0.0390625
1069,3.259,IMU1,1.1585365853658538,209.08536585365854,-0.6097560975609757,-0.0087890625,-0.658203125,0.033203125
1070,3.259,IMU2,2.987804878048781,210.4878048780488,-0.7317073170731708,-0.01171875,-0.6728515625,0.05859375
1071,3.269,IMU0,2.804878048780488,208.65853658536588,-1.4634146341463417,-0.0224609375,-0.666015625,0.017578125
1072,3.269,IMU1,1.0975609756097562,208.47560975609758,-0.426829268292683,-0.01171875,-0.658203125,0.0068359375
1073,3.269,IMU2,3.1097560975609757,210.12195121951223,-0.5487804878048781,-0.0185546875,-0.6708984375,0.037109375
1074,3.279,IMU0,3.048780487804878,208.2926829268293,-1.3414634146341464,-0.0244140625,-0.6640625,0.017578125
1075,3.279,IMU1,1.5853658536585367,208.1707317073171,-0.24390243902439027,-0.015625,-0.654296875,0.013671875
1076,3.279,IMU2,3.1707317073170733,209.63414634146343,-0.3658536585365854,-0.0185546875,-0.6689453125,0.033203125
1077,3.289,IMU0,2.9268292682926833,208.0487804878049,-1.0975609756097562,-0.0234375,-0.6640625,0.0400390625
1078,3.289,IMU1,1.2804878048780488,207.8658536585366,-0.06097560975609757,-0.013671875,-0.6552734375,0.0322265625
1079,3.289,IMU2,3.231707317073171,209.32926829268294,-0.1829268292682927,-0.017578125,-0.6708984375,0.0537109375
1080,3.299,IMU0,2.6219512195121952,207.62195121951223,-0.9756097560975611,-0.0400390625,-0.65625,0.033203125
1081,3.299,IMU1,1.0365853658536586,207.37804878048783,0.06097560975609757,-0.0322265625,-0.6494140625,0.0283203125
1082,3.299,IMU2,2.9268292682926833,208.90243902439028,-0.12195121951219513,-0.03515625,-0.6630859375,0.0498046875
1083,3.309,IMU0,2.6219512195121952,207.07317073170734,-1.2195121951219514,-0.0322265625,-0.6552734375,0.01953125
1084,3.309,IMU1,1.2195121951219514,206.89024390243904,-0.1829268292682927,-0.025390625,-0.6494140625,0.013671875
1085,3.309,IMU2,2.682926829268293,208.2317073170732,-0.30487804878048785,-0.0283203125,-0.662109375,0.0380859375
1086,3.319,IMU0,2.804878048780488,206.58536585365854,-1.402439024390244,-0.0166015625,-0.6474609375,0.02734375
1087,3.319,IMU1,1.5853658536585367,206.21951219512198,-0.3658536585365854,-0.009765625,-0.6416015625,0.021484375
1088,3.319,IMU2,2.987804878048781,207.6829268292683,-0.48780487804878053,-0.0126953125,-0.654296875,0.04296875
1089,3.329,IMU0,3.1097560975609757,205.7317073170732,-1.5853658536585367,-0.009765625,-0.6474609375,0.029296875
1090,3.329,IMU1,1.5853658536585367,205.5487804878049,-0.48780487804878053,-0.0009765625,-0.638671875,0.0185546875
1091,3.329,IMU2,3.2926829268292686,206.95121951219514,-0.6707317073170732,-0.0048828125,-0.654296875,0.046875
1092,3.339,IMU0,3.048780487804878,205.1829268292683,-1.3414634146341464,-0.0029296875,-0.6455078125,0.0556640625
1093,3.339,IMU1,1.6463414634146343,204.93902439024393,-0.30487804878048785,0.005859375,-0.63671875,0.0478515625
1094,3.339,IMU2,3.353658536585366,206.46341463414635,-0.426829268292683,0.0029296875,-0.6513671875,0.07421875
1095,3.349,IMU0,2.804878048780488,204.75609756097563,-0.853658536585366,-0.005859375,-0.6474609375,0.0498046875
1096,3.349,IMU1,1.1585365853658538,204.45121951219514,0.12195121951219513,0.005859375,-0.640625,0.044921875
1097,3.349,IMU2,2.9268292682926833,205.7926829268293,0.06097560975609757,0.001953125,-0.6533203125,0.06640625
1098,3.359,IMU0,2.5,204.14634146341464,-0.3658536585365854,-0.0234375,-0.6455078125,0.0458984375
1099,3.359,IMU1,1.0365853658536586,203.65853658536588,0.5487804878048781,-0.01171875,-0.6357421875,0.0400390625
1100,3.359,IMU2,2.5609756097560976,205.2439024390244,0.5487804878048781,-0.015625,-0.650390625,0.064453125
1101,3.369,IMU0,2.25609756097561,203.2926829268293,-0.12195121951219513,-0.04296875,-0.6435546875,0.03515625
1102,3.369,IMU1,0.6097560975609757,203.0487804878049,0.853658536585366,-0.037109375,-0.6318359375,0.02734375
