,ts,acc_x,acc_y,acc_z
0,40864,0,-1,0
1,40874,0,-1,0
2,40884,0,-1,0
3,40894,0,0,0
4,40904,0,-1,0
5,40914,0,-1,0
6,40924,0,-1,0
7,40934,0,-1,0
8,40944,0,-1,0
9,40954,0,-1,0
10,40964,0,-1,0
11,40974,0,-1,0
12,40984,0,-1,0
13,40994,0,0,0
14,41004,0,-1,0
15,41014,0,-1,0
16,41024,0,-1,0
17,41034,0,-1,0
18,41044,0,-1,0
19,41054,0,-1,0
20,41064,0,-1,0
21,41074,0,-1,0
22,41084,-1,-1,0
23,41094,0,-1,0
24,41104,0,-1,0
25,41114,0,-1,0
26,41124,-1,-1,0
27,41134,-1,-1,0
28,41144,-1,-1,0
29,41154,-1,-1,0
30,41164,-1,-1,0
31,41174,0,0,0
32,41184,0,0,0
33,41194,-1,-1,0
34,41204,0,-1,0
35,41214,0,-1,0
36,41224,0,-1,0
37,41234,0,-1,0
38,41244,0,-1,0
39,41254,0,-1,0
40,41264,-1,-1,0
41,41274,-1,0,0
42,41284,0,0,0
43,41294,0,-1,0
44,41304,0,-1,0
45,41314,0,0,0
46,41324,-1,0,0
47,41334,0,0,0
48,41344,0,-1,0
49,41354,-1,0,0
50,41364,-1,0,0
51,41374,0,-1,0
52,41384,0,-1,0
53,41394,0,0,0
54,41404,-1,0,0
55,41414,0,-1,0
56,41424,-1,0,0
57,41434,-1,0,0
58,41444,0,-1,0
59,41454,0,0,0
60,41464,0,-1,0
61,41474,0,-1,0
62,41484,0,0,0
63,41494,0,-1,0
64,41504,0,-1,0
65,41514,-1,-1,0
66,41524,0,-1,0
67,41534,-1,0,0
68,41544,0,-1,0
69,41554,0,0,0
70,41564,0,-1,0
71,41574,0,-1,0
72,41584,-1,-1,0
73,41594,0,-1,0
74,41604,-1,0,0
75,41614,0,-1,0
76,41624,0,0,0
77,41634,0,-2,0
78,41644,0,0,0
79,41654,0,-1,0
80,41664,0,0,0
81,41674,0,-1,0
82,41684,0,0,0
83,41694,0,-1,0
84,41704,0,-1,0
85,41714,0,0,0
86,41724,0,-1,0
87,41734,0,0,0
88,41744,0,-1,0
89,41754,0,0,0
90,41764,0,-1,0
91,41774,0,-1,0
92,41784,0,-1,0
93,41794,0,-1,0
94,41804,0,-1,0
95,41814,0,0,0
96,41824,0,-1,0
97,41834,0,0,0
98,41844,0,-1,0
99,41854,0,-1,0
100,41864,0,-1,0
101,41874,-1,0,0
102,41884,-1,-1,0
103,41894,-1,0,0
104,41904,0,-1,0
105,41914,-1,0,0
106,41924,-1,-1,0
107,41934,0,0,0
108,41944,0,-1,0
109,41954,0,-1,0
110,41964,0,-1,0
111,41974,0,-1,0
112,41984,0,0,0
113,41994,-1,-1,0
114,42004,0,-1,0
115,42014,-1,-1,0
116,42024,-1,0,0
117,42034,0,-1,0
118,42044,-1,0,0
119,42054,0,-1,0
120,42064,0,-1,0
121,42074,0,0,0
122,42084,0,-1,0
123,42094,-1,0,0
124,42104,-1,-1,0
125,42114,-1,-1,0
126,42124,0,-1,0
127,42134,0,-1,0
128,42144,0,-1,0
129,42154,-1,-1,0
130,42164,-1,0,0
131,42174,0,-1,0
132,42184,0,0,0
133,42194,0,-1,0
134,42204,-1,-1,0
135,42214,-1,-1,0
136,42224,0,-1,0
137,42234,-1,0,0
138,42244,0,-1,0
139,42254,-1,-1,0
140,42264,-1,-1,0
141,42274,-1,-1,0
142,42284,-1,-1,0
143,42294,-1,0,0
144,42304,-1,-1,0
145,42314,-1,-1,0
146,42324,0,-1,0
147,42334,-1,-1,0
148,42344,-1,0,0
149,42354,-1,0,0
150,42364,-1,-1,0
151,42374,-1,0,0
152,42384,0,-1,0
153,42394,0,-1,0
154,42404,-1,0,0
155,42414,0,0,0
156,42424,-1,-1,0
157,42434,-1,-1,0
158,42444,0,-1,0
159,42454,-1,-1,0
160,42464,-1,-1,0
161,42474,0,0,0
162,42484,-1,-1,0
163,42494,-1,-1,0
164,42504,0,-1,0
165,42514,-1,-1,0
166,42524,-1,-1,0
167,42534,0,0,0
168,42544,-1,0,0
169,42554,0,-1,0
170,42564,0,-1,0
171,42574,-1,-1,0
172,42584,-1,-1,0
173,42594,0,-1,0
174,42604,-1,-1,0
175,42614,-1,0,0
176,42624,0,0,0
177,42634,-1,0,0
178,42644,0,-1,0
179,42654,0,0,0
180,42664,0,-1,0
181,42674,-1,-1,0
182,42684,-1,-1,0
183,42694,0,-1,0
184,42704,0,0,0
185,42714,-1,-1,0
186,42724,-1,0,0
187,42734,0,0,0
188,42744,-1,-1,0
189,42754,0,-1,0
190,42764,-1,0,0
191,42774,0,-1,0
192,42784,0,-1,0
193,42794,-1,-1,0
194,42804,0,-1,0
195,42814,-1,0,0
196,42824,0,-1,0
197,42834,0,-1,0
198,42844,-1,-1,0
199,42854,0,0,0
200,42864,-1,-1,0
201,42874,0,-1,0
202,42884,-1,-1,0
203,42894,0,0,0
204,42904,0,-1,0
205,42914,-1,-1,0
206,42924,0,-1,0
207,42934,0,-1,0
208,42944,0,0,0
209,42954,0,-1,0
210,42964,-1,-1,0
211,42974,-1,0,0
212,42984,0,0,0
213,42994,0,-1,0
214,43004,-1,-1,0
215,43014,0,-1,0
216,43024,0,0,0
217,43034,0,-1,0
218,43044,0,-1,0
219,43054,-1,-1,0
220,43064,0,0,0
221,43074,0,-1,0
222,43084,-1,-1,0
223,43094,0,-1,0
224,43104,-1,0,0
225,43114,0,0,0
226,43124,0,-1,0
227,43134,0,-1,0
228,43144,0,-1,0
229,43154,0,0,0
230,43164,0,-1,0
231,43174,0,-1,0
232,43184,-1,-1,0
233,43194,0,0,0
234,43204,0,0,0
235,43214,0,0,0
236,43224,0,-1,0
237,43234,0,-1,0
238,43244,-1,0,0
239,43254,0,0,0
240,43264,0,-1,0
241,43274,-1,-1,0
242,43284,0,-1,0
243,43294,0,-1,0
244,43304,0,0,0
245,43314,0,-1,0
246,43324,-1,-1,0
247,43334,0,-1,0
248,43344,0,0,0
249,43354,0,0,0
250,43364,0,-1,0
251,43374,0,0,0
252,43384,0,-1,0
253,43394,0,0,0
254,43404,0,-1,0
255,43414,0,-1,0
256,43424,0,-1,0
257,43434,-1,0,0
258,43444,0,-1,0
259,43454,0,-1,0
260,43464,0,-1,0
261,43474,0,-1,0
262,43484,0,-1,0
263,43494,0,0,0
264,43504,0,-1,0
265,43514,0,-1,0
266,43524,0,-1,0
267,43534,0,-1,0
268,43544,0,0,0
269,43554,0,0,0
270,43564,0,-1,0
271,43574,0,-1,0
272,43584,0,-1,0
273,43594,0,-1,0
274,43604,0,0,0
275,43614,0,-2,0
276,43624,0,-1,0
277,43634,0,0,0
278,43644,0,0,0
279,43654,0,-1,0
280,43664,0,-1,0
281,43674,0,-1,0
282,43684,0,0,0
283,43694,0,0,0
284,43704,0,-1,0
285,43714,-1,-1,0
286,43724,0,0,0
287,43734,0,-1,0
288,43744,-1,0,0
289,43754,0,-1,0
290,43764,0,-1,0
291,43774,0,-1,0
292,43784,0,0,0
293,43794,0,0,0
294,43804,0,-1,0
295,43814,0,-1,0
296,43824,0,0,0
297,43834,0,-1,0
298,43844,0,0,0
299,43854,0,-1,0
300,43864,0,-1,0
301,43874,0,-1,0
302,43884,0,0,0
303,43894,0,0,0
304,43904,0,0,0
305,43914,0,-1,0
306,43924,0,-1,0
307,43934,0,0,0
308,43944,0,-1,0
309,43954,0,0,0
310,43964,-1,0,0
311,43974,0,-1,0
312,43984,-1,-1,0
313,43994,0,0,0
314,44004,0,0,0
315,44014,0,0,0
316,44024,0,-1,0
317,44034,0,-1,0
318,44044,-1,0,0
319,44054,0,0,0
320,44064,0,-1,0
321,44074,0,-1,0
322,44084,0,-1,0
323,44094,0,-1,0
324,44104,0,0,0
325,44114,0,0,0
326,44124,0,-1,0
327,44134,-1,-1,0
328,44144,0,-1,0
329,44154,0,-1,0
330,44164,-1,0,0
331,44174,0,0,0
332,44184,0,0,0
333,44194,0,-1,0
334,44204,-1,-1,0
335,44214,-1,0,0
336,44224,0,0,0
337,44234,0,-1,0
338,44244,0,-1,0
339,44254,0,-1,0
340,44264,0,-1,0
341,44274,-1,0,0
342,44284,0,0,0
343,44294,0,-1,0
344,44304,-1,0,0
345,44314,0,-1,0
346,44324,0,0,0
347,44334,0,0,0
348,44344,0,-1,0
349,44354,0,-1,0
350,44364,0,-1,0
351,44374,0,-1,0
352,44384,0,0,0
353,44394,0,-1,0
354,44404,-1,-1,0
355,44414,-1,-1,0
356,44424,0,0,0
357,44434,0,-1,0
358,44444,0,-1,0
359,44454,-1,-1,0
360,44464,-1,0,0
361,44474,0,-1,0
362,44484,0,-1,0
363,44494,-1,-1,0
364,44504,0,0,0
365,44514,-1,-1,0
366,44524,0,-1,0
367,44534,-1,-1,0
368,44544,0,0,0
369,44554,0,-1,0
370,44564,-1,-1,0
371,44574,-1,-1,0
372,44584,0,0,0
373,44594,0,0,0
374,44604,-1,-1,0
375,44614,0,0,0
376,44624,0,-1,0
377,44634,0,-1,0
378,44644,0,-1,0
379,44654,-1,0,0
380,44664,0,-1,0
381,44674,0,-1,0
382,44684,-1,0,0
383,44694,0,0,0
384,44704,0,-1,0
385,44714,0,-1,0
386,44724,0,-1,0
387,44734,0,0,0
388,44744,0,-1,0
389,44754,-1,-1,0
390,44764,-1,0,0
391,44774,0,0,0
392,44784,-1,-1,0
393,44794,0,-1,0
394,44804,-1,0,0
395,44814,0,-1,0
396,44824,0,-1,0
397,44834,-1,-1,0
398,44844,0,-1,0
399,44854,0,0,0
400,44864,0,-1,0
401,44874,0,-1,0
402,44884,0,0,0
403,44894,0,-1,0
404,44904,0,0,0
405,44914,-1,-1,0
406,44924,0,0,0
407,44934,0,0,0
408,44944,0,-1,0
409,44954,0,-1,0
410,44964,-1,0,0
411,44974,0,-1,0
412,44984,0,0,0
413,44994,0,-1,0
414,45004,-1,-1,0
415,45014,0,0,0
416,45024,-1,-1,0
417,45034,0,-1,0
418,45044,0,-1,0
419,45054,0,0,0
420,45064,0,-1,0
421,45074,0,-1,0
422,45084,-1,0,0
423,45094,0,0,0
424,45104,-1,-1,0
425,45114,0,-1,0
426,45124,0,-1,0
427,45134,0,0,0
428,45144,0,-1,0
429,45154,0,-1,0
430,45164,-1,-1,0
431,45174,0,-1,0
432,45184,-1,-1,0
433,45194,0,-1,0
434,45204,0,-1,0
435,45214,0,0,0
436,45224,-1,0,0
437,45234,0,-1,0
438,45244,-1,-1,0
439,45254,0,-1,0
440,45264,-1,-1,0
441,45274,0,-1,0
442,45284,0,-1,0
443,45294,-1,-1,0
444,45304,0,0,0
445,45314,0,0,0
446,45324,-1,0,0
447,45334,0,-1,0
448,45344,0,-1,0
449,45354,0,-1,0
450,45364,0,0,0
451,45374,0,-1,0
452,45384,-1,-1,0
453,45394,0,-1,0
454,45404,0,0,0
455,45414,0,0,0
456,45424,0,-1,0
457,45434,0,-1,0
458,45444,-1,-1,0
459,45454,0,0,0
460,45464,0,-2,0
461,45474,0,-1,0
462,45484,-1,0,0
463,45494,0,-1,0
464,45504,-1,-1,0
465,45514,-1,-1,0
466,45524,0,-1,0
467,45534,0,0,0
468,45544,0,-1,0
469,45554,0,-1,0
470,45564,-1,-1,0
471,45574,0,-1,0
472,45584,-1,-1,0
473,45594,0,-1,0
474,45604,0,-1,0
475,45614,0,-1,0
476,45624,0,0,0
477,45634,0,-1,0
478,45644,-1,-1,0
479,45654,0,-1,0
480,45664,0,0,0
481,45674,0,-1,0
482,45684,0,-1,0
483,45694,0,-1,0
484,45704,0,0,0
485,45714,0,-1,0
486,45724,0,0,0
487,45734,0,-1,0
488,45744,0,-1,0
489,45754,-1,0,0
490,45764,0,0,0
491,45774,0,-1,0
492,45784,0,-1,0
493,45794,0,-1,0
494,45804,0,0,0
495,45814,0,-1,0
496,45824,-1,-2,0
497,45834,0,0,0
498,45844,0,-1,0
499,45854,0,-1,0
500,45864,0,-1,0
501,45874,0,-1,0
502,45884,0,0,0
503,45894,-1,-1,0
504,45904,0,-1,0
505,45914,-1,-1,0
506,45924,-1,0,0
507,45934,-1,-1,0
508,45944,-1,-1,0
509,45954,-1,-1,0
510,45964,0,-1,0
511,45974,1,-1,0
512,45984,0,0,0
513,45994,0,-1,0
514,46004,0,-1,0
515,46014,0,-1,0
516,46024,0,-1,0
517,46034,-1,-1,0
518,46044,0,-1,0
519,46054,-1,-1,0
520,46064,-1,-1,0
521,46074,0,-1,0
522,46084,0,-1,0
523,46094,0,0,0
524,46104,0,-1,0
525,46114,-1,-1,0
526,46124,0,-1,0
527,46134,0,0,0
528,46144,-1,-1,0
529,46154,0,-1,0
530,46164,0,0,0
531,46174,-1,-1,0
532,46184,-1,-1,0
533,46194,-1,-1,0
534,46204,0,-1,0
535,46214,-1,-1,0
536,46224,-1,-1,0
537,46234,-1,-1,0
538,46244,-1,-1,0
539,46254,-1,-1,0
540,46264,0,0,0
541,46274,-1,-1,0
542,46284,0,-1,0
543,46294,-1,-1,0
544,46304,-1,-1,0
545,46314,-1,-1,0
546,46324,0,-1,0
547,46334,-1,-1,0
548,46344,-1,0,0
549,46354,-1,-1,0
550,46364,0,0,0
551,46374,-1,-1,0
552,46384,-1,-1,0
553,46394,-1,-1,0
554,46404,-1,-1,0
555,46414,0,0,0
556,46424,0,-1,0
557,46434,-1,-1,0
558,46444,0,0,0
559,46454,-1,-1,0
560,46464,0,-1,0
561,46474,-1,0,0
562,46484,-1,-1,0
563,46494,-1,-1,0
564,46504,-1,-1,0
565,46514,0,-1,0
566,46524,-1,-1,0
567,46534,-1,-1,0
568,46544,-1,-1,0
569,46554,-1,-1,0
570,46564,0,-1,0
571,46574,-1,-1,0
572,46584,0,-1,0
573,46594,-1,-1,0
574,46604,0,-1,0
575,46614,0,0,0
576,46624,-1,-1,0
577,46634,0,-1,0
578,46644,-1,-1,0
579,46654,0,-1,0
580,46664,0,-1,0
581,46674,-1,-1,0
582,46684,-1,-1,0
583,46694,0,-1,0
584,46704,0,-1,0
585,46714,0,-1,0
586,46724,-1,-1,0
587,46734,-1,-1,0
588,46744,-1,-1,0
589,46754,-1,-1,0
590,46764,0,-1,0
591,46774,-1,-1,0
592,46784,0,-1,0
593,46794,-1,-1,0
594,46804,-1,-1,0
595,46814,-1,-1,0
596,46824,0,-1,0
597,46834,-1,-1,0
598,46844,0,-1,0
599,46854,-1,-1,0
600,46864,0,-1,0
601,46874,-1,-1,0
602,46884,-1,-1,0
603,46894,-1,-1,0
604,46904,-1,-1,0
605,46914,0,-1,0
606,46924,0,-1,0
607,46934,0,-1,0
608,46944,0,-1,0
609,46954,-1,-1,0
610,46964,-1,-1,0
611,46974,0,-1,0
612,46984,-1,-1,0
613,46994,-1,-1,0
614,47004,-1,-1,0
615,47014,-1,-1,0
616,47024,-1,-1,0
617,47034,-1,-1,0
618,47044,-1,-1,0
619,47054,-1,-1,0
620,47064,0,-1,0
621,47074,0,-1,0
622,47084,-1,-1,0
623,47094,-1,-1,0
624,47104,-1,-1,0
625,47114,-1,-1,0
626,47124,0,-1,0
627,47134,-1,-1,0
628,47144,0,-1,0
629,47154,0,-1,0
630,47164,0,-1,0
631,47174,0,-1,0
632,47184,-1,-1,0
633,47194,-1,-1,0
634,47204,-1,-1,0
635,47214,0,-1,0
636,47224,0,-1,0
637,47234,-1,-1,0
638,47244,0,-1,0
639,47254,-1,-1,0
640,47264,-1,-1,0
641,47274,-1,-1,0
642,47284,-1,-1,0
643,47294,0,-1,0
644,47304,-1,-1,0
645,47314,-1,-1,0
646,47324,-1,-1,0
647,47334,0,-1,0
648,47344,-1,-1,0
649,47354,0,-1,0
650,47364,0,-1,0
651,47374,-1,-1,0
652,47384,0,-1,0
653,47394,-1,-1,0
654,47404,0,-1,0
655,47414,-1,-1,0
656,47424,0,-1,0
657,47434,0,-1,0
658,47444,0,-1,0
659,47454,0,-1,0
660,47464,0,-1,0
661,47474,0,-1,0
662,47484,-1,-1,0
663,47494,-1,-1,0
664,47504,0,-1,0
665,47514,-1,-1,0
666,47524,0,-1,0
667,47534,0,-1,0
668,47544,0,-1,0
669,47554,0,-1,0
670,47564,-1,-1,0
671,47574,-1,-1,0
672,47584,0,-1,0
673,47594,0,-1,0
674,47604,0,-1,0
675,47614,-1,-1,0
676,47624,-1,-1,0
677,47634,0,-1,0
678,47644,-1,-1,0
679,47654,0,-1,0
680,47664,-1,-1,0
681,47674,0,-1,0
682,47684,0,-1,0
683,47694,-1,-1,0
684,47704,0,-1,0
685,47714,0,-1,0
686,47724,-1,-1,0
687,47734,0,-1,0
688,47744,-1,-1,0
689,47754,0,-1,0
690,47764,-1,-1,0
691,47774,0,-1,0
692,47784,0,-1,0
693,47794,0,-1,0
694,47804,0,-1,0
695,47814,0,-1,0
696,47824,0,-1,0
697,47834,0,-1,0
698,47844,0,-1,0
699,47854,0,-1,0
700,47864,0,-1,0
701,47874,0,-1,0
702,47884,0,-1,0
703,47894,0,-1,0
704,47904,0,-1,0
705,47914,0,-1,0
706,47924,0,-1,0
707,47934,0,-1,0
708,47944,0,-1,0
709,47954,0,-1,0
710,47964,-1,-1,0
711,47974,-1,-1,0
712,47984,0,-1,0
713,47994,0,-1,0
714,48004,-1,-1,0
715,48014,0,-1,0
716,48024,-1,-1,0
717,48034,0,-1,0
718,48044,-1,-1,0
719,48054,0,-1,0
720,48064,0,-1,0
721,48074,-1,-1,0
722,48084,0,-1,0
723,48094,-1,-1,0
724,48104,0,-1,0
725,48114,-1,-1,0
726,48124,0,-1,0
727,48134,0,-1,0
728,48144,0,-1,0
729,48154,-1,-1,0
730,48164,-1,-1,0
731,48174,-1,-1,0
732,48184,-1,-1,0
733,48194,0,-1,0
734,48204,0,-1,0
735,48214,0,-1,0
736,48224,0,-1,0
737,48234,0,-1,0
738,48244,0,-1,0
739,48254,0,-1,0
740,48264,0,-1,0
741,48274,0,-1,0
742,48284,0,-1,0
743,48294,0,-1,0
744,48304,0,-1,0
745,48314,0,-1,0
746,48324,0,-1,0
747,48334,0,-1,0
748,48344,0,-1,0
749,48354,0,-1,0
750,48364,0,-1,0
751,48374,0,-1,0
752,48384,0,-1,0
753,48394,0,-1,0
754,48404,0,-1,0
755,48414,0,-1,0
756,48424,-1,-1,0
757,48434,0,-1,0
758,48444,0,-1,0
759,48454,0,-1,0
760,48464,0,-1,0
761,48474,0,-1,0
762,48484,0,-1,0
763,48494,0,-1,0
764,48504,0,-1,0
765,48514,0,-1,0
766,48524,0,-1,0
767,48534,0,-1,0
768,48544,0,-1,0
769,48554,0,-1,0
770,48564,0,-1,0
771,48574,0,-1,0
772,48584,0,-1,0
773,48594,0,-1,0
774,48604,0,-1,0
775,48614,0,-1,0
776,48624,0,-1,0
777,48634,-1,-1,0
778,48644,0,-1,0
779,48654,0,-1,0
780,48664,0,-1,0
781,48674,0,-1,0
782,48684,-1,-1,0
783,48694,0,-1,0
784,48704,0,-1,0
785,48714,0,-1,0
786,48724,-1,-1,0
787,48734,0,-1,0
788,48744,0,-1,0
789,48754,0,-1,0
790,48764,0,-1,0
791,48774,0,-1,0
792,48784,0,-1,0
793,48794,0,-1,0
794,48804,0,-1,0
795,48814,0,-1,0
796,48824,0,-1,0
797,48834,-1,-1,0
798,48844,0,-1,0
799,48854,0,-1,0
800,48864,0,-1,0
801,48874,0,-1,0
802,48884,0,-1,0
803,48894,0,-1,0
804,48904,-1,-1,0
805,48914,0,-1,0
806,48924,0,-1,0
807,48934,0,-1,0
808,48944,0,-1,0
809,48954,0,-1,0
810,48964,0,-1,0
811,48974,0,-1,0
812,48984,0,-1,0
813,48994,0,-1,0
814,49004,0,-1,0
815,49014,0,-1,0
816,49024,-1,-1,0
817,49034,-1,-1,0
818,49044,0,-1,0
819,49054,-1,-1,0
820,49064,0,-1,0
821,49074,0,-1,0
822,49084,-1,-1,0
823,49094,0,-1,0
824,49104,0,-1,0
825,49114,0,-1,0
826,49124,0,-1,0
827,49134,0,-1,0
828,49144,0,-1,0
829,49154,0,-1,0
830,49164,0,-1,0
831,49174,0,-1,0
832,49184,-1,-1,0
833,49194,0,-1,0
834,49204,0,-1,0
835,49214,0,-1,0
836,49224,0,-1,0
837,49234,-1,-1,0
838,49244,0,-1,0
839,49254,0,-1,0
840,49264,0,-1,0
841,49274,0,-1,0
842,49284,0,-1,0
843,49294,0,-1,0
844,49304,-1,-1,0
845,49314,0,-1,0
846,49324,0,-1,0
847,49334,0,-1,0
848,49344,0,-1,0
849,49354,0,-1,0
850,49364,0,-1,0
851,49374,0,-1,0
852,49384,0,-1,0
853,49394,0,-1,0
854,49404,0,-1,0
855,49414,0,-1,0
856,49424,0,-1,0
857,49434,0,-1,0
858,49444,0,-1,0
859,49454,-1,-1,0
860,49464,0,-1,0
861,49474,0,-1,0
862,49484,0,-1,0
863,49494,0,-1,0
864,49504,0,-1,0
865,49514,0,-1,0
866,49524,0,-1,0
867,49534,0,-1,0
868,49544,0,-1,0
869,49554,0,-1,0
870,49564,0,-1,0
871,49574,-1,-1,0
872,49584,0,-1,0
873,49594,0,-1,0
874,49604,-1,-1,0
875,49614,0,-1,0
876,49624,0,-1,0
877,49634,0,-1,0
878,49644,0,-1,0
879,49654,0,-1,0
880,49664,0,-1,0
881,49674,0,-1,0
882,49684,0,-1,0
883,49694,0,-1,0
884,49704,-1,-1,0
885,49714,0,-1,0
886,49724,0,-1,0
887,49734,0,-1,0
888,49744,0,-1,0
889,49754,0,-1,0
890,49764,-1,-1,0
891,49774,-1,-1,0
892,49784,0,-1,0
893,49794,0,-1,0
894,49804,0,-1,0
895,49814,0,-1,0
896,49824,0,-1,0
897,49834,0,-1,0
898,49844,0,-1,0
899,49854,0,-1,0
900,49864,0,-1,0
901,49874,0,-1,0
902,49884,0,-1,0
903,49894,0,-1,0
904,49904,0,-1,0
905,49914,0,-1,0
906,49924,0,-1,0
907,49934,0,-1,0
908,49944,0,-1,0
909,49954,0,-1,0
910,49964,0,-1,0
911,49974,0,-1,0
912,49984,0,-1,0
913,49994,0,-1,0
914,50004,0,-1,0
915,50014,0,-1,0
916,50024,0,-1,0
917,50034,0,-1,0
918,50044,0,-1,0
919,50054,0,-1,0
920,50064,0,-1,0
921,50074,0,-1,0
922,50084,0,-1,0
923,50094,0,-1,0
924,50104,0,-1,0
925,50114,0,-1,0
926,50124,0,-1,0
927,50134,0,-1,0
928,50144,0,-1,0
929,50154,0,-1,0
930,50164,0,-1,0
931,50174,-1,-1,0
932,50184,0,-1,0
933,50194,0,-1,0
934,50204,0,-1,0
935,50214,0,-1,0
936,50224,0,-1,0
937,50234,0,-1,0
938,50244,0,-1,0
939,50254,0,-1,0
940,50264,0,-1,0
941,50274,0,-1,0
942,50284,0,-1,0
943,50294,0,-1,0
944,50304,0,-1,0
945,50314,0,-1,0
946,50324,0,-1,0
947,50334,0,-1,0
948,50344,0,-1,0
949,50354,0,-1,0
950,50364,0,-1,0
951,50374,0,-1,0
952,50384,0,-1,0
953,50394,0,-1,0
954,50404,0,-1,0
955,50414,0,0,0
956,50424,0,-1,0
957,50434,0,-1,0
958,50444,0,-1,0
959,50454,0,-1,0
960,50464,-1,-1,0
961,50474,0,-1,0
962,50484,0,-1,0
963,50494,0,-1,0
964,50504,0,-1,0
965,50514,0,0,0
966,50524,0,-1,0
967,50534,0,-1,0
968,50544,0,-1,0
969,50554,0,-1,0
970,50564,0,-1,0
971,50574,0,-1,0
972,50584,0,-1,0
973,50594,0,-1,0
974,50604,0,-1,0
975,50614,-1,-1,0
976,50624,0,-1,0
977,50634,0,-1,0
978,50644,0,-1,0
979,50654,0,-1,0
980,50664,0,-1,0
981,50674,0,-1,0
982,50684,0,-1,0
983,50694,0,-1,0
984,50704,0,-1,0
985,50714,0,-1,0
986,50724,0,-1,0
987,50734,0,-1,0
988,50744,0,-1,0
989,50754,0,-1,0
990,50764,0,-1,0
991,50774,0,-1,0
992,50784,0,-1,0
993,50794,0,-1,0
994,50804,-1,-1,0
995,50814,0,-1,0
996,50824,0,-1,0
997,50834,0,-1,0
998,50844,-1,-1,0
999,50854,0,-1,0
1000,50864,0,-1,0
1001,50874,-1,-1,0
1002,50884,0,-1,0
1003,50894,0,-1,0
1004,50904,0,-1,0
1005,50914,0,-1,0
1006,50924,0,-1,0
1007,50934,0,-1,0
1008,50944,0,-1,0
1009,50954,0,-1,0
1010,50964,0,-1,0
1011,50974,0,-1,0
1012,50984,0,-1,0
1013,50994,0,-1,0
1014,51004,0,-1,0
1015,51014,0,-1,0
1016,51024,0,-1,0
1017,51034,0,-1,0
1018,51044,0,-1,0
1019,51054,0,-1,0
1020,51064,0,-1,0
1021,51074,0,-1,0
1022,51084,0,-1,0
1023,51094,0,-1,0
1024,51104,0,-1,0
1025,51114,0,-1,0
1026,51124,0,-1,0
1027,51134,0,-1,0
1028,51144,0,-1,0
1029,51154,0,-1,0
1030,51164,0,-1,0
1031,51174,0,-1,0
1032,51184,0,-1,0
1033,51194,0,-1,0
1034,51204,0,-1,0
1035,51214,0,-1,0
1036,51224,0,-1,0
1037,51234,0,-1,0
1038,51244,0,-1,0
1039,51254,0,-1,0
1040,51264,-1,-1,0
1041,51274,0,-1,0
1042,51284,0,-1,0
1043,51294,0,-1,0
1044,51304,-1,-1,0
1045,51314,0,-1,0
1046,51324,0,-1,0
1047,51334,0,-1,0
1048,51344,0,-1,0
1049,51354,0,-1,0
1050,51364,0,-1,0
1051,51374,0,-1,0
1052,51384,0,-1,0
1053,51394,0,-1,0
1054,51404,0,-1,0
1055,51414,0,-1,0
1056,51424,0,-1,0
1057,51434,0,-1,0
1058,51444,0,-1,0
1059,51454,0,-1,0
1060,51464,0,0,0
1061,51474,0,-1,0
1062,51484,0,-1,0
1063,51494,0,-1,0
1064,51504,0,-1,0
1065,51514,0,-1,0
1066,51524,0,-1,0
1067,51534,0,-1,0
1068,51544,0,-1,0
1069,51554,0,-1,0
1070,51564,0,-1,0
1071,51574,0,-1,0
1072,51584,0,-1,0
1073,51594,0,-1,0
1074,51604,0,-1,0
1075,51614,1,-1,0
1076,51624,0,-1,0
1077,51634,-1,-1,0
1078,51644,0,-1,0
1079,51654,0,-1,0
1080,51664,0,-1,0
1081,51674,0,-1,0
1082,51684,-1,-1,0
1083,51694,0,-1,0
1084,51704,0,-1,0
1085,51714,0,-1,0
1086,51724,-1,-1,0
1087,51734,0,-1,0
1088,51744,0,-1,0
1089,51754,0,-1,0
1090,51764,0,-1,0
1091,51774,0,-1,0
1092,51784,0,-1,0
1093,51794,0,-1,0
1094,51804,0,-1,0
1095,51814,0,-1,0
1096,51824,0,-1,0
1097,51834,0,-1,0
1098,51844,0,-1,0
1099,51854,0,-1,0
1100,51864,0,-1,0
1101,51874,0,-1,0
1102,51884,0,-1,0
1103,51894,0,-1,0
1104,51904,0,-1,0
1105,51914,0,-1,0
1106,51924,0,-1,0
1107,51934,0,-1,0
1108,51944,0,-1,0
1109,51954,0,-1,0
1110,51964,0,-1,0
1111,51974,0,0,0
1112,51984,0,-1,0
1113,51994,0,-1,0
1114,52004,0,-1,0
1115,52014,0,-1,0
1116,52024,0,-1,0
1117,52034,0,-1,0
1118,52044,0,-1,0
1119,52054,0,-1,0
1120,52064,0,-1,0
1121,52074,0,-1,0
1122,52084,0,-1,0
1123,52094,0,-1,0
1124,52104,0,-1,0
1125,52114,0,-1,0
1126,52124,0,-1,0
1127,52134,0,-1,0
1128,52144,0,-1,0
1129,52154,0,-1,0
1130,52164,0,-1,0
1131,52174,0,-1,0
1132,52184,-1,-1,0
1133,52194,-1,-1,0
1134,52204,0,-1,0
1135,52214,0,-1,0
1136,52224,0,-1,0
1137,52234,0,-1,0
1138,52244,0,-1,0
1139,52254,0,-1,0
1140,52264,0,-1,0
1141,52274,0,-1,0
1142,52284,0,-1,0
1143,52294,0,-1,0
1144,52304,0,-1,0
1145,52314,0,-1,0
1146,52324,0,-1,0
1147,52334,0,-1,0
1148,52344,0,-1,0
1149,52354,0,-1,0
1150,52364,0,-1,0
1151,52374,-1,-1,0
1152,52384,-1,-1,0
1153,52394,-1,-1,0
1154,52404,-1,-1,0
1155,52414,0,-1,0
1156,52424,0,-1,0
1157,52434,0,-1,0
1158,52444,0,-1,0
1159,52454,0,-1,0
1160,52464,0,-1,0
1161,52474,0,-1,0
1162,52484,0,-1,0
1163,52494,0,-1,0
1164,52504,0,-1,0
1165,52514,0,-1,0
1166,52524,0,-1,0
1167,52534,0,-1,0
1168,52544,0,-1,0
1169,52554,0,-1,0
1170,52564,0,-1,0
1171,52574,0,-1,0
1172,52584,0,-1,0
1173,52594,0,-1,0
1174,52604,-1,0,0
1175,52614,-1,-1,0
1176,52624,-1,-1,0
1177,52634,-1,-1,0
1178,52644,0,-1,0
1179,52654,-1,-1,0
1180,52664,-1,-1,0
1181,52674,0,-1,0
1182,52684,0,-1,0
1183,52694,0,-1,0
1184,52704,0,-1,0
1185,52714,0,-1,0
1186,52724,0,-1,0
1187,52734,0,-1,0
1188,52744,0,-1,0
1189,52754,0,-1,0
1190,52764,0,-1,0
1191,52774,0,-1,0
1192,52784,0,-1,0
1193,52794,0,-1,0
1194,52804,-1,-1,0
1195,52814,0,-1,0
1196,52824,0,-1,0
1197,52834,0,-1,0
1198,52844,0,-1,0
1199,52854,0,-1,0
1200,52864,-1,-1,0
1201,52874,0,-1,0
1202,52884,-1,-1,0
1203,52894,0,-1,0
1204,52904,0,-1,0
1205,52914,0,-1,0
1206,52924,0,-1,0
1207,52934,0,-1,0
1208,52944,0,-1,0
1209,52954,0,-1,0
1210,52964,0,-1,0
1211,52974,-1,-1,0
1212,52984,0,-1,0
1213,52994,-1,-1,0
1214,53004,0,-1,0
1215,53014,0,-1,0
1216,53024,0,-1,0
1217,53034,0,-1,0
1218,53044,0,-1,0
1219,53054,0,0,0
1220,53064,0,-1,0
1221,53074,0,-1,0
1222,53084,0,0,0
1223,53094,0,-1,0
1224,53104,0,-1,0
1225,53114,0,0,0
1226,53124,-1,-1,0
1227,53134,0,-1,0
1228,53144,0,-1,0
1229,53154,-1,-1,0
1230,53164,0,-1,0
1231,53174,0,-1,0
1232,53184,-1,-1,0
1233,53194,0,-1,0
1234,53204,0,-1,0
1235,53214,-1,-1,0
1236,53224,-1,-1,0
1237,53234,0,-2,0
1238,53244,0,-1,0
1239,53254,0,0,0
1240,53264,0,0,0
1241,53274,-1,-1,0
1242,53284,-1,-1,0
1243,53294,-1,-1,0
1244,53304,-1,-1,0
1245,53314,0,-1,0
1246,53324,1,-1,0
1247,53334,0,-1,0
1248,53344,-1,-1,0
1249,53354,-1,-1,0
1250,53364,0,-1,0
1251,53374,0,-1,0
1252,53384,-1,-1,0
1253,53394,-1,-1,0
1254,53404,-1,-1,0
1255,53414,0,-1,0
1256,53424,-1,-1,0
1257,53434,-1,-1,0
1258,53444,-1,-1,0
1259,53454,-1,-1,0
1260,53464,-1,-2,0
1261,53474,-1,-1,0
1262,53484,-1,-1,0
1263,53494,-1,-1,0
1264,53504,-1,-1,0
1265,53514,0,-1,0
1266,53524,-1,-1,0
1267,53534,0,-1,0
1268,53544,0,0,0
1269,53554,0,-1,0
1270,53564,-1,-1,0
1271,53574,0,-1,0
1272,53584,0,-1,0
1273,53594,-1,-1,0
1274,53604,0,0,0
1275,53614,0,-1,0
1276,53624,0,-1,0
1277,53634,0,-1,0
1278,53644,0,-1,0
1279,53654,0,-1,0
1280,53664,0,0,0
1281,53674,0,-1,0
1282,53684,0,-1,0
1283,53694,0,-1,0
1284,53704,0,-1,0
1285,53714,0,-1,0
1286,53724,0,0,0
1287,53734,0,0,0
1288,53744,-1,0,0
1289,53754,0,-1,0
1290,53764,0,-1,0
1291,53774,0,-1,0
1292,53784,0,-1,0
1293,53794,0,-1,0
1294,53804,0,0,0
1295,53814,0,0,0
1296,53824,0,-1,0
1297,53834,0,-1,0
1298,53844,0,-1,0
1299,53854,0,-1,0
1300,53864,0,-1,0
1301,53874,0,-1,0
1302,53884,0,-1,0
1303,53894,0,0,0
1304,53904,0,-1,0
1305,53914,0,-1,0
1306,53924,0,-1,0
1307,53934,-1,0,0
1308,53944,0,-1,0
1309,53954,0,-1,0
1310,53964,0,-1,0
1311,53974,0,-1,0
1312,53984,0,-1,0
1313,53994,0,-1,0
1314,54004,0,-1,0
1315,54014,0,-1,0
1316,54024,0,-1,0
1317,54034,0,-1,0
1318,54044,-1,-1,0
1319,54054,0,-1,0
1320,54064,0,-1,0
1321,54074,0,-1,0
1322,54084,0,-1,0
1323,54094,0,-1,0
1324,54104,0,-1,0
1325,54114,1,-1,0
1326,54124,0,-1,0
1327,54134,0,-1,0
1328,54144,0,-1,0
1329,54154,0,-1,0
1330,54164,0,-1,0
1331,54174,0,-1,0
1332,54184,0,-1,0
1333,54194,-1,-1,0
1334,54204,0,-1,0
1335,54214,-1,-1,0
1336,54224,-1,-1,0
1337,54234,-1,-1,0
1338,54244,0,-1,0
1339,54254,0,-1,0
1340,54264,0,-1,0
1341,54274,0,-1,0
1342,54284,0,-1,0
1343,54294,0,-1,0
1344,54304,0,0,0
1345,54314,-1,-1,0
1346,54324,0,-1,0
1347,54334,0,-1,0
1348,54344,-1,-1,0
1349,54354,0,-1,0
1350,54364,0,0,0
1351,54374,0,-1,0
1352,54384,-1,-1,0
1353,54394,-1,-1,0
1354,54404,0,-1,0
1355,54414,0,-1,0
1356,54424,0,-1,0
1357,54434,-1,-1,0
1358,54444,-1,-1,0
1359,54454,0,-1,0
1360,54464,0,-1,0
1361,54474,0,-1,0
1362,54484,-1,-1,0
1363,54494,0,-1,0
1364,54504,0,-1,0
1365,54514,0,-1,0
1366,54524,0,-1,0
1367,54534,0,-1,0
1368,54544,0,-1,0
1369,54554,0,-1,0
1370,54564,0,-1,0
1371,54574,0,0,0
1372,54584,0,-1,0
1373,54594,0,-1,0
1374,54604,1,-1,0
1375,54614,-1,-1,0
1376,54624,0,-1,0
1377,54634,0,-1,0
1378,54644,0,-1,0
1379,54654,0,-1,0
1380,54664,0,-1,0
1381,54674,0,-1,0
1382,54684,0,-1,0
1383,54694,0,-1,0
1384,54704,0,-1,0
1385,54714,0,-1,0
1386,54724,0,-1,0
1387,54734,0,-1,0
1388,54744,0,-1,0
1389,54754,0,-1,0
1390,54764,0,-1,0
1391,54774,0,-1,0
1392,54784,0,-1,0
1393,54794,0,-1,0
1394,54804,0,-1,0
1395,54814,0,-1,0
1396,54824,0,-1,0
1397,54834,-1,-1,0
1398,54844,0,-1,0
1399,54854,0,-1,0
1400,54864,0,-1,0
1401,54874,0,-1,0
1402,54884,0,-1,0
1403,54894,0,-1,0
1404,54904,0,-1,0
1405,54914,0,-1,0
1406,54924,0,-1,0
1407,54934,0,-1,0
1408,54944,-1,-1,0
1409,54954,0,-1,0
1410,54964,0,-2,0
1411,54974,0,-1,0
1412,54984,0,-1,0
1413,54994,0,-1,0
1414,55004,0,-1,0
1415,55014,-1,-1,0
1416,55024,0,-1,0
1417,55034,-1,-1,0
1418,55044,0,-1,0
1419,55054,0,-1,0
1420,55064,0,-1,0
1421,55074,0,-1,0
1422,55084,0,-1,0
1423,55094,0,-1,0
1424,55104,0,-1,0
1425,55114,-1,-1,0
1426,55124,0,-1,0
1427,55134,-1,-1,0
1428,55144,0,0,0
1429,55154,0,-1,0
1430,55164,0,-1,0
1431,55174,-1,-1,0
1432,55184,0,-1,0
1433,55194,0,-1,0
1434,55204,-1,-1,0
1435,55214,0,-1,0
1436,55224,1,-1,0
1437,55234,0,-1,0
1438,55244,0,-1,0
1439,55254,-1,-1,0
1440,55264,-1,-1,0
1441,55274,0,-1,0
1442,55284,0,-1,0
1443,55294,1,-1,0
1444,55304,0,0,0
1445,55314,0,-1,0
1446,55324,-1,-1,0
1447,55334,-1,-1,0
1448,55344,-1,-2,0
1449,55354,-1,-1,0
1450,55364,-1,-1,0
1451,55374,-1,-1,0
1452,55384,0,-1,0
1453,55394,0,-1,0
1454,55404,0,0,0
1455,55414,0,-1,0
1456,55424,0,-1,0
1457,55434,0,-1,0
1458,55444,0,-2,0
1459,55454,0,-2,0
1460,55464,0,-1,0
1461,55474,0,-1,0
1462,55484,0,-1,0
1463,55494,0,-1,0
1464,55504,0,-1,0
1465,55514,0,-1,0
1466,55524,0,-1,0
1467,55534,0,-1,0
1468,55544,0,-1,0
1469,55554,0,-1,0
1470,55564,0,-1,0
1471,55574,0,-1,0
1472,55584,0,-1,0
1473,55594,0,-1,0
1474,55604,0,-1,0
1475,55614,0,-1,0
1476,55624,0,-1,0
1477,55634,0,-1,0
1478,55644,0,-1,0
1479,55654,0,-1,0
1480,55664,-1,-1,0
1481,55674,-1,-1,0
1482,55684,-1,-1,0
1483,55694,0,-1,0
1484,55704,-1,-1,0
1485,55714,0,-1,0
1486,55724,0,-1,0
1487,55734,0,-1,0
1488,55744,0,-1,0
1489,55754,0,-1,0
1490,55764,0,-1,0
1491,55774,0,-1,0
1492,55784,-1,-1,0
1493,55794,0,-1,0
1494,55804,0,-1,0
1495,55814,0,-2,0
1496,55824,0,-1,0
1497,55834,0,-1,0
1498,55844,0,-1,0
1499,55854,0,-1,0
1500,55864,-1,-1,0
1501,55874,0,-1,0
1502,55884,0,-1,0
1503,55894,-1,-2,0
1504,55904,0,-1,0
1505,55914,0,-1,0
1506,55924,0,-2,0
1507,55934,0,-1,0
1508,55944,0,-1,0
1509,55954,0,-1,0
1510,55964,0,-1,0
1511,55974,0,-1,0
1512,55984,0,-1,0
1513,55994,0,-1,0
1514,56004,0,-1,0
1515,56014,0,-1,0
1516,56024,-1,-1,0
1517,56034,0,-1,0
1518,56044,-1,-1,0
1519,56054,-1,-1,0
1520,56064,-1,-1,0
1521,56074,0,-1,0
1522,56084,-1,-1,0
1523,56094,0,-1,0
1524,56104,-1,-1,0
1525,56114,0,-1,0
1526,56124,0,-1,0
1527,56134,0,-2,0
1528,56144,0,-2,0
1529,56154,0,-1,0
1530,56164,0,-1,0
1531,56174,-1,-1,0
1532,56184,0,-1,0
1533,56194,0,-1,0
1534,56204,0,-1,0
1535,56214,0,-1,0
1536,56224,0,-1,0
1537,56234,-1,-1,0
1538,56244,0,-1,0
1539,56254,0,-1,0
1540,56264,0,-1,0
1541,56274,-1,-1,0
1542,56284,0,-1,0
1543,56294,0,-1,0
1544,56304,0,-1,0
1545,56314,0,-1,0
1546,56324,0,-1,0
1547,56334,0,-1,0
1548,56344,0,-1,0
1549,56354,0,-1,0
1550,56364,0,-1,0
1551,56374,0,-1,0
1552,56384,0,-1,0
1553,56394,0,-1,0
1554,56404,0,-1,0
1555,56414,0,-1,0
1556,56424,0,-1,0
1557,56434,0,-1,0
1558,56444,0,-1,0
1559,56454,-1,-1,0
1560,56464,0,-1,0
1561,56474,0,-1,0
1562,56484,0,-1,0
1563,56494,0,-1,0
1564,56504,0,-1,0
1565,56514,0,-1,0
1566,56524,0,-1,0
1567,56534,0,-1,0
1568,56544,0,-1,0
1569,56554,0,-1,0
1570,56564,0,-1,0
1571,56574,-1,-1,0
1572,56584,0,-1,0
1573,56594,-1,-1,0
1574,56604,0,-1,0
1575,56614,0,-1,0
1576,56624,0,-1,0
1577,56634,0,-1,0
1578,56644,0,-1,0
1579,56654,0,-1,0
1580,56664,0,-1,0
1581,56674,0,-1,0
1582,56684,0,-1,0
1583,56694,0,-1,0
1584,56704,0,-1,0
1585,56714,0,-1,0
1586,56724,0,-1,0
1587,56734,0,-1,0
1588,56744,0,-1,0
1589,56754,-1,-1,0
1590,56764,0,-1,0
1591,56774,0,-1,0
1592,56784,0,-1,0
1593,56794,0,-1,0
1594,56804,0,-1,0
1595,56814,-1,-1,0
1596,56824,0,-1,0
1597,56834,0,-1,0
1598,56844,-1,-1,0
1599,56854,0,-1,0
1600,56864,0,-1,0
1601,56874,0,-1,0
1602,56884,0,-1,0
1603,56894,0,-1,0
1604,56904,0,-1,0
1605,56914,0,-1,0
1606,56924,0,-1,0
1607,56934,-1,-1,0
1608,56944,0,-1,0
1609,56954,0,-1,0
1610,56964,-1,-1,0
1611,56974,-1,-1,0
1612,56984,0,-1,0
1613,56994,0,-1,0
1614,57004,-1,-1,0
1615,57014,0,-1,0
1616,57024,0,-1,0
1617,57034,0,-1,0
1618,57044,0,-1,0
1619,57054,-1,-1,0
1620,57064,-1,-1,0
1621,57074,0,-1,0
1622,57084,0,-1,0
1623,57094,0,-1,0
1624,57104,0,-1,0
1625,57114,0,-1,0
1626,57124,-1,-2,0
1627,57134,-1,-2,0
1628,57144,0,-1,0
1629,57154,0,-1,0
1630,57164,0,-1,0
1631,57174,-1,-1,0
1632,57184,0,-1,0
1633,57194,0,-1,0
1634,57204,0,-1,0
1635,57214,-1,-1,0
1636,57224,0,-1,0
1637,57234,0,-2,0
1638,57244,0,-1,0
1639,57254,-1,-1,0
1640,57264,0,-1,0
1641,57274,0,-1,0
1642,57284,0,-1,0
1643,57294,-1,-1,0
1644,57304,0,-2,0
1645,57314,0,-2,0
1646,57324,0,-1,0
1647,57334,-1,-1,0
1648,57344,0,-1,0
1649,57354,0,-1,0
1650,57364,0,-1,0
1651,57374,0,-1,0
1652,57384,0,-1,0
1653,57394,-1,-1,0
1654,57404,0,-1,0
1655,57414,0,-1,0
1656,57424,-1,-1,0
1657,57434,-1,-1,0
1658,57444,0,-1,0
1659,57454,1,-1,0
1660,57464,1,-1,0
1661,57474,0,-1,0
1662,57484,0,-1,0
1663,57494,0,-2,0
1664,57504,-1,-1,0
1665,57514,-1,-1,0
1666,57524,0,0,0
1667,57534,0,-1,0
1668,57544,0,-1,0
1669,57554,-1,-1,0
1670,57564,1,-1,0
1671,57574,0,-1,0
1672,57584,0,-1,0
1673,57594,0,-1,0
1674,57604,0,-1,0
1675,57614,-1,-1,0
1676,57624,0,-2,0
1677,57634,0,-1,0
1678,57644,0,-1,0
1679,57654,0,-1,0
1680,57664,0,-1,0
1681,57674,-1,-1,0
1682,57684,0,-1,0
1683,57694,0,-1,0
1684,57704,0,-1,0
1685,57714,0,-1,0
1686,57724,0,-1,0
1687,57734,0,-1,0
1688,57744,0,-1,0
1689,57754,1,-1,0
1690,57764,0,-1,0
1691,57774,0,-1,0
1692,57784,-1,-1,0
1693,57794,0,-1,0
1694,57804,-1,-1,0
1695,57814,0,-1,0
1696,57824,0,-1,0
1697,57834,-1,-1,0
1698,57844,0,-1,0
1699,57854,1,-1,0
1700,57864,0,-1,0
1701,57874,-1,-1,0
1702,57884,-1,-1,0
1703,57894,1,-1,0
1704,57904,0,-1,0
1705,57914,0,-1,0
1706,57924,0,-1,0
1707,57934,1,-1,0
1708,57944,0,-1,0
1709,57954,0,-1,0
1710,57964,0,-1,0
1711,57974,0,-1,0
1712,57984,0,-1,0
1713,57994,0,-1,0
1714,58004,0,-1,0
1715,58014,-1,-1,0
1716,58024,-1,-1,0
1717,58034,-1,-1,0
1718,58044,-1,-1,0
1719,58054,0,-1,0
1720,58064,0,-1,0
1721,58074,0,-1,0
1722,58084,0,-1,0
1723,58094,0,-1,0
1724,58104,1,-1,0
1725,58114,1,-1,0
1726,58124,1,-1,0
1727,58134,0,-1,0
1728,58144,0,-1,0
1729,58154,0,-1,0
1730,58164,0,-1,0
1731,58174,0,-1,0
1732,58184,0,-1,0
1733,58194,0,-1,0
1734,58204,0,-1,0
1735,58214,-1,-1,0
1736,58224,0,-1,0
1737,58234,-1,-1,0
1738,58244,-1,-1,0
1739,58254,-1,-1,0
1740,58264,0,-1,0
1741,58274,-1,-1,0
1742,58284,0,-1,0
1743,58294,0,-1,0
1744,58304,0,-1,0
1745,58314,0,-1,0
1746,58324,1,-1,0
1747,58334,0,-1,0
1748,58344,0,-1,0
1749,58354,1,-1,0
1750,58364,1,-1,0
1751,58374,1,-1,0
1752,58384,1,-1,0
1753,58394,1,-1,0
1754,58404,1,-1,0
1755,58414,0,-1,0
1756,58424,0,-1,0
1757,58434,1,-1,0
1758,58444,1,-1,0
1759,58454,0,-1,0
1760,58464,0,-1,0
1761,58474,0,-1,0
1762,58484,-1,-1,0
1763,58494,-1,-1,0
1764,58504,0,-1,0
1765,58514,0,-1,0
1766,58524,0,-1,0
1767,58534,-1,-1,0
1768,58544,-1,-1,0
1769,58554,-1,-1,0
1770,58564,0,-1,0
1771,58574,0,-1,0
1772,58584,-1,-1,0
1773,58594,-1,-1,0
1774,58604,-1,-1,0
1775,58614,0,-1,0
1776,58624,0,-1,0
1777,58634,0,-1,0
1778,58644,0,-1,0
1779,58654,0,-1,0
1780,58664,0,-2,0
1781,58674,0,-1,0
1782,58684,0,-1,0
1783,58694,0,-1,0
1784,58704,0,-1,0
1785,58714,0,-1,0
1786,58724,0,-1,0
1787,58734,0,-1,0
1788,58744,0,-1,0
1789,58754,0,-1,0
1790,58764,0,-1,0
1791,58774,0,-1,0
1792,58784,-1,-1,0
1793,58794,0,-1,0
1794,58804,0,-1,0
1795,58814,0,-1,0
1796,58824,0,-1,0
1797,58834,0,-1,0
1798,58844,0,-1,0
1799,58854,0,-1,0
1800,58864,0,-1,0
1801,58874,0,-1,0
1802,58884,0,-1,0
1803,58894,0,-1,0
1804,58904,-1,-1,0
1805,58914,0,-1,0
1806,58924,-1,-1,0
1807,58934,0,-1,0
1808,58944,0,-1,0
1809,58954,0,-1,0
1810,58964,0,-1,0
1811,58974,0,0,0
1812,58984,-1,-1,0
1813,58994,-1,-1,0
1814,59004,0,-1,0
1815,59014,0,-1,0
1816,59024,0,-1,0
1817,59034,0,-1,0
1818,59044,-1,-1,0
1819,59054,0,-1,0
1820,59064,-1,-1,0
1821,59074,0,-1,0
1822,59084,0,-1,0
1823,59094,0,-1,0
1824,59104,0,-1,0
1825,59114,0,-1,0
1826,59124,-1,-1,0
1827,59134,0,-1,0
1828,59144,0,-2,0
1829,59154,-1,-1,0
1830,59164,0,-1,0
1831,59174,0,-1,0
1832,59184,-1,-1,0
1833,59194,0,-1,0
1834,59204,-1,-1,0
1835,59214,-1,-1,0
1836,59224,0,-1,0
1837,59234,-1,-1,0
1838,59244,0,-1,0
1839,59254,0,-1,0
1840,59264,0,-1,0
1841,59274,-1,-1,0
1842,59284,0,-1,0
1843,59294,0,-1,0
1844,59304,0,-1,0
1845,59314,0,-1,0
1846,59324,-1,-1,0
1847,59334,0,-1,0
1848,59344,0,-1,0
1849,59354,0,-1,0
1850,59364,-1,-2,0
1851,59374,0,-1,0
1852,59384,0,-1,0
1853,59394,0,-1,0
1854,59404,-1,-1,0
1855,59414,0,-1,0
1856,59424,0,-1,0
1857,59434,0,-1,0
1858,59444,0,-1,0
1859,59454,0,-1,0
1860,59464,0,-1,0
1861,59474,-1,0,0
1862,59484,-1,-1,0
1863,59494,-1,-1,0
1864,59504,0,-2,0
1865,59514,0,-2,0
1866,59524,0,-1,0
1867,59534,0,-1,0
1868,59544,0,-1,0
1869,59554,0,-1,0
1870,59564,-1,-1,0
1871,59574,0,-1,0
1872,59584,0,-1,0
1873,59594,0,-1,0
1874,59604,0,-1,0
1875,59614,-1,-1,0
1876,59624,-1,-1,0
1877,59634,0,-1,0
1878,59644,0,-1,0
1879,59654,-1,-1,0
1880,59664,-1,-1,0
1881,59674,0,-1,0
1882,59684,0,-1,0
1883,59694,0,-1,0
1884,59704,-1,-1,0
1885,59714,0,-1,0
1886,59724,0,-1,0
1887,59734,0,-1,0
1888,59744,-1,-1,0
1889,59754,0,-1,0
1890,59764,0,-1,0
1891,59774,0,-1,0
1892,59784,-1,-1,0
1893,59794,0,-1,0
1894,59804,0,-1,0
1895,59814,0,-1,0
1896,59824,-1,-1,0
1897,59834,0,-1,0
1898,59844,-1,-1,0
1899,59854,0,-1,0
1900,59864,-1,-1,0
1901,59874,0,-1,0
1902,59884,0,-1,0
1903,59894,-1,-1,0
1904,59904,0,-1,0
1905,59914,-1,-1,0
1906,59924,0,-1,0
1907,59934,0,-1,0
1908,59944,-1,-1,0
1909,59954,0,-1,0
1910,59964,0,-1,0
1911,59974,0,-1,0
1912,59984,0,-1,0
1913,59994,0,-1,0
1914,60004,0,-1,0
1915,60014,-1,-1,0
1916,60024,0,-1,0
1917,60034,0,-1,0
1918,60044,0,-1,0
1919,60054,0,-1,0
1920,60064,-1,-1,0
1921,60074,0,-1,0
1922,60084,0,-1,0
1923,60094,0,-1,0
1924,60104,0,-1,0
1925,60114,0,-1,0
1926,60124,0,-1,0
1927,60134,0,-2,0
1928,60144,0,-1,0
1929,60154,-1,-1,0
1930,60164,0,-2,0
1931,60174,0,-1,0
1932,60184,0,-1,0
1933,60194,1,-1,0
1934,60204,-1,-1,0
1935,60214,-1,-1,0
1936,60224,0,-1,0
1937,60234,0,-1,0
1938,60244,0,-1,0
1939,60254,0,-1,0
1940,60264,0,-1,0
1941,60274,0,-1,0
1942,60284,0,-1,0
1943,60294,-1,-1,0
1944,60304,-1,-1,0
1945,60314,-1,-1,0
1946,60324,-1,-1,0
1947,60334,-1,-1,0
1948,60344,-1,-1,0
1949,60354,-1,-1,0
1950,60364,-1,-1,0
1951,60374,-1,-1,0
1952,60384,-1,-1,0
1953,60394,0,-1,0
1954,60404,0,-1,0
1955,60414,0,-1,0
1956,60424,0,-1,0
1957,60434,0,-1,0
1958,60444,0,-1,0
1959,60454,-1,-1,0
1960,60464,-1,-1,0
1961,60474,0,-1,0
1962,60484,0,-1,0
1963,60494,0,-1,0
1964,60504,-1,-1,0
1965,60514,-1,-1,0
1966,60524,0,-1,0
1967,60534,0,-1,0
1968,60544,1,-1,0
1969,60554,-1,-2,0
1970,60564,-1,-1,0
1971,60574,0,-1,0
1972,60584,0,-1,0
1973,60594,0,-1,0
1974,60604,-1,-1,0
1975,60614,-1,-1,0
1976,60624,0,-1,0
1977,60634,0,-1,0
1978,60644,1,-1,0
1979,60654,0,-1,0
1980,60664,0,-1,0
1981,60674,-1,-1,0
1982,60684,-1,-1,0
1983,60694,0,-1,0
1984,60704,1,-1,0
1985,60714,0,-1,0
1986,60724,1,-1,0
1987,60734,0,-1,0
1988,60744,0,-1,0
1989,60754,-1,-1,0
1990,60764,-1,-1,0
1991,60774,-1,-1,0
1992,60784,0,-1,0
1993,60794,0,-1,0
1994,60804,1,-1,0
1995,60814,0,-1,0
1996,60824,1,-1,0
1997,60834,0,-1,0
1998,60844,1,-1,0
1999,60854,0,-1,0
2000,60864,0,-1,0
2001,60874,-1,-1,0
2002,60884,-1,-1,0
2003,60894,-1,-1,0
2004,60904,0,-1,0
2005,60914,0,-1,0
2006,60924,0,-1,0
2007,60934,0,-1,0
2008,60944,1,-1,0
2009,60954,0,-1,0
2010,60964,0,-1,0
2011,60974,0,-1,0
2012,60984,0,-1,0
2013,60994,0,-1,0
2014,61004,0,-1,0
2015,61014,-1,-1,0
2016,61024,-1,-1,0
2017,61034,-1,-1,0
2018,61044,-1,-1,0
2019,61054,-1,-1,0
2020,61064,-1,-1,0
2021,61074,-1,-1,0
2022,61084,-1,-1,0
2023,61094,-1,-1,0
2024,61104,-1,-1,0
2025,61114,0,-1,0
2026,61124,-1,-1,0
2027,61134,0,-1,0
2028,61144,0,-1,0
2029,61154,0,-1,0
2030,61164,0,-1,0
2031,61174,0,-1,0
2032,61184,0,-1,0
2033,61194,1,-1,0
2034,61204,1,-1,0
2035,61214,1,-1,0
2036,61224,1,-1,0
2037,61234,0,-1,0
2038,61244,0,-1,0
2039,61254,0,-1,0
2040,61264,0,-1,0
2041,61274,0,-1,0
2042,61284,0,-1,0
2043,61294,0,-1,0
2044,61304,0,-1,0
2045,61314,0,-1,0
2046,61324,0,-1,0
2047,61334,0,-1,0
2048,61344,0,-1,0
2049,61354,0,-1,0
2050,61364,0,-1,0
2051,61374,0,-2,0
2052,61384,0,-1,0
2053,61394,-1,-1,0
2054,61404,0,-1,0
2055,61414,-1,-1,0
2056,61424,0,-1,0
2057,61434,-1,-1,0
2058,61444,0,-1,0
2059,61454,-1,-1,0
2060,61464,-1,-1,0
2061,61474,-1,-1,0
2062,61484,-1,-1,0
2063,61494,0,-1,0
2064,61504,0,-1,0
2065,61514,0,-1,0
2066,61524,0,-1,0
2067,61534,0,-1,0
2068,61544,0,-2,0
2069,61554,0,-1,0
2070,61564,0,-1,0
2071,61574,0,-1,0
2072,61584,0,-1,0
2073,61594,0,-1,0
2074,61604,0,-1,0
2075,61614,0,-1,0
2076,61624,0,-1,0
2077,61634,0,-2,0
2078,61644,0,-1,0
2079,61654,0,-1,0
2080,61664,0,-1,0
2081,61674,0,-1,0
2082,61684,-1,-1,0
2083,61694,0,-1,0
2084,61704,0,-1,0
2085,61714,0,-1,0
2086,61724,0,-1,0
2087,61734,0,-1,0
2088,61744,0,-1,0
2089,61754,0,-1,0
2090,61764,0,-1,0
2091,61774,0,-1,0
2092,61784,0,-1,0
2093,61794,0,-1,0
2094,61804,0,-1,0
2095,61814,0,-1,0
2096,61824,0,-1,0
2097,61834,0,-1,0
2098,61844,1,-2,0
2099,61854,0,-1,0
2100,61864,0,-1,0
2101,61874,1,-1,0
2102,61884,1,-1,0
2103,61894,0,-1,0
2104,61904,0,-1,0
2105,61914,1,-1,0
2106,61924,0,-1,0
2107,61934,1,-1,0
2108,61944,0,-1,0
2109,61954,0,-1,0
2110,61964,0,-1,0
2111,61974,0,-1,0
2112,61984,0,-1,0
2113,61994,0,-1,0
2114,62004,0,-1,0
2115,62014,0,-1,0
2116,62024,0,-1,0
2117,62034,0,-1,0
2118,62044,0,-1,0
2119,62054,-1,-1,0
2120,62064,-1,-1,0
2121,62074,-1,-1,0
2122,62084,-1,-1,0
2123,62094,-1,-2,0
2124,62104,-1,-1,0
2125,62114,0,-1,0
2126,62124,0,-1,0
2127,62134,1,-1,0
2128,62144,1,-1,0
2129,62154,1,-1,0
2130,62164,0,-1,0
2131,62174,0,-1,0
2132,62184,-1,-1,0
2133,62194,-1,-1,0
2134,62204,-1,-2,0
2135,62214,0,-1,0
2136,62224,0,-1,0
2137,62234,0,-1,0
2138,62244,1,-1,0
2139,62254,0,0,0
2140,62264,0,-1,0
2141,62274,0,-1,0
2142,62284,-1,-1,0
2143,62294,0,-1,0
2144,62304,-1,-1,0
2145,62314,-1,-1,0
2146,62324,-1,-1,0
2147,62334,-1,-1,0
2148,62344,-1,-1,0
2149,62354,-1,-1,0
2150,62364,0,-1,0
2151,62374,0,-1,0
2152,62384,0,-1,0
2153,62394,0,-1,0
2154,62404,0,-1,0
2155,62414,1,-1,0
2156,62424,1,-1,0
2157,62434,0,-1,0
2158,62444,0,-1,0
2159,62454,0,-1,0
2160,62464,0,-1,0
2161,62474,-1,-1,0
2162,62484,-1,-2,0
2163,62494,-1,-1,0
2164,62504,-1,-1,0
2165,62514,-1,-1,0
2166,62524,0,-1,0
2167,62534,0,-1,0
2168,62544,1,-1,0
2169,62554,0,-1,0
2170,62564,1,-1,0
2171,62574,0,-1,0
2172,62584,0,-1,0
2173,62594,0,-1,0
2174,62604,-1,-2,0
2175,62614,-1,-1,0
2176,62624,-1,-1,0
2177,62634,-1,-1,0
2178,62644,0,-1,0
2179,62654,0,-1,0
2180,62664,1,-1,0
2181,62674,0,-1,0
2182,62684,1,-1,0
2183,62694,0,-1,0
