,ts,id,Gx,Gy,Gz,Ax,Ay,Az
0,-0.371,IMU0,3.1707317073170733,-5.731707317073171,-65.3658536585366,0.025390625,0.017578125,0.0068359375
1,-0.371,IMU1,4.573170731707317,-5.3048780487804885,-66.89024390243902,0.0048828125,0.0126953125,0.0009765625
2,-0.361,IMU0,4.024390243902439,-5.487804878048781,-65.1219512195122,0.0244140625,0.0126953125,0.001953125
3,-0.361,IMU1,5.487804878048781,-5.060975609756098,-66.70731707317074,0.0029296875,0.0078125,-0.0029296875
4,-0.351,IMU0,4.146341463414634,-6.097560975609756,-64.20731707317074,0.0263671875,0.017578125,0.0048828125
5,-0.351,IMU1,5.609756097560976,-5.731707317073171,-65.73170731707317,0.001953125,0.0146484375,-0.0009765625
6,-0.341,IMU0,3.7195121951219514,-5.548780487804878,-65.48780487804879,0.0224609375,0.0126953125,0.0048828125
7,-0.341,IMU1,5.121951219512195,-5.182926829268293,-67.01219512195122,-0.0029296875,0.01171875,-0.0009765625
8,-0.331,IMU0,4.390243902439025,-6.097560975609756,-64.26829268292684,0.0244140625,0.0205078125,0.001953125
9,-0.331,IMU1,5.853658536585367,-5.670731707317073,-66.28048780487805,0.0029296875,0.0146484375,-0.00390625
10,-0.321,IMU0,3.536585365853659,-5.7926829268292686,-64.9390243902439,0.0244140625,0.017578125,0.0068359375
11,-0.321,IMU1,4.817073170731708,-5.365853658536586,-66.82926829268293,-0.0009765625,0.0126953125,-0.0009765625
12,-0.311,IMU0,4.207317073170732,-5.487804878048781,-64.39024390243902,0.025390625,0.015625,0.001953125
13,-0.311,IMU1,5.853658536585367,-4.939024390243903,-66.34146341463415,0.001953125,0.013671875,-0.0029296875
14,-0.301,IMU0,3.780487804878049,-6.036585365853659,-64.63414634146342,0.0244140625,0.0146484375,0.00390625
15,-0.301,IMU1,5.2439024390243905,-5.548780487804878,-66.52439024390245,0.0009765625,0.0126953125,-0.00390625
16,-0.291,IMU0,3.5975609756097566,-5.182926829268293,-65.0609756097561,0.0263671875,0.0205078125,0.00390625
17,-0.291,IMU1,5.121951219512195,-4.817073170731708,-67.07317073170732,0.0029296875,0.015625,-0.0009765625
18,-0.281,IMU0,4.024390243902439,-6.402439024390245,-64.20731707317074,0.025390625,0.013671875,0.0029296875
19,-0.281,IMU1,5.731707317073171,-6.036585365853659,-66.21951219512195,0.00390625,0.0126953125,-0.0029296875
20,-0.271,IMU0,3.536585365853659,-5.182926829268293,-64.87804878048782,0.021484375,0.0224609375,0.00390625
21,-0.271,IMU1,5.060975609756098,-4.75609756097561,-66.95121951219512,0.001953125,0.015625,-0.0029296875
22,-0.261,IMU0,3.8414634146341466,-6.097560975609756,-64.45121951219512,0.0244140625,0.013671875,0.0048828125
23,-0.261,IMU1,5.365853658536586,-5.731707317073171,-66.52439024390245,0.0,0.013671875,-0.0009765625
24,-0.251,IMU0,4.207317073170732,-5.731707317073171,-64.32926829268293,0.0283203125,0.0185546875,0.0048828125
25,-0.251,IMU1,5.670731707317073,-5.3048780487804885,-66.34146341463415,0.0068359375,0.0166015625,-0.0009765625
26,-0.241,IMU0,3.963414634146342,-5.7926829268292686,-64.32926829268293,0.0224609375,0.0146484375,0.0009765625
27,-0.241,IMU1,5.548780487804878,-5.3048780487804885,-66.34146341463415,-0.0009765625,0.01171875,-0.005859375
28,-0.231,IMU0,3.5975609756097566,-5.914634146341464,-65.1219512195122,0.0322265625,0.009765625,0.0087890625
29,-0.231,IMU1,4.878048780487806,-5.426829268292684,-66.95121951219512,0.0087890625,0.0107421875,0.001953125
30,-0.221,IMU0,4.329268292682928,-5.548780487804878,-63.963414634146346,0.0224609375,0.0126953125,-0.0029296875
31,-0.221,IMU1,6.036585365853659,-5.0,-65.91463414634147,-0.001953125,0.0126953125,-0.0087890625
32,-0.211,IMU0,3.8414634146341466,-6.2804878048780495,-64.75609756097562,0.0283203125,0.0185546875,0.0078125
33,-0.211,IMU1,5.182926829268293,-5.853658536585367,-66.58536585365854,0.0068359375,0.01171875,-0.00390625
34,-0.201,IMU0,3.780487804878049,-5.182926829268293,-64.69512195121952,0.01953125,0.0166015625,0.0048828125
35,-0.201,IMU1,5.365853658536586,-4.695121951219512,-66.52439024390245,-0.00390625,0.0126953125,0.0
36,-0.191,IMU0,4.085365853658537,-6.097560975609756,-64.57317073170732,0.0205078125,0.0224609375,0.00390625
37,-0.191,IMU1,5.609756097560976,-5.670731707317073,-66.46341463414635,0.00390625,0.0126953125,-0.00390625
38,-0.181,IMU0,2.5,-3.963414634146342,-65.54878048780489,0.0283203125,0.01953125,0.0087890625
39,-0.181,IMU1,4.085365853658537,-4.207317073170732,-67.7439024390244,0.0048828125,0.0205078125,-0.0009765625
40,-0.171,IMU0,4.75609756097561,-6.341463414634147,-64.20731707317074,0.044921875,0.029296875,-0.0029296875
41,-0.171,IMU1,5.7926829268292686,-5.670731707317073,-66.09756097560977,0.01953125,0.0244140625,-0.0087890625
42,-0.161,IMU0,4.2682926829268295,-5.0,-63.963414634146346,0.0458984375,0.025390625,-0.00390625
43,-0.161,IMU1,5.975609756097562,-4.329268292682928,-66.03658536585367,0.017578125,0.025390625,-0.0087890625
44,-0.151,IMU0,3.1097560975609757,-4.695121951219512,-65.73170731707317,0.048828125,0.0302734375,-0.005859375
45,-0.151,IMU1,4.817073170731708,-3.4756097560975614,-65.97560975609757,0.0244140625,0.037109375,-0.017578125
46,-0.141,IMU0,3.780487804878049,-3.1097560975609757,-66.46341463414635,0.0615234375,0.037109375,-0.0146484375
47,-0.141,IMU1,6.402439024390245,-3.1097560975609757,-67.25609756097562,0.03515625,0.03125,-0.0224609375
48,-0.131,IMU0,2.439024390243903,-1.8902439024390245,-68.29268292682927,0.0869140625,0.005859375,-0.021484375
49,-0.131,IMU1,3.658536585365854,-0.12195121951219513,-71.28048780487805,0.0712890625,0.0107421875,-0.0205078125
50,-0.121,IMU0,2.25609756097561,1.1585365853658538,-79.51219512195122,0.12890625,0.0283203125,-0.02734375
51,-0.121,IMU1,5.2439024390243905,-0.6097560975609757,-82.31707317073172,0.103515625,0.02734375,-0.0458984375
52,-0.111,IMU0,5.2439024390243905,-0.426829268292683,-95.97560975609757,0.1796875,-0.0126953125,-0.013671875
53,-0.111,IMU1,7.317073170731708,1.3414634146341464,-100.2439024390244,0.1708984375,0.005859375,-0.0029296875
54,-0.101,IMU0,3.1707317073170733,-0.24390243902439027,-120.3048780487805,0.173828125,-0.001953125,0.05859375
55,-0.101,IMU1,4.146341463414634,-4.329268292682928,-122.7439024390244,0.1416015625,0.0,0.05078125
56,-0.091,IMU0,2.987804878048781,-3.9024390243902443,-144.87804878048783,0.154296875,0.0322265625,0.072265625
57,-0.091,IMU1,4.51219512195122,-3.1097560975609757,-148.59756097560978,0.1181640625,0.037109375,0.068359375
58,-0.081,IMU0,1.7682926829268295,-3.7195121951219514,-171.34146341463415,0.1123046875,0.052734375,0.078125
59,-0.081,IMU1,2.8658536585365857,3.8414634146341466,-172.01219512195124,0.0810546875,0.0654296875,0.0595703125
60,-0.071,IMU0,1.0365853658536586,1.9512195121951221,-183.41463414634148,0.1435546875,0.1279296875,0.044921875
61,-0.071,IMU1,1.5853658536585367,2.1341463414634148,-183.2926829268293,0.107421875,0.1455078125,0.0400390625
62,-0.061,IMU0,8.170731707317074,2.073170731707317,-193.2926829268293,0.0341796875,0.1416015625,0.033203125
63,-0.061,IMU1,9.329268292682928,0.853658536585366,-195.3048780487805,-0.0068359375,0.1357421875,0.0283203125
64,-0.051,IMU0,6.52439024390244,-0.7926829268292683,-208.96341463414635,-0.0595703125,0.05078125,0.041015625
65,-0.051,IMU1,9.573170731707318,1.829268292682927,-210.609756097561,-0.0830078125,0.052734375,0.03515625
66,-0.041,IMU0,7.865853658536586,4.329268292682928,-215.3658536585366,-0.07421875,-0.03125,0.05859375
67,-0.041,IMU1,9.26829268292683,2.6219512195121952,-219.57317073170734,-0.1064453125,-0.0263671875,0.0517578125
68,-0.031,IMU0,7.8048780487804885,9.146341463414634,-226.64634146341464,0.0537109375,-0.09375,0.0712890625
69,-0.031,IMU1,9.02439024390244,7.987804878048781,-228.1707317073171,0.02734375,-0.09765625,0.0615234375
70,-0.021,IMU0,3.9024390243902443,6.829268292682928,-232.31707317073173,0.166015625,-0.072265625,0.068359375
71,-0.021,IMU1,8.292682926829269,7.987804878048781,-232.50000000000003,0.1435546875,-0.0888671875,0.0615234375
72,-0.011,IMU0,7.073170731707318,3.963414634146342,-229.08536585365854,0.2333984375,-0.025390625,0.0625
73,-0.011,IMU1,10.670731707317074,3.780487804878049,-230.3658536585366,0.2119140625,-0.033203125,0.0576171875
74,-0.001,IMU0,10.30487804878049,1.4634146341463417,-223.2926829268293,0.1962890625,-0.0546875,0.05078125
75,-0.001,IMU1,10.24390243902439,1.5853658536585367,-225.3658536585366,0.1728515625,-0.044921875,0.0478515625
76,0.009,IMU0,9.878048780487806,5.121951219512195,-219.69512195121953,0.1669921875,-0.044921875,0.0556640625
77,0.009,IMU1,9.146341463414634,5.121951219512195,-221.15853658536588,0.142578125,-0.03515625,0.048828125
78,0.019,IMU0,9.02439024390244,4.146341463414634,-224.45121951219514,0.1318359375,-0.08984375,0.05078125
79,0.019,IMU1,11.707317073170733,5.182926829268293,-225.06097560975613,0.1142578125,-0.08984375,0.0458984375
80,0.029,IMU0,7.743902439024391,4.878048780487806,-228.0487804878049,0.1142578125,-0.0595703125,0.0625
81,0.029,IMU1,10.487804878048781,5.670731707317073,-229.39024390243904,0.0888671875,-0.0576171875,0.0576171875
82,0.039,IMU0,10.670731707317074,4.817073170731708,-226.82926829268294,0.09765625,0.0419921875,0.095703125
83,0.039,IMU1,13.231707317073171,5.609756097560976,-227.9878048780488,0.0771484375,0.0361328125,0.08984375
84,0.049,IMU0,8.231707317073171,4.573170731707317,-228.2317073170732,0.0556640625,0.0009765625,0.119140625
85,0.049,IMU1,10.792682926829269,5.548780487804878,-228.41463414634148,0.0400390625,-0.001953125,0.1142578125
86,0.059,IMU0,7.01219512195122,5.060975609756098,-231.21951219512198,0.0458984375,0.0263671875,0.123046875
87,0.059,IMU1,9.573170731707318,5.975609756097562,-232.68292682926833,0.0322265625,0.013671875,0.1162109375
88,0.069,IMU0,8.536585365853659,5.365853658536586,-228.2317073170732,0.0556640625,0.060546875,0.1337890625
89,0.069,IMU1,11.341463414634147,6.52439024390244,-229.02439024390245,0.037109375,0.056640625,0.1279296875
90,0.079,IMU0,6.585365853658537,4.573170731707317,-227.25609756097563,0.052734375,0.08984375,0.1611328125
91,0.079,IMU1,9.634146341463415,5.7926829268292686,-226.95121951219514,0.0302734375,0.1044921875,0.154296875
92,0.089,IMU0,9.573170731707318,4.390243902439025,-229.93902439024393,0.044921875,0.0830078125,0.173828125
93,0.089,IMU1,12.865853658536587,5.487804878048781,-231.03658536585368,0.0205078125,0.08984375,0.1669921875
94,0.099,IMU0,9.878048780487806,4.024390243902439,-226.34146341463418,0.0146484375,0.06640625,0.1884765625
95,0.099,IMU1,12.987804878048781,5.060975609756098,-226.58536585365854,0.0078125,0.0673828125,0.1806640625
96,0.109,IMU0,8.109756097560977,2.987804878048781,-228.2926829268293,-0.013671875,0.0185546875,0.1953125
97,0.109,IMU1,10.365853658536587,3.8414634146341466,-228.59756097560978,-0.0224609375,0.0302734375,0.189453125
98,0.119,IMU0,9.207317073170733,3.4756097560975614,-227.62195121951223,-0.0302734375,0.0146484375,0.20703125
99,0.119,IMU1,11.585365853658537,4.695121951219512,-229.45121951219514,-0.04296875,0.0126953125,0.19921875
100,0.129,IMU0,7.743902439024391,3.780487804878049,-224.75609756097563,-0.03125,0.0400390625,0.220703125
101,0.129,IMU1,9.451219512195122,4.634146341463415,-226.03658536585368,-0.0498046875,0.0390625,0.212890625
102,0.139,IMU0,7.378048780487806,4.207317073170732,-225.4878048780488,-0.015625,0.01953125,0.2236328125
103,0.139,IMU1,8.902439024390244,5.060975609756098,-226.76829268292684,-0.0380859375,0.0224609375,0.21875
104,0.149,IMU0,7.743902439024391,4.085365853658537,-223.65853658536588,0.0048828125,0.037109375,0.208984375
105,0.149,IMU1,9.390243902439025,4.75609756097561,-226.21951219512198,-0.0205078125,0.0244140625,0.203125
106,0.159,IMU0,7.926829268292684,4.695121951219512,-219.02439024390245,-0.0048828125,0.0615234375,0.1796875
107,0.159,IMU1,9.878048780487806,5.426829268292684,-221.03658536585368,-0.02734375,0.0595703125,0.171875
108,0.169,IMU0,7.195121951219513,3.4756097560975614,-218.53658536585368,-0.0048828125,0.0458984375,0.142578125
109,0.169,IMU1,9.02439024390244,4.329268292682928,-219.69512195121953,-0.037109375,0.0517578125,0.138671875
110,0.179,IMU0,9.085365853658537,4.207317073170732,-217.01219512195124,-0.0380859375,0.0654296875,0.11328125
111,0.179,IMU1,11.28048780487805,4.939024390243903,-219.69512195121953,-0.0615234375,0.0654296875,0.107421875
112,0.189,IMU0,8.475609756097562,3.4756097560975614,-213.0487804878049,-0.046875,0.0595703125,0.083984375
113,0.189,IMU1,10.914634146341465,4.024390243902439,-214.39024390243904,-0.0732421875,0.060546875,0.078125
114,0.199,IMU0,6.7682926829268295,1.8902439024390245,-209.63414634146343,-0.1142578125,0.0537109375,0.064453125
115,0.199,IMU1,8.414634146341465,2.5609756097560976,-210.97560975609758,-0.1240234375,0.048828125,0.05859375
116,0.209,IMU0,7.8048780487804885,1.2195121951219514,-206.52439024390245,-0.171875,0.037109375,0.033203125
117,0.209,IMU1,8.902439024390244,1.7682926829268295,-208.2926829268293,-0.19140625,0.03515625,0.02734375
118,0.219,IMU0,7.378048780487806,1.0975609756097562,-201.34146341463418,-0.23046875,0.03515625,0.017578125
119,0.219,IMU1,8.902439024390244,1.524390243902439,-203.65853658536588,-0.2470703125,0.0283203125,0.0107421875
120,0.229,IMU0,6.2804878048780495,0.6097560975609757,-195.4268292682927,-0.2666015625,0.0498046875,0.017578125
121,0.229,IMU1,7.621951219512196,1.2804878048780488,-197.01219512195124,-0.2900390625,0.0458984375,0.0107421875
122,0.239,IMU0,5.7926829268292686,-0.24390243902439027,-186.52439024390245,-0.28515625,0.0419921875,0.0185546875
123,0.239,IMU1,8.170731707317074,0.853658536585366,-187.8048780487805,-0.3076171875,0.046875,0.0087890625
124,0.249,IMU0,6.585365853658537,1.0365853658536586,-174.87804878048783,-0.328125,0.037109375,0.0107421875
125,0.249,IMU1,9.756097560975611,2.25609756097561,-176.15853658536588,-0.349609375,0.0361328125,-0.001953125
126,0.259,IMU0,7.317073170731708,0.48780487804878053,-166.64634146341464,-0.3759765625,0.0146484375,0.0009765625
127,0.259,IMU1,10.121951219512196,1.2804878048780488,-168.53658536585368,-0.396484375,0.0126953125,-0.0078125
128,0.269,IMU0,5.3048780487804885,0.853658536585366,-163.1707317073171,-0.4228515625,0.0234375,0.0
129,0.269,IMU1,6.829268292682928,1.1585365853658538,-165.7926829268293,-0.4453125,0.017578125,-0.0068359375
130,0.279,IMU0,5.365853658536586,-2.7439024390243905,-158.35365853658539,-0.470703125,0.041015625,0.0
131,0.279,IMU1,7.500000000000001,-1.6463414634146343,-159.20731707317074,-0.4853515625,0.03515625,-0.01171875
132,0.289,IMU0,5.7926829268292686,0.06097560975609757,-154.08536585365854,-0.5498046875,0.0478515625,-0.0185546875
133,0.289,IMU1,8.658536585365855,1.402439024390244,-155.5487804878049,-0.572265625,0.0419921875,-0.03125
134,0.299,IMU0,6.2804878048780495,2.25609756097561,-152.37804878048783,-0.5830078125,0.0517578125,-0.0283203125
135,0.299,IMU1,8.963414634146343,2.5,-154.87804878048783,-0.6015625,0.0498046875,-0.0390625
136,0.309,IMU0,6.2804878048780495,1.0975609756097562,-151.52439024390245,-0.5771484375,0.0478515625,-0.017578125
137,0.309,IMU1,8.353658536585366,1.402439024390244,-153.1707317073171,-0.5927734375,0.0478515625,-0.029296875
138,0.319,IMU0,6.402439024390245,0.3658536585365854,-148.0487804878049,-0.578125,0.0537109375,-0.017578125
139,0.319,IMU1,8.475609756097562,1.6463414634146343,-148.84146341463415,-0.5908203125,0.05859375,-0.029296875
140,0.329,IMU0,6.707317073170732,2.1951219512195124,-145.7317073170732,-0.556640625,0.0244140625,-0.0205078125
141,0.329,IMU1,9.207317073170733,3.1097560975609757,-147.9268292682927,-0.5712890625,0.0302734375,-0.0302734375
142,0.339,IMU0,5.975609756097562,0.9756097560975611,-146.28048780487805,-0.55859375,0.0234375,-0.0166015625
143,0.339,IMU1,7.378048780487806,1.2804878048780488,-148.41463414634148,-0.5673828125,0.0224609375,-0.0234375
144,0.349,IMU0,5.0,0.1829268292682927,-145.1219512195122,-0.54296875,0.015625,-0.0068359375
145,0.349,IMU1,6.585365853658537,0.7926829268292683,-146.58536585365854,-0.556640625,0.0166015625,-0.013671875
146,0.359,IMU0,2.804878048780488,0.5487804878048781,-142.9878048780488,-0.54296875,0.04296875,-0.0107421875
147,0.359,IMU1,5.487804878048781,1.402439024390244,-144.02439024390245,-0.560546875,0.0458984375,-0.01953125
148,0.369,IMU0,4.695121951219512,1.707317073170732,-140.4268292682927,-0.5400390625,0.099609375,-0.0166015625
149,0.369,IMU1,5.731707317073171,1.829268292682927,-142.9268292682927,-0.5615234375,0.099609375,-0.021484375
150,0.379,IMU0,4.695121951219512,0.9756097560975611,-140.7926829268293,-0.5185546875,0.0986328125,-0.00390625
151,0.379,IMU1,5.2439024390243905,1.0365853658536586,-143.2317073170732,-0.5380859375,0.1025390625,-0.0107421875
152,0.389,IMU0,5.365853658536586,-1.402439024390244,-139.87804878048783,-0.4794921875,0.0830078125,-0.0029296875
153,0.389,IMU1,6.829268292682928,0.1829268292682927,-141.09756097560978,-0.4970703125,0.08984375,-0.0126953125
154,0.399,IMU0,3.414634146341464,0.30487804878048785,-138.2926829268293,-0.46875,0.1005859375,0.0029296875
155,0.399,IMU1,5.853658536585367,1.9512195121951221,-139.69512195121953,-0.4912109375,0.1044921875,-0.009765625
156,0.409,IMU0,5.2439024390243905,-0.06097560975609757,-138.2317073170732,-0.4609375,0.13671875,0.0
157,0.409,IMU1,7.560975609756098,0.853658536585366,-140.4878048780488,-0.4873046875,0.13671875,-0.0107421875
158,0.419,IMU0,5.487804878048781,1.402439024390244,-141.15853658536588,-0.4296875,0.1328125,0.009765625
159,0.419,IMU1,6.829268292682928,1.2804878048780488,-144.20731707317074,-0.4619140625,0.1328125,0.0009765625
160,0.429,IMU0,3.7195121951219514,-0.30487804878048785,-143.65853658536588,-0.396484375,0.130859375,0.0224609375
161,0.429,IMU1,5.670731707317073,0.12195121951219513,-145.1219512195122,-0.4140625,0.1279296875,0.0107421875
162,0.439,IMU0,4.51219512195122,0.9146341463414634,-145.7317073170732,-0.3232421875,0.14453125,0.021484375
163,0.439,IMU1,7.317073170731708,2.073170731707317,-147.07317073170734,-0.34765625,0.138671875,0.0048828125
164,0.449,IMU0,4.817073170731708,-0.3658536585365854,-146.28048780487805,-0.2822265625,0.134765625,0.0166015625
165,0.449,IMU1,7.8048780487804885,1.1585365853658538,-147.07317073170734,-0.30859375,0.1328125,0.0029296875
166,0.459,IMU0,4.695121951219512,-0.426829268292683,-148.1707317073171,-0.2568359375,0.14453125,0.005859375
167,0.459,IMU1,7.8048780487804885,1.1585365853658538,-150.3048780487805,-0.283203125,0.1484375,-0.005859375
168,0.469,IMU0,5.0,0.3658536585365854,-149.69512195121953,-0.2529296875,0.119140625,-0.0029296875
169,0.469,IMU1,7.682926829268293,0.9756097560975611,-152.37804878048783,-0.287109375,0.11328125,-0.0087890625
170,0.479,IMU0,3.5975609756097566,1.8902439024390245,-153.65853658536588,-0.224609375,0.1181640625,-0.005859375
171,0.479,IMU1,5.365853658536586,1.8902439024390245,-156.95121951219514,-0.2412109375,0.125,-0.0146484375
172,0.489,IMU0,4.939024390243903,0.6097560975609757,-157.5609756097561,-0.146484375,0.1318359375,-0.001953125
173,0.489,IMU1,5.609756097560976,1.0365853658536586,-160.4268292682927,-0.1669921875,0.13671875,-0.013671875
174,0.499,IMU0,4.878048780487806,-0.426829268292683,-162.01219512195124,-0.0888671875,0.076171875,0.00390625
175,0.499,IMU1,9.02439024390244,1.0365853658536586,-162.01219512195124,-0.11328125,0.0830078125,-0.0068359375
176,0.509,IMU0,3.2926829268292686,-1.0365853658536586,-164.08536585365854,-0.044921875,0.068359375,0.009765625
177,0.509,IMU1,6.707317073170732,0.30487804878048785,-163.1707317073171,-0.0595703125,0.072265625,0.0
178,0.519,IMU0,3.5975609756097566,-0.7926829268292683,-163.35365853658539,-0.015625,0.06640625,0.013671875
179,0.519,IMU1,5.548780487804878,0.1829268292682927,-162.8048780487805,-0.0322265625,0.0732421875,0.0068359375
180,0.529,IMU0,3.1097560975609757,-1.1585365853658538,-163.0487804878049,0.0,0.060546875,0.0224609375
181,0.529,IMU1,4.146341463414634,-0.3658536585365854,-163.59756097560978,-0.021484375,0.0634765625,0.0166015625
182,0.539,IMU0,3.1097560975609757,-0.6707317073170732,-162.7439024390244,-0.01171875,0.0498046875,0.0146484375
183,0.539,IMU1,5.3048780487804885,0.426829268292683,-164.08536585365854,-0.03515625,0.0478515625,0.0068359375
184,0.549,IMU0,1.6463414634146343,-0.9756097560975611,-163.96341463414635,-0.0078125,0.04296875,0.01953125
185,0.549,IMU1,5.365853658536586,0.12195121951219513,-164.51219512195124,-0.015625,0.0400390625,0.0078125
186,0.559,IMU0,2.25609756097561,-1.524390243902439,-163.78048780487805,-0.0185546875,0.048828125,0.0126953125
187,0.559,IMU1,5.2439024390243905,-0.06097560975609757,-163.2926829268293,-0.02734375,0.05859375,0.00390625
188,0.569,IMU0,2.8658536585365857,-2.073170731707317,-162.5,-0.001953125,0.06640625,0.0107421875
189,0.569,IMU1,5.060975609756098,-0.9756097560975611,-162.07317073170734,-0.0166015625,0.0751953125,0.0029296875
190,0.579,IMU0,2.25609756097561,-2.3170731707317076,-159.87804878048783,0.00390625,0.076171875,0.0205078125
191,0.579,IMU1,4.329268292682928,-1.5853658536585367,-160.97560975609758,-0.01953125,0.06640625,0.0126953125
192,0.589,IMU0,2.439024390243903,-3.353658536585366,-159.26829268292684,0.0029296875,0.0390625,0.0185546875
193,0.589,IMU1,4.51219512195122,-2.987804878048781,-161.46341463414635,-0.0185546875,0.0283203125,0.009765625
194,0.599,IMU0,1.8902439024390245,-2.073170731707317,-159.75609756097563,0.009765625,0.00390625,0.0166015625
195,0.599,IMU1,4.695121951219512,-1.524390243902439,-161.46341463414635,-0.0126953125,0.0048828125,0.0078125
196,0.609,IMU0,2.682926829268293,-1.8902439024390245,-158.2926829268293,0.0068359375,0.0302734375,0.01171875
197,0.609,IMU1,4.817073170731708,-0.6097560975609757,-158.109756097561,-0.017578125,0.0361328125,0.0068359375
198,0.619,IMU0,3.963414634146342,-1.1585365853658538,-156.09756097560978,0.013671875,0.0419921875,0.0166015625
199,0.619,IMU1,5.060975609756098,-0.06097560975609757,-155.85365853658539,-0.0087890625,0.05078125,0.01171875
200,0.629,IMU0,2.25609756097561,-1.7682926829268295,-154.81707317073173,-0.0009765625,0.0478515625,0.017578125
201,0.629,IMU1,4.451219512195122,-0.6707317073170732,-155.4878048780488,-0.0234375,0.0478515625,0.0107421875
202,0.639,IMU0,2.804878048780488,-3.231707317073171,-155.0,-0.0244140625,0.0537109375,0.0185546875
203,0.639,IMU1,6.036585365853659,-2.1341463414634148,-155.609756097561,-0.0439453125,0.052734375,0.0087890625
204,0.649,IMU0,3.414634146341464,-4.2682926829268295,-154.45121951219514,-0.0927734375,0.0537109375,0.01953125
205,0.649,IMU1,6.463414634146342,-3.231707317073171,-153.71951219512195,-0.1083984375,0.0615234375,0.0087890625
206,0.659,IMU0,5.7926829268292686,-3.536585365853659,-151.58536585365854,-0.111328125,0.05859375,0.013671875
207,0.659,IMU1,8.292682926829269,-2.378048780487805,-150.7926829268293,-0.1279296875,0.07421875,0.0048828125
208,0.669,IMU0,4.51219512195122,-2.6219512195121952,-149.39024390243904,-0.119140625,0.02734375,0.0126953125
209,0.669,IMU1,6.158536585365854,-1.9512195121951221,-150.4268292682927,-0.140625,0.0302734375,0.0048828125
210,0.679,IMU0,2.5,-3.4756097560975614,-147.8658536585366,-0.099609375,0.0205078125,0.0078125
211,0.679,IMU1,4.146341463414634,-2.987804878048781,-150.0,-0.1337890625,0.0234375,0.0009765625
212,0.689,IMU0,3.1707317073170733,-3.1707317073170733,-148.41463414634148,-0.130859375,0.04296875,-0.005859375
213,0.689,IMU1,5.426829268292684,-2.9268292682926833,-150.5487804878049,-0.169921875,0.056640625,-0.0107421875
214,0.699,IMU0,4.695121951219512,-3.231707317073171,-146.95121951219514,-0.15625,0.0498046875,-0.009765625
215,0.699,IMU1,6.341463414634147,-2.6219512195121952,-147.6829268292683,-0.1943359375,0.0634765625,-0.013671875
216,0.709,IMU0,4.329268292682928,-3.231707317073171,-144.75609756097563,-0.1982421875,0.068359375,-0.00390625
217,0.709,IMU1,4.939024390243903,-2.8658536585365857,-145.7926829268293,-0.220703125,0.080078125,-0.009765625
218,0.719,IMU0,3.658536585365854,-3.414634146341464,-143.59756097560978,-0.259765625,0.0751953125,-0.005859375
219,0.719,IMU1,5.3048780487804885,-2.9268292682926833,-146.52439024390245,-0.2841796875,0.0703125,-0.013671875
220,0.729,IMU0,3.1097560975609757,-3.4756097560975614,-145.4268292682927,-0.306640625,0.0830078125,-0.0009765625
221,0.729,IMU1,5.853658536585367,-2.682926829268293,-148.1707317073171,-0.3115234375,0.0712890625,-0.0126953125
222,0.739,IMU0,4.146341463414634,-3.536585365853659,-145.6707317073171,-0.3154296875,0.0888671875,0.0048828125
223,0.739,IMU1,6.2804878048780495,-2.439024390243903,-147.7439024390244,-0.32421875,0.0869140625,-0.005859375
224,0.749,IMU0,5.060975609756098,-3.4756097560975614,-144.14634146341464,-0.306640625,0.0791015625,0.009765625
225,0.749,IMU1,6.2804878048780495,-2.5609756097560976,-145.85365853658539,-0.3232421875,0.076171875,0.001953125
226,0.759,IMU0,2.987804878048781,-3.658536585365854,-143.53658536585368,-0.2763671875,0.048828125,0.0166015625
227,0.759,IMU1,4.390243902439025,-2.8658536585365857,-146.34146341463415,-0.3017578125,0.0439453125,0.009765625
228,0.769,IMU0,0.48780487804878053,-2.9268292682926833,-143.41463414634148,-0.279296875,0.0751953125,0.0205078125
229,0.769,IMU1,2.7439024390243905,-2.3170731707317076,-146.40243902439025,-0.3037109375,0.06640625,0.01171875
230,0.779,IMU0,2.987804878048781,-2.378048780487805,-143.90243902439025,-0.2216796875,0.0869140625,0.013671875
231,0.779,IMU1,5.548780487804878,-1.7682926829268295,-145.91463414634148,-0.2451171875,0.0869140625,0.0078125
232,0.789,IMU0,4.024390243902439,-3.231707317073171,-141.09756097560978,-0.189453125,0.08984375,0.013671875
233,0.789,IMU1,5.426829268292684,-2.804878048780488,-142.13414634146343,-0.2138671875,0.0966796875,0.009765625
234,0.799,IMU0,3.2926829268292686,-3.414634146341464,-139.75609756097563,-0.1845703125,0.0908203125,0.0078125
235,0.799,IMU1,4.024390243902439,-2.987804878048781,-140.6707317073171,-0.2138671875,0.109375,0.00390625
236,0.809,IMU0,4.024390243902439,-2.987804878048781,-139.57317073170734,-0.1953125,0.1005859375,0.0048828125
237,0.809,IMU1,5.7926829268292686,-2.5609756097560976,-141.58536585365854,-0.212890625,0.09765625,-0.00390625
238,0.819,IMU0,4.207317073170732,-1.9512195121951221,-139.45121951219514,-0.1591796875,0.083984375,-0.0029296875
239,0.819,IMU1,6.7682926829268295,-1.2804878048780488,-140.609756097561,-0.1787109375,0.080078125,-0.0107421875
240,0.829,IMU0,5.853658536585367,-3.1707317073170733,-137.9268292682927,-0.1220703125,0.1005859375,-0.0009765625
241,0.829,IMU1,7.987804878048781,-2.25609756097561,-138.1707317073171,-0.1357421875,0.1083984375,-0.009765625
242,0.839,IMU0,5.853658536585367,-3.353658536585366,-134.57317073170734,-0.1064453125,0.0888671875,0.0048828125
243,0.839,IMU1,7.195121951219513,-2.3170731707317076,-134.9390243902439,-0.1298828125,0.0908203125,-0.001953125
244,0.849,IMU0,3.780487804878049,-3.963414634146342,-134.08536585365854,-0.0888671875,0.044921875,0.0166015625
245,0.849,IMU1,6.219512195121951,-3.1097560975609757,-136.21951219512195,-0.12890625,0.04296875,0.0078125
246,0.859,IMU0,3.231707317073171,-4.2682926829268295,-134.69512195121953,-0.1279296875,0.041015625,0.0166015625
247,0.859,IMU1,6.158536585365854,-3.414634146341464,-136.70731707317074,-0.1640625,0.0419921875,0.0078125
248,0.869,IMU0,3.4756097560975614,-3.5975609756097566,-132.7439024390244,-0.126953125,0.0703125,0.013671875
249,0.869,IMU1,5.731707317073171,-2.804878048780488,-133.78048780487805,-0.1591796875,0.076171875,0.0068359375
250,0.879,IMU0,2.8658536585365857,-2.378048780487805,-130.7926829268293,-0.130859375,0.0888671875,0.013671875
251,0.879,IMU1,4.146341463414634,-1.707317073170732,-132.8658536585366,-0.1591796875,0.08203125,0.0078125
252,0.889,IMU0,2.439024390243903,-2.5609756097560976,-130.6707317073171,-0.125,0.0498046875,0.0126953125
253,0.889,IMU1,4.146341463414634,-2.3170731707317076,-133.90243902439025,-0.1611328125,0.0439453125,0.0078125
254,0.899,IMU0,2.439024390243903,-3.2926829268292686,-131.34146341463415,-0.119140625,0.0205078125,0.009765625
255,0.899,IMU1,4.390243902439025,-3.1707317073170733,-134.14634146341464,-0.1484375,0.0263671875,0.005859375
256,0.909,IMU0,2.682926829268293,-3.1707317073170733,-129.32926829268294,-0.1162109375,0.03125,0.009765625
257,0.909,IMU1,4.024390243902439,-2.682926829268293,-131.15853658536585,-0.1513671875,0.0380859375,0.0078125
258,0.919,IMU0,4.085365853658537,-1.9512195121951221,-127.62195121951221,-0.078125,0.04296875,0.0068359375
259,0.919,IMU1,4.817073170731708,-1.402439024390244,-129.57317073170734,-0.1103515625,0.0458984375,0.00390625
260,0.929,IMU0,4.085365853658537,-1.8902439024390245,-126.52439024390245,-0.013671875,0.0048828125,0.00390625
261,0.929,IMU1,5.3048780487804885,-1.4634146341463417,-129.26829268292684,-0.0498046875,0.0048828125,0.0
262,0.939,IMU0,2.439024390243903,-2.3170731707317076,-126.09756097560977,0.017578125,-0.009765625,0.001953125
263,0.939,IMU1,5.060975609756098,-1.707317073170732,-127.62195121951221,-0.021484375,-0.005859375,-0.0029296875
264,0.949,IMU0,4.878048780487806,-2.25609756097561,-123.96341463414635,0.0185546875,0.0166015625,0.0
265,0.949,IMU1,6.951219512195123,-1.3414634146341464,-124.32926829268294,-0.01171875,0.0302734375,-0.0068359375
266,0.959,IMU0,5.121951219512195,-1.829268292682927,-121.70731707317074,0.0029296875,0.009765625,-0.0048828125
267,0.959,IMU1,6.158536585365854,-1.0365853658536586,-122.37804878048782,-0.021484375,0.02734375,-0.0107421875
268,0.969,IMU0,4.939024390243903,-2.1951219512195124,-121.70731707317074,-0.013671875,0.001953125,-0.0107421875
269,0.969,IMU1,6.707317073170732,-1.6463414634146343,-123.71951219512196,-0.0439453125,0.0068359375,-0.0185546875
270,0.979,IMU0,4.51219512195122,-2.5,-123.04878048780489,-0.00390625,-0.0224609375,-0.0146484375
271,0.979,IMU1,7.378048780487806,-1.829268292682927,-125.1829268292683,-0.02734375,-0.0234375,-0.01953125
272,0.989,IMU0,3.4756097560975614,-2.6219512195121952,-123.35365853658537,0.00390625,0.0068359375,-0.0029296875
273,0.989,IMU1,5.731707317073171,-1.7682926829268295,-124.63414634146342,-0.0107421875,0.001953125,-0.0107421875
274,0.999,IMU0,4.573170731707317,-2.7439024390243905,-121.21951219512196,0.0302734375,0.0361328125,0.0009765625
275,0.999,IMU1,6.036585365853659,-1.9512195121951221,-122.56097560975611,0.001953125,0.0361328125,-0.00390625
276,1.009,IMU0,3.7195121951219514,-3.2926829268292686,-120.60975609756099,0.0263671875,0.0185546875,0.0078125
277,1.009,IMU1,5.487804878048781,-2.682926829268293,-123.17073170731709,0.001953125,0.0146484375,0.001953125
278,1.019,IMU0,3.048780487804878,-3.4756097560975614,-120.73170731707319,0.0146484375,0.0224609375,0.0078125
279,1.019,IMU1,5.365853658536586,-2.8658536585365857,-122.98780487804879,-0.0048828125,0.0185546875,0.0009765625
280,1.029,IMU0,5.3048780487804885,-3.2926829268292686,-118.84146341463416,0.0,0.025390625,0.0068359375
281,1.029,IMU1,7.317073170731708,-2.5609756097560976,-119.93902439024392,-0.01953125,0.025390625,0.0009765625
282,1.039,IMU0,5.3048780487804885,-2.987804878048781,-115.12195121951221,0.0185546875,0.0087890625,0.01171875
283,1.039,IMU1,6.829268292682928,-2.1341463414634148,-116.21951219512196,-0.001953125,0.0048828125,0.0068359375
284,1.049,IMU0,3.353658536585366,-1.5853658536585367,-114.69512195121952,0.0185546875,-0.013671875,0.0087890625
285,1.049,IMU1,4.939024390243903,-1.0365853658536586,-116.58536585365854,-0.0068359375,-0.0126953125,0.00390625
286,1.059,IMU0,3.9024390243902443,-1.2804878048780488,-115.60975609756099,0.025390625,-0.0048828125,0.0009765625
287,1.059,IMU1,6.097560975609756,-0.853658536585366,-117.8048780487805,-0.0048828125,-0.005859375,-0.00390625
288,1.069,IMU0,4.390243902439025,-1.4634146341463417,-115.54878048780489,0.048828125,0.009765625,-0.0009765625
289,1.069,IMU1,5.975609756097562,-1.0975609756097562,-117.43902439024392,0.0166015625,0.0087890625,-0.0048828125
290,1.079,IMU0,3.414634146341464,-1.4634146341463417,-114.45121951219514,0.0654296875,0.0537109375,0.0
291,1.079,IMU1,4.51219512195122,-1.0365853658536586,-116.15853658536587,0.0283203125,0.05078125,-0.0048828125
292,1.089,IMU0,3.7195121951219514,-1.6463414634146343,-114.69512195121952,0.04296875,0.0634765625,-0.0048828125
293,1.089,IMU1,5.365853658536586,-1.2195121951219514,-117.13414634146342,0.0146484375,0.0556640625,-0.01171875
294,1.099,IMU0,5.121951219512195,-1.5853658536585367,-115.42682926829269,0.041015625,0.02734375,-0.0009765625
295,1.099,IMU1,7.134146341463415,-0.9146341463414634,-117.19512195121952,0.013671875,0.0185546875,-0.005859375
296,1.109,IMU0,5.182926829268293,-1.524390243902439,-113.29268292682927,0.05078125,0.029296875,0.0029296875
297,1.109,IMU1,6.7682926829268295,-0.7926829268292683,-114.26829268292684,0.0205078125,0.0341796875,-0.001953125
298,1.119,IMU0,4.939024390243903,-0.7317073170731708,-111.28048780487806,0.0322265625,0.046875,0.00390625
299,1.119,IMU1,6.402439024390245,-0.06097560975609757,-112.43902439024392,0.013671875,0.0478515625,-0.0029296875
300,1.129,IMU0,4.390243902439025,-0.7926829268292683,-110.54878048780489,0.029296875,0.0458984375,0.005859375
301,1.129,IMU1,6.646341463414635,-0.1829268292682927,-112.25609756097562,0.0009765625,0.0478515625,0.0009765625
302,1.139,IMU0,5.914634146341464,-1.402439024390244,-110.54878048780489,0.029296875,0.0537109375,0.0087890625
303,1.139,IMU1,8.353658536585366,-0.6707317073170732,-112.19512195121952,-0.001953125,0.060546875,0.00390625
304,1.149,IMU0,6.890243902439025,-0.7926829268292683,-108.78048780487806,0.037109375,0.041015625,0.015625
305,1.149,IMU1,8.658536585365855,-0.12195121951219513,-109.93902439024392,-0.0068359375,0.0283203125,0.0146484375
306,1.159,IMU0,3.780487804878049,-1.2195121951219514,-109.32926829268294,0.0380859375,0.01953125,0.0166015625
307,1.159,IMU1,5.3048780487804885,-0.48780487804878053,-111.40243902439025,0.005859375,0.013671875,0.0087890625
308,1.169,IMU0,5.2439024390243905,-1.1585365853658538,-112.13414634146342,0.0341796875,0.0009765625,0.0146484375
309,1.169,IMU1,7.317073170731708,-0.5487804878048781,-114.32926829268294,0.017578125,0.001953125,0.0107421875
310,1.179,IMU0,5.853658536585367,-0.9146341463414634,-112.43902439024392,0.0341796875,-0.0087890625,0.01953125
311,1.179,IMU1,7.621951219512196,-0.24390243902439027,-113.71951219512196,0.0185546875,-0.017578125,0.0146484375
312,1.189,IMU0,3.1097560975609757,-0.6097560975609757,-110.3658536585366,0.03515625,0.0107421875,0.021484375
313,1.189,IMU1,3.780487804878049,0.6097560975609757,-113.41463414634147,0.013671875,0.005859375,0.0146484375
314,1.199,IMU0,4.207317073170732,-0.30487804878048785,-111.21951219512196,0.0419921875,0.0302734375,0.0234375
315,1.199,IMU1,7.317073170731708,0.48780487804878053,-115.00000000000001,0.0205078125,0.0244140625,0.017578125
316,1.209,IMU0,4.695121951219512,-0.6707317073170732,-112.13414634146342,0.0380859375,0.033203125,0.0283203125
317,1.209,IMU1,5.731707317073171,0.6707317073170732,-113.71951219512196,0.015625,0.0322265625,0.0234375
318,1.219,IMU0,5.487804878048781,-1.524390243902439,-111.52439024390245,0.046875,-0.0029296875,0.021484375
319,1.219,IMU1,6.646341463414635,0.5487804878048781,-114.39024390243904,0.0234375,-0.0048828125,0.0166015625
320,1.229,IMU0,3.414634146341464,-1.5853658536585367,-113.59756097560977,0.0322265625,-0.01953125,0.0107421875
321,1.229,IMU1,7.134146341463415,-0.1829268292682927,-113.47560975609757,0.0107421875,-0.0244140625,0.005859375
322,1.239,IMU0,3.780487804878049,-1.2195121951219514,-113.41463414634147,0.0390625,0.01953125,0.01171875
323,1.239,IMU1,5.426829268292684,0.5487804878048781,-109.69512195121952,0.0078125,0.0302734375,0.0068359375
324,1.249,IMU0,3.5975609756097566,0.06097560975609757,-109.81707317073172,0.0517578125,0.041015625,0.00390625
325,1.249,IMU1,5.2439024390243905,0.6707317073170732,-111.46341463414635,0.0244140625,0.0419921875,-0.001953125
326,1.259,IMU0,3.1707317073170733,-0.5487804878048781,-113.96341463414635,0.044921875,0.0126953125,0.0
327,1.259,IMU1,5.2439024390243905,0.06097560975609757,-116.03658536585367,0.0166015625,0.0146484375,-0.0048828125
328,1.269,IMU0,4.2682926829268295,0.1829268292682927,-110.48780487804879,0.03515625,0.0498046875,0.0029296875
329,1.269,IMU1,5.853658536585367,0.9146341463414634,-111.95121951219514,0.01171875,0.0439453125,-0.0029296875
330,1.279,IMU0,4.024390243902439,0.48780487804878053,-109.57317073170732,0.0498046875,0.025390625,0.0
331,1.279,IMU1,5.548780487804878,1.0975609756097562,-111.34146341463416,0.0224609375,0.0205078125,-0.0048828125
332,1.289,IMU0,4.2682926829268295,0.24390243902439027,-109.14634146341464,0.0498046875,0.0146484375,-0.0029296875
333,1.289,IMU1,6.219512195121951,0.853658536585366,-110.97560975609757,0.0244140625,0.0068359375,-0.0087890625
334,1.299,IMU0,4.207317073170732,-0.30487804878048785,-107.98780487804879,0.0400390625,0.041015625,0.0
335,1.299,IMU1,5.670731707317073,0.3658536585365854,-109.26829268292684,0.0078125,0.0419921875,-0.00390625
336,1.309,IMU0,2.7439024390243905,-0.12195121951219513,-110.1219512195122,0.044921875,0.0185546875,0.001953125
337,1.309,IMU1,4.329268292682928,0.426829268292683,-112.13414634146342,0.0107421875,0.0185546875,-0.001953125
338,1.319,IMU0,4.024390243902439,-0.1829268292682927,-111.52439024390245,0.029296875,0.0078125,0.005859375
339,1.319,IMU1,5.670731707317073,0.5487804878048781,-113.96341463414635,0.0,0.0087890625,0.001953125
340,1.329,IMU0,4.329268292682928,0.30487804878048785,-105.85365853658537,0.046875,0.0263671875,0.0029296875
341,1.329,IMU1,5.7926829268292686,0.9756097560975611,-107.37804878048782,0.0185546875,0.0302734375,-0.0009765625
342,1.339,IMU0,2.25609756097561,-0.7926829268292683,-106.76829268292684,0.0478515625,0.0068359375,0.0087890625
343,1.339,IMU1,4.085365853658537,-0.12195121951219513,-108.84146341463416,0.0224609375,0.0029296875,0.005859375
344,1.349,IMU0,2.804878048780488,-0.7317073170731708,-107.07317073170732,0.02734375,0.01953125,0.01171875
345,1.349,IMU1,4.75609756097561,-0.06097560975609757,-109.02439024390245,0.005859375,0.013671875,0.0068359375
346,1.359,IMU0,2.25609756097561,-0.24390243902439027,-107.43902439024392,0.029296875,0.0244140625,0.0224609375
347,1.359,IMU1,3.658536585365854,0.3658536585365854,-109.20731707317074,0.0146484375,0.0224609375,0.0166015625
348,1.369,IMU0,3.353658536585366,-0.426829268292683,-109.87804878048782,0.0380859375,0.009765625,0.02734375
349,1.369,IMU1,4.878048780487806,0.1829268292682927,-112.43902439024392,0.0146484375,0.0029296875,0.0244140625
350,1.379,IMU0,4.75609756097561,0.24390243902439027,-106.40243902439025,0.025390625,0.02734375,0.0283203125
351,1.379,IMU1,6.341463414634147,0.9146341463414634,-107.8658536585366,0.0029296875,0.02734375,0.0224609375
352,1.389,IMU0,2.987804878048781,0.7926829268292683,-111.34146341463416,0.03515625,-0.0087890625,0.0185546875
353,1.389,IMU1,5.0,1.402439024390244,-112.7439024390244,0.009765625,0.0009765625,0.013671875
354,1.399,IMU0,3.1707317073170733,0.24390243902439027,-114.26829268292684,0.052734375,0.015625,0.0185546875
355,1.399,IMU1,5.0,0.9146341463414634,-116.46341463414635,0.0361328125,0.009765625,0.01171875
356,1.409,IMU0,2.5,0.9756097560975611,-111.46341463414635,0.05859375,0.044921875,0.021484375
357,1.409,IMU1,4.146341463414634,1.6463414634146343,-112.8658536585366,0.0419921875,0.044921875,0.0146484375
358,1.419,IMU0,3.231707317073171,-0.48780487804878053,-114.14634146341464,0.0693359375,0.0439453125,0.0224609375
359,1.419,IMU1,5.182926829268293,0.12195121951219513,-115.97560975609757,0.0517578125,0.044921875,0.0146484375
360,1.429,IMU0,1.4634146341463417,0.48780487804878053,-115.60975609756099,0.0546875,0.0537109375,0.0205078125
361,1.429,IMU1,2.9268292682926833,1.0975609756097562,-117.01219512195122,0.033203125,0.056640625,0.013671875
362,1.439,IMU0,4.75609756097561,-0.5487804878048781,-119.20731707317074,0.0439453125,0.0107421875,0.001953125
363,1.439,IMU1,6.2804878048780495,0.12195121951219513,-122.19512195121952,0.0185546875,0.0107421875,-0.0029296875
364,1.449,IMU0,1.524390243902439,0.30487804878048785,-114.93902439024392,0.052734375,0.029296875,-0.0009765625
365,1.449,IMU1,2.987804878048781,1.0365853658536586,-115.60975609756099,0.029296875,0.0322265625,-0.0048828125
366,1.459,IMU0,4.329268292682928,0.24390243902439027,-120.12195121951221,0.0419921875,0.015625,-0.009765625
367,1.459,IMU1,6.036585365853659,0.9146341463414634,-122.31707317073172,0.01171875,0.0126953125,-0.0146484375
368,1.469,IMU0,3.353658536585366,1.0365853658536586,-114.93902439024392,0.0537109375,-0.0087890625,-0.0009765625
369,1.469,IMU1,5.060975609756098,1.7682926829268295,-116.03658536585367,0.025390625,-0.0029296875,-0.005859375
370,1.479,IMU0,3.1097560975609757,0.06097560975609757,-117.43902439024392,0.017578125,-0.033203125,-0.00390625
371,1.479,IMU1,4.878048780487806,0.9146341463414634,-119.57317073170732,-0.0029296875,-0.03515625,-0.0078125
372,1.489,IMU0,1.2195121951219514,0.3658536585365854,-117.01219512195122,0.0341796875,-0.00390625,0.00390625
373,1.489,IMU1,2.7439024390243905,1.1585365853658538,-118.23170731707319,0.01171875,-0.01171875,0.0
374,1.499,IMU0,3.963414634146342,-0.24390243902439027,-118.47560975609757,0.041015625,-0.0107421875,0.0048828125
375,1.499,IMU1,5.731707317073171,0.426829268292683,-121.58536585365854,0.009765625,-0.0205078125,0.0009765625
376,1.509,IMU0,2.1341463414634148,0.9756097560975611,-113.29268292682927,0.0439453125,0.0322265625,0.0078125
377,1.509,IMU1,4.085365853658537,1.524390243902439,-113.65853658536587,0.0126953125,0.029296875,0.001953125
378,1.519,IMU0,3.7195121951219514,0.7317073170731708,-117.92682926829269,0.037109375,-0.0126953125,0.0087890625
379,1.519,IMU1,5.670731707317073,1.3414634146341464,-120.42682926829269,0.0146484375,-0.0107421875,0.001953125
380,1.529,IMU0,1.707317073170732,0.9756097560975611,-111.58536585365854,0.0322265625,0.0244140625,0.0166015625
381,1.529,IMU1,3.2926829268292686,1.707317073170732,-112.8048780487805,0.0166015625,0.033203125,0.0107421875
382,1.539,IMU0,4.573170731707317,-0.5487804878048781,-113.71951219512196,0.021484375,0.029296875,0.0126953125
383,1.539,IMU1,6.585365853658537,0.1829268292682927,-116.21951219512196,0.005859375,0.0205078125,0.005859375
384,1.549,IMU0,2.5,0.06097560975609757,-111.28048780487806,0.0205078125,0.0302734375,0.0205078125
385,1.549,IMU1,4.146341463414634,0.7317073170731708,-112.6829268292683,0.001953125,0.025390625,0.0146484375
386,1.559,IMU0,5.365853658536586,-0.12195121951219513,-109.14634146341464,0.0146484375,0.0322265625,0.013671875
387,1.559,IMU1,7.500000000000001,0.3658536585365854,-112.01219512195122,-0.009765625,0.02734375,0.0078125
388,1.569,IMU0,2.6219512195121952,0.9756097560975611,-110.54878048780489,0.029296875,0.0078125,0.0087890625
389,1.569,IMU1,4.51219512195122,1.5853658536585367,-110.60975609756099,0.013671875,0.01171875,0.0029296875
390,1.579,IMU0,3.536585365853659,-0.12195121951219513,-111.82926829268294,0.025390625,-0.021484375,0.0087890625
391,1.579,IMU1,5.365853658536586,0.5487804878048781,-115.42682926829269,-0.00390625,-0.02734375,0.001953125
392,1.589,IMU0,1.707317073170732,1.5853658536585367,-109.57317073170732,0.02734375,0.02734375,0.0029296875
393,1.589,IMU1,3.1097560975609757,2.1341463414634148,-110.3048780487805,0.0068359375,0.021484375,-0.001953125
394,1.599,IMU0,5.548780487804878,0.6707317073170732,-109.81707317073172,0.0400390625,0.0380859375,-0.001953125
395,1.599,IMU1,7.25609756097561,1.2195121951219514,-112.6219512195122,0.0224609375,0.029296875,-0.009765625
396,1.609,IMU0,4.695121951219512,1.8902439024390245,-107.98780487804879,0.0263671875,0.0322265625,0.001953125
397,1.609,IMU1,6.097560975609756,2.5,-109.20731707317074,0.0166015625,0.0322265625,-0.00390625
398,1.619,IMU0,4.573170731707317,1.0975609756097562,-104.75609756097562,0.0263671875,0.04296875,0.0048828125
399,1.619,IMU1,6.707317073170732,1.829268292682927,-106.34146341463416,0.009765625,0.0380859375,-0.001953125
400,1.629,IMU0,4.329268292682928,1.1585365853658538,-109.14634146341464,0.0166015625,-0.0068359375,0.0107421875
401,1.629,IMU1,5.914634146341464,2.1341463414634148,-110.79268292682927,0.00390625,0.0048828125,0.0029296875
402,1.639,IMU0,3.7195121951219514,0.9756097560975611,-103.59756097560977,-0.0009765625,0.0107421875,0.01953125
403,1.639,IMU1,5.853658536585367,1.524390243902439,-106.46341463414635,-0.0029296875,0.001953125,0.009765625
404,1.649,IMU0,3.658536585365854,1.2804878048780488,-107.25609756097562,0.0068359375,0.0185546875,0.0185546875
405,1.649,IMU1,5.182926829268293,1.829268292682927,-108.41463414634147,-0.0029296875,0.0244140625,0.0107421875
406,1.659,IMU0,3.780487804878049,1.402439024390244,-102.92682926829269,0.021484375,0.015625,0.0126953125
407,1.659,IMU1,5.548780487804878,1.7682926829268295,-104.93902439024392,0.0048828125,0.021484375,0.005859375
408,1.669,IMU0,5.0,1.0975609756097562,-105.2439024390244,0.0244140625,-0.0224609375,0.0009765625
409,1.669,IMU1,6.463414634146342,1.9512195121951221,-106.76829268292684,0.0107421875,-0.0166015625,-0.0048828125
410,1.679,IMU0,3.536585365853659,0.9146341463414634,-103.65853658536587,0.0390625,-0.009765625,0.0
411,1.679,IMU1,4.939024390243903,1.2195121951219514,-104.87804878048782,0.0185546875,-0.00390625,-0.005859375
412,1.689,IMU0,6.829268292682928,2.073170731707317,-105.97560975609757,0.033203125,-0.0322265625,-0.009765625
413,1.689,IMU1,8.414634146341465,2.5,-109.26829268292684,0.0068359375,-0.029296875,-0.015625
414,1.699,IMU0,1.7682926829268295,2.1951219512195124,-100.79268292682927,0.0654296875,-0.00390625,-0.0078125
415,1.699,IMU1,4.451219512195122,2.7439024390243905,-101.09756097560977,0.0498046875,0.001953125,-0.0126953125
416,1.709,IMU0,3.2926829268292686,1.1585365853658538,-105.2439024390244,0.05859375,0.056640625,-0.0068359375
417,1.709,IMU1,4.75609756097561,1.707317073170732,-107.92682926829269,0.02734375,0.0556640625,-0.0126953125
418,1.719,IMU0,4.817073170731708,1.1585365853658538,-100.2439024390244,0.0341796875,0.08203125,-0.0029296875
419,1.719,IMU1,6.036585365853659,1.9512195121951221,-100.73170731707317,0.01953125,0.0888671875,-0.009765625
420,1.729,IMU0,6.890243902439025,0.6707317073170732,-101.76829268292684,0.01953125,0.025390625,0.0068359375
421,1.729,IMU1,8.963414634146343,0.9756097560975611,-104.57317073170732,0.005859375,0.0205078125,-0.0009765625
422,1.739,IMU0,5.0,1.6463414634146343,-102.13414634146342,0.0,0.0068359375,0.0107421875
423,1.739,IMU1,6.341463414634147,2.0121951219512195,-103.90243902439025,-0.0107421875,0.0078125,0.0048828125
424,1.749,IMU0,4.573170731707317,2.1341463414634148,-97.92682926829269,0.0048828125,0.0244140625,0.009765625
425,1.749,IMU1,7.134146341463415,2.6219512195121952,-99.08536585365854,-0.01171875,0.025390625,0.0
426,1.759,IMU0,5.060975609756098,2.073170731707317,-103.96341463414635,-0.01953125,-0.03515625,0.0078125
427,1.759,IMU1,5.7926829268292686,2.9268292682926833,-105.48780487804879,-0.03515625,-0.0361328125,0.0029296875
428,1.769,IMU0,2.8658536585365857,2.3170731707317076,-97.6219512195122,0.015625,-0.0009765625,0.009765625
429,1.769,IMU1,4.939024390243903,2.8658536585365857,-99.63414634146342,0.00390625,-0.0126953125,0.0029296875
430,1.779,IMU0,4.939024390243903,2.1951219512195124,-102.8048780487805,-0.005859375,0.0263671875,0.0185546875
431,1.779,IMU1,6.52439024390244,2.7439024390243905,-105.00000000000001,-0.0185546875,0.0185546875,0.0107421875
432,1.789,IMU0,4.451219512195122,3.658536585365854,-96.34146341463415,0.0029296875,0.0078125,0.021484375
433,1.789,IMU1,6.707317073170732,4.146341463414634,-97.6219512195122,-0.009765625,0.0107421875,0.0146484375
434,1.799,IMU0,3.8414634146341466,2.1341463414634148,-99.69512195121952,0.0087890625,-0.0185546875,0.0224609375
435,1.799,IMU1,5.914634146341464,2.5609756097560976,-102.43902439024392,-0.0048828125,-0.0244140625,0.013671875
436,1.809,IMU0,2.682926829268293,2.6219512195121952,-98.41463414634147,0.021484375,0.0380859375,0.015625
437,1.809,IMU1,3.536585365853659,2.8658536585365857,-99.20731707317074,0.0126953125,0.037109375,0.0087890625
438,1.819,IMU0,4.939024390243903,3.1707317073170733,-94.75609756097562,0.01953125,0.0595703125,0.0078125
439,1.819,IMU1,8.109756097560977,3.536585365853659,-96.76829268292684,0.005859375,0.0546875,-0.0009765625
440,1.829,IMU0,5.0,2.8658536585365857,-100.3048780487805,-0.0068359375,0.0087890625,0.0048828125
441,1.829,IMU1,6.097560975609756,3.8414634146341466,-101.70731707317074,-0.0185546875,0.0087890625,-0.0009765625
442,1.839,IMU0,4.146341463414634,2.1951219512195124,-93.65853658536587,0.013671875,0.033203125,0.01171875
443,1.839,IMU1,5.7926829268292686,2.804878048780488,-95.0609756097561,-0.0146484375,0.0234375,0.00390625
444,1.849,IMU0,7.378048780487806,2.9268292682926833,-98.59756097560977,0.01953125,0.0087890625,0.0068359375
445,1.849,IMU1,8.719512195121952,3.1097560975609757,-101.76829268292684,0.0029296875,0.0224609375,0.00390625
446,1.859,IMU0,3.963414634146342,3.353658536585366,-94.20731707317074,0.02734375,-0.0009765625,0.009765625
447,1.859,IMU1,5.670731707317073,3.9024390243902443,-94.32926829268294,0.009765625,-0.0234375,-0.0009765625
448,1.869,IMU0,4.451219512195122,1.829268292682927,-96.64634146341464,0.017578125,0.001953125,0.017578125
449,1.869,IMU1,6.158536585365854,2.378048780487805,-99.51219512195122,0.005859375,0.01171875,0.0107421875
450,1.879,IMU0,5.609756097560976,3.1097560975609757,-97.50000000000001,0.0126953125,0.01953125,0.01171875
451,1.879,IMU1,7.987804878048781,3.4756097560975614,-98.17073170731709,0.0029296875,0.015625,0.005859375
452,1.889,IMU0,4.2682926829268295,3.780487804878049,-94.45121951219512,0.029296875,0.0068359375,0.0185546875
453,1.889,IMU1,5.853658536585367,3.963414634146342,-100.91463414634147,-0.005859375,-0.0107421875,0.0126953125
454,1.899,IMU0,5.182926829268293,2.9268292682926833,-100.00000000000001,0.0263671875,-0.0107421875,0.0244140625
455,1.899,IMU1,5.0,2.8658536585365857,-97.8658536585366,0.0068359375,0.00390625,0.021484375
456,1.909,IMU0,2.9268292682926833,1.829268292682927,-99.32926829268294,0.0263671875,0.0322265625,0.017578125
457,1.909,IMU1,6.951219512195123,2.9268292682926833,-104.63414634146342,-0.005859375,0.0302734375,0.009765625
458,1.919,IMU0,6.402439024390245,3.780487804878049,-96.03658536585367,0.029296875,0.03125,0.017578125
459,1.919,IMU1,6.036585365853659,4.878048780487806,-95.79268292682927,0.001953125,0.0380859375,0.013671875
460,1.929,IMU0,5.3048780487804885,2.682926829268293,-100.42682926829269,0.01953125,-0.0078125,0.0107421875
461,1.929,IMU1,7.926829268292684,3.414634146341464,-102.50000000000001,0.0048828125,-0.0126953125,0.0068359375
462,1.939,IMU0,4.51219512195122,3.1707317073170733,-97.19512195121952,0.0380859375,0.025390625,0.013671875
463,1.939,IMU1,6.829268292682928,3.963414634146342,-100.1219512195122,0.009765625,0.0146484375,0.0068359375
464,1.949,IMU0,7.195121951219513,3.9024390243902443,-96.76829268292684,0.0234375,0.013671875,0.0009765625
465,1.949,IMU1,7.439024390243903,4.634146341463415,-97.37804878048782,0.0029296875,0.0126953125,0.0
466,1.959,IMU0,5.487804878048781,4.024390243902439,-100.79268292682927,0.029296875,-0.01953125,-0.0029296875
467,1.959,IMU1,8.719512195121952,3.7195121951219514,-102.6219512195122,0.0029296875,-0.0390625,-0.0068359375
468,1.969,IMU0,3.9024390243902443,2.1951219512195124,-95.91463414634147,0.0244140625,0.0185546875,0.00390625
469,1.969,IMU1,5.121951219512195,2.7439024390243905,-100.06097560975611,0.005859375,0.005859375,-0.001953125
470,1.979,IMU0,6.646341463414635,2.987804878048781,-101.21951219512196,0.0078125,0.013671875,-0.0009765625
471,1.979,IMU1,7.073170731707318,4.024390243902439,-97.31707317073172,-0.00390625,0.033203125,-0.00390625
472,1.989,IMU0,3.353658536585366,2.5609756097560976,-96.40243902439025,0.0126953125,0.0224609375,0.0087890625
473,1.989,IMU1,6.707317073170732,2.804878048780488,-103.41463414634147,-0.00390625,0.005859375,0.0
474,1.999,IMU0,4.2682926829268295,3.048780487804878,-97.98780487804879,-0.0126953125,0.0439453125,0.0107421875
475,1.999,IMU1,5.487804878048781,4.024390243902439,-97.13414634146342,-0.0107421875,0.0546875,0.00390625
476,2.009,IMU0,6.829268292682928,3.353658536585366,-97.13414634146342,0.0068359375,0.048828125,0.005859375
477,2.009,IMU1,8.048780487804878,4.085365853658537,-97.7439024390244,-0.0068359375,0.046875,0.0009765625
478,2.019,IMU0,3.536585365853659,3.5975609756097566,-95.60975609756099,0.0146484375,0.0263671875,0.0146484375
479,2.019,IMU1,6.890243902439025,3.353658536585366,-100.97560975609757,-0.0078125,0.0029296875,0.005859375
480,2.029,IMU0,4.817073170731708,2.3170731707317076,-95.2439024390244,-0.0009765625,0.0283203125,0.015625
481,2.029,IMU1,5.121951219512195,3.048780487804878,-95.00000000000001,-0.009765625,0.03515625,0.0107421875
482,2.039,IMU0,5.487804878048781,2.7439024390243905,-98.53658536585367,-0.0009765625,0.03125,0.013671875
483,2.039,IMU1,8.902439024390244,3.658536585365854,-99.69512195121952,-0.0263671875,0.025390625,0.0078125
484,2.049,IMU0,5.0,3.780487804878049,-90.3048780487805,0.0107421875,0.0205078125,0.0205078125
485,2.049,IMU1,6.707317073170732,4.146341463414634,-95.2439024390244,-0.009765625,0.0029296875,0.0126953125
486,2.059,IMU0,5.670731707317073,3.2926829268292686,-96.95121951219512,0.0068359375,-0.021484375,0.0146484375
487,2.059,IMU1,6.707317073170732,4.207317073170732,-96.09756097560977,-0.0126953125,-0.0068359375,0.01171875
488,2.069,IMU0,4.939024390243903,3.9024390243902443,-93.10975609756099,0.0224609375,0.013671875,0.0078125
489,2.069,IMU1,7.682926829268293,4.146341463414634,-96.95121951219512,-0.009765625,0.01171875,0.001953125
490,2.079,IMU0,5.0,3.048780487804878,-92.31707317073172,0.04296875,0.013671875,0.017578125
491,2.079,IMU1,5.487804878048781,3.658536585365854,-95.00000000000001,0.0234375,0.0009765625,0.0107421875
492,2.089,IMU0,5.7926829268292686,2.5609756097560976,-94.51219512195122,0.0302734375,0.0048828125,0.013671875
493,2.089,IMU1,6.646341463414635,2.6219512195121952,-93.35365853658537,0.0107421875,0.0224609375,0.01171875
494,2.099,IMU0,7.134146341463415,2.804878048780488,-92.6829268292683,0.0244140625,-0.0029296875,0.013671875
495,2.099,IMU1,9.939024390243903,3.780487804878049,-97.07317073170732,-0.00390625,-0.0126953125,0.0078125
496,2.109,IMU0,7.8048780487804885,2.987804878048781,-88.04878048780489,0.0185546875,-0.1201171875,0.015625
497,2.109,IMU1,8.353658536585366,3.4756097560975614,-89.57317073170732,-0.0107421875,-0.123046875,0.0126953125
498,2.119,IMU0,6.951219512195123,2.1951219512195124,-94.63414634146342,-0.0068359375,-0.2119140625,0.0166015625
499,2.119,IMU1,8.536585365853659,3.1707317073170733,-95.91463414634147,-0.0322265625,-0.2177734375,0.015625
500,2.129,IMU0,4.451219512195122,3.658536585365854,-88.35365853658537,0.009765625,-0.1787109375,0.0185546875
501,2.129,IMU1,6.7682926829268295,3.963414634146342,-91.95121951219512,-0.01953125,-0.185546875,0.0146484375
502,2.139,IMU0,7.073170731707318,2.5609756097560976,-89.93902439024392,0.0068359375,-0.2080078125,0.0185546875
503,2.139,IMU1,7.865853658536586,3.048780487804878,-91.40243902439025,-0.01953125,-0.2099609375,0.017578125
504,2.149,IMU0,7.8048780487804885,3.353658536585366,-91.34146341463415,-0.0107421875,-0.224609375,0.015625
505,2.149,IMU1,10.30487804878049,3.414634146341464,-92.8658536585366,-0.0185546875,-0.23046875,0.009765625
506,2.159,IMU0,6.341463414634147,2.9268292682926833,-86.95121951219512,0.025390625,-0.2119140625,0.01171875
507,2.159,IMU1,7.926829268292684,3.8414634146341466,-91.03658536585367,-0.001953125,-0.228515625,0.0068359375
508,2.169,IMU0,7.195121951219513,3.1097560975609757,-88.65853658536587,0.0341796875,-0.25390625,0.0078125
509,2.169,IMU1,7.073170731707318,3.5975609756097566,-88.17073170731707,0.0126953125,-0.25390625,0.005859375
510,2.179,IMU0,4.146341463414634,2.682926829268293,-91.34146341463415,0.0283203125,-0.2255859375,0.00390625
511,2.179,IMU1,7.317073170731708,2.987804878048781,-95.54878048780489,-0.001953125,-0.236328125,0.0009765625
512,2.189,IMU0,6.158536585365854,3.9024390243902443,-84.87804878048782,0.0439453125,-0.1201171875,0.00390625
513,2.189,IMU1,6.097560975609756,4.51219512195122,-84.93902439024392,0.0185546875,-0.115234375,0.0
514,2.199,IMU0,6.585365853658537,2.682926829268293,-91.09756097560977,0.025390625,-0.09375,-0.00390625
515,2.199,IMU1,8.292682926829269,2.7439024390243905,-92.8048780487805,0.0029296875,-0.091796875,-0.0068359375
516,2.209,IMU0,3.8414634146341466,3.048780487804878,-86.28048780487805,0.01953125,-0.0078125,0.0048828125
517,2.209,IMU1,6.402439024390245,3.353658536585366,-90.1219512195122,-0.0029296875,-0.009765625,-0.00390625
518,2.219,IMU0,6.951219512195123,2.7439024390243905,-86.58536585365854,0.021484375,0.0439453125,0.0029296875
519,2.219,IMU1,7.743902439024391,4.146341463414634,-86.82926829268294,0.0,0.0498046875,-0.001953125
520,2.229,IMU0,8.536585365853659,3.5975609756097566,-88.17073170731707,0.02734375,0.00390625,0.0107421875
521,2.229,IMU1,10.670731707317074,3.4756097560975614,-89.69512195121952,-0.0029296875,-0.00390625,0.0078125
522,2.239,IMU0,5.487804878048781,3.4756097560975614,-85.97560975609757,0.02734375,0.00390625,0.01953125
523,2.239,IMU1,7.987804878048781,4.207317073170732,-90.48780487804879,-0.0068359375,-0.015625,0.013671875
524,2.249,IMU0,8.048780487804878,3.048780487804878,-84.75609756097562,0.025390625,0.033203125,0.01953125
525,2.249,IMU1,7.926829268292684,3.7195121951219514,-83.17073170731707,0.009765625,0.02734375,0.0146484375
526,2.259,IMU0,7.500000000000001,3.8414634146341466,-89.51219512195122,0.03125,0.0087890625,0.01171875
527,2.259,IMU1,10.670731707317074,3.8414634146341466,-93.04878048780489,0.001953125,-0.0048828125,0.0078125
528,2.269,IMU0,6.036585365853659,2.682926829268293,-83.10975609756099,0.0439453125,0.0146484375,0.0126953125
529,2.269,IMU1,7.25609756097561,3.414634146341464,-85.2439024390244,0.021484375,0.017578125,0.005859375
530,2.279,IMU0,8.353658536585366,3.414634146341464,-87.50000000000001,0.048828125,0.0244140625,0.0078125
531,2.279,IMU1,8.902439024390244,4.390243902439025,-86.64634146341464,0.02734375,0.033203125,0.0029296875
532,2.289,IMU0,7.378048780487806,3.231707317073171,-87.13414634146342,0.029296875,0.001953125,0.0048828125
533,2.289,IMU1,10.426829268292684,3.4756097560975614,-90.73170731707317,0.009765625,-0.0078125,-0.00390625
534,2.299,IMU0,6.52439024390244,2.987804878048781,-85.0609756097561,0.0234375,-0.001953125,0.0078125
535,2.299,IMU1,7.987804878048781,4.024390243902439,-86.95121951219512,0.001953125,0.0029296875,0.0009765625
536,2.309,IMU0,8.048780487804878,3.4756097560975614,-84.45121951219512,0.02734375,0.0234375,0.00390625
537,2.309,IMU1,9.085365853658537,3.963414634146342,-84.45121951219512,0.0146484375,0.0224609375,-0.00390625
538,2.319,IMU0,8.536585365853659,3.414634146341464,-89.08536585365854,0.0234375,0.0,0.0048828125
539,2.319,IMU1,11.585365853658537,3.353658536585366,-92.43902439024392,0.0029296875,-0.0166015625,-0.0029296875
540,2.329,IMU0,6.7682926829268295,2.8658536585365857,-81.52439024390245,0.0234375,0.037109375,0.0087890625
541,2.329,IMU1,7.926829268292684,3.658536585365854,-83.84146341463415,0.001953125,0.0400390625,0.0009765625
542,2.339,IMU0,9.26829268292683,3.7195121951219514,-86.76829268292684,0.0322265625,0.0185546875,0.00390625
543,2.339,IMU1,9.634146341463415,4.207317073170732,-86.46341463414635,0.0087890625,0.0244140625,0.0009765625
544,2.349,IMU0,6.951219512195123,3.1707317073170733,-86.40243902439025,0.033203125,0.01171875,0.0126953125
545,2.349,IMU1,10.0,3.414634146341464,-90.91463414634147,-0.0048828125,0.0,0.009765625
546,2.359,IMU0,6.890243902439025,3.5975609756097566,-82.01219512195122,0.04296875,0.033203125,0.0205078125
547,2.359,IMU1,7.439024390243903,4.573170731707317,-82.5609756097561,0.005859375,0.0283203125,0.0166015625
548,2.369,IMU0,8.170731707317074,3.658536585365854,-84.87804878048782,0.037109375,0.0068359375,0.01953125
549,2.369,IMU1,9.207317073170733,3.963414634146342,-86.03658536585367,0.005859375,0.0146484375,0.0166015625
550,2.379,IMU0,8.292682926829269,3.536585365853659,-85.42682926829269,0.029296875,-0.0146484375,0.0166015625
551,2.379,IMU1,10.731707317073171,3.963414634146342,-87.50000000000001,-0.0009765625,-0.013671875,0.0107421875
552,2.389,IMU0,5.853658536585367,4.207317073170732,-81.03658536585367,0.0458984375,0.0478515625,0.0146484375
553,2.389,IMU1,6.829268292682928,4.878048780487806,-83.23170731707317,0.02734375,0.044921875,0.0068359375
554,2.399,IMU0,9.146341463414634,3.2926829268292686,-83.90243902439025,0.0341796875,0.0400390625,0.009765625
555,2.399,IMU1,9.817073170731708,3.4756097560975614,-83.59756097560977,0.029296875,0.0439453125,0.0029296875
556,2.409,IMU0,8.475609756097562,3.1097560975609757,-85.3658536585366,0.0341796875,0.0205078125,0.0078125
557,2.409,IMU1,11.28048780487805,3.658536585365854,-88.41463414634147,0.0205078125,0.0126953125,0.0
558,2.419,IMU0,5.975609756097562,3.2926829268292686,-78.29268292682927,0.021484375,0.021484375,0.0107421875
559,2.419,IMU1,6.707317073170732,3.780487804878049,-79.87804878048782,0.0263671875,0.04296875,0.005859375
560,2.429,IMU0,9.390243902439025,3.048780487804878,-84.87804878048782,0.03125,0.0478515625,0.009765625
561,2.429,IMU1,10.426829268292684,3.8414634146341466,-85.67073170731707,0.009765625,0.0205078125,0.0009765625
562,2.439,IMU0,9.085365853658537,3.1707317073170733,-81.58536585365854,0.0166015625,0.0244140625,0.0009765625
563,2.439,IMU1,11.402439024390246,3.658536585365854,-84.08536585365854,0.0,0.0107421875,-0.0078125
564,2.449,IMU0,6.829268292682928,4.024390243902439,-81.09756097560977,0.0224609375,0.009765625,0.0029296875
565,2.449,IMU1,8.231707317073171,4.695121951219512,-83.65853658536587,0.0126953125,0.01953125,-0.0029296875
566,2.459,IMU0,8.231707317073171,2.3170731707317076,-81.28048780487805,0.0322265625,0.0458984375,0.0068359375
567,2.459,IMU1,9.085365853658537,2.682926829268293,-80.60975609756099,0.025390625,0.0322265625,-0.001953125
568,2.469,IMU0,7.134146341463415,3.1097560975609757,-79.75609756097562,0.0380859375,0.029296875,0.0107421875
569,2.469,IMU1,10.121951219512196,4.451219512195122,-86.76829268292684,0.021484375,0.0166015625,-0.0009765625
570,2.479,IMU0,8.048780487804878,3.536585365853659,-84.93902439024392,0.0361328125,0.0224609375,0.0087890625
571,2.479,IMU1,7.500000000000001,3.2926829268292686,-80.3048780487805,0.0283203125,0.0439453125,0.005859375
572,2.489,IMU0,7.073170731707318,3.536585365853659,-75.67073170731707,0.0546875,0.0185546875,0.0107421875
573,2.489,IMU1,10.792682926829269,3.7195121951219514,-82.13414634146342,0.0234375,0.013671875,0.005859375
574,2.499,IMU0,8.048780487804878,2.987804878048781,-82.7439024390244,0.013671875,-0.017578125,0.00390625
575,2.499,IMU1,8.963414634146343,3.8414634146341466,-85.1829268292683,0.005859375,-0.013671875,-0.00390625
576,2.509,IMU0,6.951219512195123,2.439024390243903,-81.34146341463415,0.013671875,0.005859375,0.0029296875
577,2.509,IMU1,7.25609756097561,3.536585365853659,-81.40243902439025,0.0107421875,0.0068359375,-0.0009765625
578,2.519,IMU0,5.548780487804878,4.146341463414634,-79.87804878048782,0.0234375,0.041015625,0.005859375
579,2.519,IMU1,7.439024390243903,4.146341463414634,-80.79268292682927,0.0078125,0.0322265625,-0.001953125
580,2.529,IMU0,7.500000000000001,2.8658536585365857,-77.5609756097561,0.015625,0.0498046875,0.005859375
581,2.529,IMU1,10.24390243902439,3.353658536585366,-83.23170731707317,0.0009765625,0.05078125,0.0
582,2.539,IMU0,9.02439024390244,3.536585365853659,-81.40243902439025,0.0380859375,0.005859375,0.00390625
583,2.539,IMU1,7.865853658536586,3.9024390243902443,-82.13414634146342,0.013671875,0.009765625,-0.0009765625
584,2.549,IMU0,6.097560975609756,3.7195121951219514,-76.76829268292684,0.0283203125,0.0224609375,0.0126953125
585,2.549,IMU1,9.573170731707318,4.695121951219512,-75.48780487804879,0.0107421875,0.009765625,0.0048828125
586,2.559,IMU0,7.987804878048781,2.9268292682926833,-77.7439024390244,0.0224609375,-0.0009765625,0.013671875
587,2.559,IMU1,8.78048780487805,3.536585365853659,-77.01219512195122,0.013671875,-0.0009765625,0.0068359375
588,2.569,IMU0,7.317073170731708,2.682926829268293,-81.21951219512196,0.03125,0.0224609375,0.0126953125
589,2.569,IMU1,9.390243902439025,3.414634146341464,-83.53658536585367,0.0107421875,0.01171875,0.0048828125
590,2.579,IMU0,7.378048780487806,3.536585365853659,-76.46341463414635,0.033203125,0.0234375,0.0078125
591,2.579,IMU1,9.451219512195122,3.8414634146341466,-79.20731707317074,-0.0029296875,0.01953125,0.001953125
592,2.589,IMU0,7.743902439024391,3.536585365853659,-77.31707317073172,0.0322265625,0.0263671875,0.009765625
593,2.589,IMU1,8.78048780487805,4.451219512195122,-78.47560975609757,-0.00390625,0.0263671875,0.005859375
594,2.599,IMU0,9.085365853658537,2.8658536585365857,-78.10975609756099,0.03515625,0.02734375,0.00390625
595,2.599,IMU1,10.609756097560977,3.048780487804878,-79.51219512195122,0.0185546875,0.0234375,-0.001953125
596,2.609,IMU0,6.402439024390245,3.536585365853659,-81.21951219512196,0.0166015625,0.0126953125,0.009765625
597,2.609,IMU1,8.658536585365855,4.146341463414634,-85.00000000000001,-0.0048828125,0.0,0.0029296875
598,2.619,IMU0,5.975609756097562,3.536585365853659,-72.8658536585366,0.02734375,0.05078125,0.0126953125
599,2.619,IMU1,6.890243902439025,4.146341463414634,-73.23170731707317,0.0078125,0.056640625,0.005859375
600,2.629,IMU0,9.02439024390244,3.414634146341464,-81.89024390243902,0.0380859375,0.01953125,0.013671875
601,2.629,IMU1,10.975609756097562,3.8414634146341466,-84.02439024390245,0.015625,0.013671875,0.0078125
602,2.639,IMU0,7.317073170731708,2.6219512195121952,-76.40243902439025,0.029296875,0.017578125,0.015625
603,2.639,IMU1,9.329268292682928,3.1707317073170733,-79.08536585365854,0.0029296875,0.0126953125,0.0107421875
604,2.649,IMU0,6.829268292682928,4.207317073170732,-75.73170731707317,0.03125,0.0107421875,0.013671875
605,2.649,IMU1,8.353658536585366,4.695121951219512,-76.64634146341464,0.01171875,0.009765625,0.0078125
606,2.659,IMU0,7.500000000000001,2.439024390243903,-78.29268292682927,0.025390625,-0.0009765625,0.01171875
607,2.659,IMU1,9.02439024390244,3.1707317073170733,-80.0609756097561,0.01171875,-0.005859375,0.0048828125
608,2.669,IMU0,6.7682926829268295,3.7195121951219514,-78.41463414634147,0.033203125,0.025390625,0.013671875
609,2.669,IMU1,8.902439024390244,4.146341463414634,-80.3048780487805,0.0068359375,0.0263671875,0.0078125
610,2.679,IMU0,6.463414634146342,2.804878048780488,-74.45121951219512,0.0390625,0.0302734375,0.0107421875
611,2.679,IMU1,7.743902439024391,3.414634146341464,-76.76829268292684,0.021484375,0.0263671875,0.005859375
612,2.689,IMU0,9.146341463414634,2.987804878048781,-77.6829268292683,0.0185546875,0.013671875,0.0146484375
613,2.689,IMU1,10.121951219512196,3.4756097560975614,-78.10975609756099,0.0126953125,0.0087890625,0.0087890625
614,2.699,IMU0,5.914634146341464,3.780487804878049,-78.71951219512196,0.0283203125,0.0244140625,0.0185546875
615,2.699,IMU1,8.109756097560977,4.2682926829268295,-82.07317073170732,0.005859375,0.0185546875,0.013671875
616,2.709,IMU0,5.731707317073171,3.1097560975609757,-73.23170731707317,0.0498046875,0.0322265625,0.0263671875
617,2.709,IMU1,6.707317073170732,3.4756097560975614,-74.81707317073172,0.0302734375,0.0361328125,0.0205078125
618,2.719,IMU0,8.109756097560977,2.987804878048781,-77.5609756097561,0.02734375,0.02734375,0.0224609375
619,2.719,IMU1,9.26829268292683,3.658536585365854,-78.90243902439025,0.0107421875,0.02734375,0.015625
620,2.729,IMU0,7.926829268292684,3.2926829268292686,-76.09756097560977,0.0224609375,0.03125,0.017578125
621,2.729,IMU1,9.939024390243903,3.7195121951219514,-79.02439024390245,0.0126953125,0.021484375,0.009765625
622,2.739,IMU0,7.378048780487806,3.4756097560975614,-74.81707317073172,0.0380859375,0.0087890625,0.017578125
623,2.739,IMU1,8.841463414634147,4.146341463414634,-76.64634146341464,0.0302734375,0.001953125,0.0107421875
624,2.749,IMU0,6.097560975609756,3.5975609756097566,-72.92682926829269,0.0322265625,0.029296875,0.017578125
625,2.749,IMU1,7.378048780487806,4.146341463414634,-74.08536585365854,0.0185546875,0.0244140625,0.01171875
626,2.759,IMU0,8.414634146341465,2.804878048780488,-78.10975609756099,0.02734375,0.02734375,0.013671875
627,2.759,IMU1,10.548780487804878,3.2926829268292686,-80.79268292682927,-0.0009765625,0.015625,0.0078125
628,2.769,IMU0,6.52439024390244,2.5609756097560976,-74.20731707317074,0.03125,0.0380859375,0.0234375
629,2.769,IMU1,8.109756097560977,3.048780487804878,-75.97560975609757,0.0068359375,0.0302734375,0.017578125
630,2.779,IMU0,6.585365853658537,3.5975609756097566,-70.60975609756098,0.0263671875,0.021484375,0.0263671875
631,2.779,IMU1,7.621951219512196,4.207317073170732,-71.70731707317074,0.01171875,0.0263671875,0.0185546875
632,2.789,IMU0,9.390243902439025,2.1341463414634148,-78.90243902439025,0.013671875,-0.001953125,0.0234375
633,2.789,IMU1,10.975609756097562,2.6219512195121952,-81.76829268292684,-0.00390625,-0.00390625,0.015625
634,2.799,IMU0,5.670731707317073,3.2926829268292686,-72.25609756097562,0.017578125,0.029296875,0.025390625
635,2.799,IMU1,7.195121951219513,3.8414634146341466,-73.96341463414635,0.001953125,0.021484375,0.0185546875
636,2.809,IMU0,7.01219512195122,2.8658536585365857,-73.23170731707317,0.009765625,0.046875,0.0244140625
637,2.809,IMU1,8.109756097560977,3.353658536585366,-75.1219512195122,0.00390625,0.0380859375,0.017578125
638,2.819,IMU0,10.182926829268293,2.987804878048781,-74.57317073170732,0.033203125,0.01171875,0.017578125
639,2.819,IMU1,11.76829268292683,3.4756097560975614,-76.40243902439025,0.021484375,0.009765625,0.01171875
640,2.829,IMU0,6.829268292682928,4.2682926829268295,-74.63414634146342,0.0400390625,-0.033203125,0.0185546875
641,2.829,IMU1,8.536585365853659,4.695121951219512,-77.37804878048782,0.021484375,-0.0361328125,0.0126953125
642,2.839,IMU0,5.853658536585367,2.439024390243903,-72.19512195121952,0.0400390625,0.0068359375,0.01953125
643,2.839,IMU1,7.195121951219513,2.987804878048781,-73.78048780487805,0.02734375,0.0029296875,0.0126953125
644,2.849,IMU0,8.597560975609756,2.9268292682926833,-73.96341463414635,0.0400390625,0.001953125,0.01171875
645,2.849,IMU1,10.121951219512196,3.536585365853659,-75.79268292682927,0.025390625,-0.001953125,0.005859375
646,2.859,IMU0,6.2804878048780495,2.5,-76.70731707317074,0.021484375,0.0166015625,0.0107421875
647,2.859,IMU1,7.926829268292684,2.987804878048781,-79.39024390243902,0.0048828125,0.015625,0.0029296875
648,2.869,IMU0,6.7682926829268295,3.780487804878049,-70.0,0.02734375,0.05078125,0.0126953125
649,2.869,IMU1,8.231707317073171,4.2682926829268295,-71.21951219512195,0.0107421875,0.0576171875,0.0048828125
650,2.879,IMU0,8.353658536585366,3.658536585365854,-73.59756097560977,0.0234375,0.0107421875,0.0185546875
651,2.879,IMU1,9.939024390243903,4.024390243902439,-76.09756097560977,0.017578125,0.00390625,0.009765625
652,2.889,IMU0,6.7682926829268295,3.1707317073170733,-74.75609756097562,0.0126953125,-0.0283203125,0.0146484375
653,2.889,IMU1,8.597560975609756,3.5975609756097566,-77.25609756097562,0.0048828125,-0.021484375,0.0068359375
654,2.899,IMU0,5.487804878048781,3.414634146341464,-72.19512195121952,0.0400390625,-0.01953125,0.0146484375
655,2.899,IMU1,6.707317073170732,3.8414634146341466,-73.65853658536587,0.0244140625,-0.005859375,0.0078125
656,2.909,IMU0,5.3048780487804885,2.378048780487805,-71.70731707317074,0.0478515625,-0.015625,0.00390625
657,2.909,IMU1,6.707317073170732,2.804878048780488,-73.47560975609757,0.0322265625,-0.0009765625,-0.001953125
658,2.919,IMU0,8.048780487804878,3.231707317073171,-75.3658536585366,0.03125,0.0341796875,0.005859375
659,2.919,IMU1,9.695121951219512,3.7195121951219514,-78.17073170731707,0.017578125,0.037109375,-0.001953125
660,2.929,IMU0,5.853658536585367,3.1097560975609757,-70.91463414634147,0.041015625,0.0478515625,0.005859375
661,2.929,IMU1,7.195121951219513,3.658536585365854,-72.01219512195122,0.0185546875,0.052734375,0.0009765625
662,2.939,IMU0,7.8048780487804885,2.378048780487805,-70.48780487804879,0.0224609375,0.0361328125,0.01171875
663,2.939,IMU1,9.26829268292683,3.048780487804878,-72.92682926829269,0.0087890625,0.0341796875,0.00390625
664,2.949,IMU0,9.634146341463415,3.4756097560975614,-75.0,0.029296875,0.009765625,0.0126953125
665,2.949,IMU1,11.402439024390246,3.9024390243902443,-77.31707317073172,0.009765625,0.0078125,0.005859375
666,2.959,IMU0,7.134146341463415,2.804878048780488,-70.3658536585366,0.046875,-0.01953125,0.0234375
667,2.959,IMU1,8.536585365853659,3.2926829268292686,-72.01219512195122,0.0283203125,-0.01171875,0.017578125
668,2.969,IMU0,5.914634146341464,3.5975609756097566,-71.58536585365854,0.0380859375,-0.0068359375,0.02734375
669,2.969,IMU1,7.500000000000001,4.024390243902439,-73.23170731707317,0.0205078125,-0.009765625,0.0205078125
670,2.979,IMU0,7.621951219512196,3.1097560975609757,-71.34146341463415,0.0390625,0.0166015625,0.0234375
671,2.979,IMU1,9.329268292682928,3.780487804878049,-73.04878048780489,0.01953125,0.0107421875,0.0166015625
672,2.989,IMU0,7.195121951219513,2.5609756097560976,-74.93902439024392,0.0234375,0.01953125,0.0244140625
673,2.989,IMU1,8.719512195121952,3.231707317073171,-77.8658536585366,0.0146484375,0.0078125,0.0166015625
674,2.999,IMU0,5.731707317073171,2.8658536585365857,-67.7439024390244,0.0185546875,0.076171875,0.029296875
675,2.999,IMU1,7.317073170731708,3.353658536585366,-68.23170731707317,0.01171875,0.072265625,0.021484375
676,3.009,IMU0,9.939024390243903,3.658536585365854,-71.52439024390245,0.03125,0.0234375,0.0361328125
677,3.009,IMU1,11.76829268292683,4.207317073170732,-74.81707317073172,0.00390625,0.0166015625,0.0302734375
678,3.019,IMU0,7.682926829268293,3.8414634146341466,-75.2439024390244,0.0400390625,-0.0146484375,0.0322265625
679,3.019,IMU1,9.207317073170733,4.2682926829268295,-77.01219512195122,0.013671875,-0.0078125,0.02734375
680,3.029,IMU0,6.158536585365854,4.2682926829268295,-66.70731707317074,0.0498046875,0.0078125,0.041015625
681,3.029,IMU1,7.621951219512196,4.878048780487806,-67.8048780487805,0.025390625,0.0126953125,0.03515625
682,3.039,IMU0,8.719512195121952,2.378048780487805,-72.6219512195122,0.0498046875,-0.001953125,0.037109375
683,3.039,IMU1,10.365853658536587,2.682926829268293,-75.0609756097561,0.0146484375,-0.00390625,0.033203125
684,3.049,IMU0,7.500000000000001,3.4756097560975614,-70.48780487804879,0.04296875,-0.0185546875,0.0380859375
685,3.049,IMU1,9.26829268292683,4.207317073170732,-72.43902439024392,0.015625,-0.0146484375,0.0341796875
686,3.059,IMU0,4.207317073170732,3.963414634146342,-71.82926829268294,0.0390625,-0.0029296875,0.0419921875
687,3.059,IMU1,5.731707317073171,4.390243902439025,-73.47560975609757,0.0166015625,0.0009765625,0.037109375
688,3.069,IMU0,5.975609756097562,3.231707317073171,-68.04878048780489,0.0537109375,0.0263671875,0.0498046875
689,3.069,IMU1,8.109756097560977,3.658536585365854,-69.81707317073172,0.0244140625,0.0263671875,0.0439453125
690,3.079,IMU0,8.475609756097562,3.780487804878049,-72.98780487804879,0.0234375,0.0263671875,0.048828125
691,3.079,IMU1,9.695121951219512,4.51219512195122,-76.09756097560977,-0.0029296875,0.02734375,0.04296875
692,3.089,IMU0,8.231707317073171,2.9268292682926833,-69.32926829268293,0.0458984375,0.0439453125,0.048828125
693,3.089,IMU1,9.451219512195122,3.2926829268292686,-69.57317073170732,0.0166015625,0.0556640625,0.0458984375
694,3.099,IMU0,8.170731707317074,3.414634146341464,-67.37804878048782,0.04296875,0.005859375,0.0458984375
695,3.099,IMU1,9.817073170731708,4.024390243902439,-70.48780487804879,0.013671875,0.0078125,0.041015625
696,3.109,IMU0,6.829268292682928,2.9268292682926833,-73.71951219512195,0.0380859375,-0.0009765625,0.0458984375
697,3.109,IMU1,8.292682926829269,3.4756097560975614,-76.03658536585367,0.005859375,0.0087890625,0.041015625
698,3.119,IMU0,7.987804878048781,3.1707317073170733,-68.78048780487805,0.0361328125,0.033203125,0.05078125
699,3.119,IMU1,9.451219512195122,3.9024390243902443,-70.3048780487805,0.0078125,0.0322265625,0.046875
700,3.129,IMU0,7.01219512195122,3.963414634146342,-68.96341463414635,0.033203125,0.017578125,0.05078125
701,3.129,IMU1,8.292682926829269,4.451219512195122,-69.87804878048782,0.0078125,0.0224609375,0.044921875
702,3.139,IMU0,8.353658536585366,2.7439024390243905,-69.39024390243902,0.029296875,0.01171875,0.052734375
703,3.139,IMU1,10.670731707317074,3.2926829268292686,-72.8658536585366,-0.0029296875,0.0068359375,0.046875
704,3.149,IMU0,8.170731707317074,3.7195121951219514,-71.89024390243902,0.025390625,-0.0048828125,0.0537109375
705,3.149,IMU1,9.390243902439025,4.329268292682928,-73.71951219512195,0.009765625,-0.00390625,0.0478515625
706,3.159,IMU0,4.451219512195122,3.4756097560975614,-66.95121951219512,0.0341796875,-0.005859375,0.0576171875
707,3.159,IMU1,6.158536585365854,3.963414634146342,-67.6219512195122,0.017578125,-0.005859375,0.05078125
708,3.169,IMU0,7.560975609756098,3.353658536585366,-70.3658536585366,0.0205078125,0.0107421875,0.0615234375
709,3.169,IMU1,9.573170731707318,3.8414634146341466,-74.57317073170732,0.00390625,-0.001953125,0.0537109375
710,3.179,IMU0,7.621951219512196,2.987804878048781,-71.52439024390245,0.0361328125,-0.0009765625,0.05859375
711,3.179,IMU1,8.353658536585366,3.7195121951219514,-71.70731707317074,0.0224609375,0.005859375,0.0537109375
712,3.189,IMU0,5.487804878048781,3.1097560975609757,-67.19512195121952,0.03515625,-0.017578125,0.0634765625
713,3.189,IMU1,7.439024390243903,3.536585365853659,-68.96341463414635,0.005859375,-0.0166015625,0.060546875
714,3.199,IMU0,6.402439024390245,4.085365853658537,-69.08536585365854,0.0390625,0.0029296875,0.0615234375
715,3.199,IMU1,8.353658536585366,4.51219512195122,-71.46341463414635,0.0224609375,0.01171875,0.056640625
716,3.209,IMU0,7.682926829268293,3.231707317073171,-70.79268292682927,0.0458984375,-0.009765625,0.0537109375
717,3.209,IMU1,8.78048780487805,4.207317073170732,-73.04878048780489,0.033203125,0.0009765625,0.0498046875
718,3.219,IMU0,5.548780487804878,3.353658536585366,-69.08536585365854,0.02734375,0.0341796875,0.05859375
719,3.219,IMU1,7.01219512195122,3.536585365853659,-70.3048780487805,0.013671875,0.0244140625,0.0498046875
720,3.229,IMU0,7.500000000000001,3.231707317073171,-66.09756097560977,0.0458984375,0.048828125,0.0546875
721,3.229,IMU1,9.207317073170733,3.7195121951219514,-67.07317073170732,0.0234375,0.037109375,0.0458984375
722,3.239,IMU0,10.0,3.353658536585366,-71.52439024390245,0.0224609375,0.0068359375,0.048828125
723,3.239,IMU1,8.902439024390244,3.8414634146341466,-66.34146341463415,0.0185546875,0.0244140625,0.0458984375
724,3.249,IMU0,6.585365853658537,4.146341463414634,-66.82926829268293,0.0341796875,0.03515625,0.0546875
725,3.249,IMU1,10.30487804878049,3.8414634146341466,-74.57317073170732,0.0029296875,0.0087890625,0.048828125
726,3.259,IMU0,7.621951219512196,2.8658536585365857,-65.91463414634147,0.041015625,0.0185546875,0.0478515625
727,3.259,IMU1,7.8048780487804885,3.1707317073170733,-68.04878048780489,0.013671875,0.021484375,0.0419921875
728,3.269,IMU0,8.170731707317074,3.414634146341464,-71.09756097560977,0.0341796875,0.00390625,0.0390625
729,3.269,IMU1,7.682926829268293,4.390243902439025,-68.17073170731707,0.01953125,0.01953125,0.037109375
730,3.279,IMU0,6.158536585365854,4.085365853658537,-66.89024390243902,0.0380859375,0.04296875,0.03515625
731,3.279,IMU1,9.939024390243903,3.658536585365854,-73.59756097560977,0.001953125,0.0244140625,0.0302734375
732,3.289,IMU0,7.682926829268293,3.231707317073171,-67.07317073170732,0.0439453125,0.0283203125,0.03515625
733,3.289,IMU1,9.085365853658537,4.024390243902439,-68.04878048780489,0.0185546875,0.0302734375,0.0283203125
734,3.299,IMU0,8.292682926829269,3.536585365853659,-67.01219512195122,0.0126953125,0.0341796875,0.0361328125
735,3.299,IMU1,8.292682926829269,3.7195121951219514,-68.53658536585367,0.0,0.0322265625,0.03125
736,3.309,IMU0,8.963414634146343,3.658536585365854,-70.67073170731707,0.0185546875,0.0068359375,0.025390625
737,3.309,IMU1,12.865853658536587,4.024390243902439,-71.52439024390245,0.001953125,0.005859375,0.01953125
738,3.319,IMU0,6.7682926829268295,3.963414634146342,-64.26829268292684,0.0546875,0.001953125,0.0283203125
739,3.319,IMU1,8.597560975609756,4.75609756097561,-70.67073170731707,0.0283203125,-0.015625,0.021484375
740,3.329,IMU0,8.292682926829269,3.353658536585366,-68.84146341463415,0.025390625,-0.0078125,0.01953125
741,3.329,IMU1,7.621951219512196,3.4756097560975614,-66.46341463414635,0.017578125,0.0068359375,0.0146484375
742,3.339,IMU0,7.073170731707318,2.682926829268293,-70.3658536585366,0.037109375,0.0,0.0126953125
743,3.339,IMU1,10.30487804878049,3.658536585365854,-72.7439024390244,0.0009765625,-0.0068359375,0.0087890625
744,3.349,IMU0,5.182926829268293,3.658536585365854,-64.20731707317074,0.04296875,0.0400390625,0.0166015625
745,3.349,IMU1,7.01219512195122,3.4756097560975614,-69.87804878048782,0.01171875,0.0234375,0.009765625
746,3.359,IMU0,7.926829268292684,2.682926829268293,-69.81707317073172,0.029296875,0.0283203125,0.0068359375
747,3.359,IMU1,8.719512195121952,3.780487804878049,-68.10975609756098,0.0068359375,0.044921875,0.0029296875
748,3.369,IMU0,9.695121951219512,3.536585365853659,-67.43902439024392,0.037109375,0.0244140625,0.0107421875
749,3.369,IMU1,11.52439024390244,4.085365853658537,-69.20731707317074,0.0068359375,0.017578125,0.0078125
750,3.379,IMU0,7.25609756097561,3.9024390243902443,-67.19512195121952,0.041015625,0.0146484375,0.017578125
751,3.379,IMU1,10.914634146341465,3.5975609756097566,-71.28048780487805,0.0068359375,-0.0029296875,0.01171875
752,3.389,IMU0,7.378048780487806,2.5609756097560976,-64.63414634146342,0.04296875,0.0341796875,0.0166015625
753,3.389,IMU1,7.25609756097561,3.963414634146342,-66.40243902439025,0.0244140625,0.0380859375,0.01171875
754,3.399,IMU0,9.329268292682928,3.1707317073170733,-69.39024390243902,0.0341796875,0.017578125,0.013671875
755,3.399,IMU1,10.0,2.8658536585365857,-67.92682926829269,-0.00390625,0.0166015625,0.013671875
756,3.409,IMU0,6.341463414634147,2.5,-65.79268292682927,0.0390625,0.0302734375,0.0166015625
757,3.409,IMU1,9.756097560975611,3.414634146341464,-73.41463414634147,0.0009765625,0.0048828125,0.009765625
758,3.419,IMU0,8.048780487804878,3.658536585365854,-64.45121951219512,0.03515625,0.041015625,0.0146484375
759,3.419,IMU1,7.500000000000001,3.9024390243902443,-63.10975609756098,0.0048828125,0.044921875,0.013671875
760,3.429,IMU0,9.329268292682928,3.353658536585366,-69.87804878048782,0.0224609375,0.0048828125,0.0087890625
761,3.429,IMU1,10.914634146341465,3.8414634146341466,-71.46341463414635,-0.0087890625,-0.009765625,0.0068359375
762,3.439,IMU0,7.439024390243903,3.353658536585366,-64.69512195121952,0.04296875,0.0185546875,0.0087890625
763,3.439,IMU1,9.451219512195122,3.1707317073170733,-68.47560975609757,0.0166015625,0.00390625,0.001953125
764,3.449,IMU0,6.463414634146342,3.2926829268292686,-66.21951219512195,0.0380859375,0.04296875,0.0078125
765,3.449,IMU1,7.987804878048781,3.780487804878049,-68.47560975609757,0.0185546875,0.03515625,0.0009765625
766,3.459,IMU0,9.146341463414634,2.439024390243903,-67.98780487804879,0.03515625,0.0302734375,0.0068359375
767,3.459,IMU1,8.719512195121952,3.2926829268292686,-66.34146341463415,0.025390625,0.0458984375,0.00390625
768,3.469,IMU0,6.951219512195123,3.7195121951219514,-68.65853658536587,0.0400390625,0.03515625,0.0126953125
769,3.469,IMU1,10.853658536585368,3.780487804878049,-70.60975609756098,0.01171875,0.0283203125,0.0078125
770,3.479,IMU0,8.475609756097562,2.682926829268293,-62.19512195121952,0.0439453125,0.0390625,0.0185546875
771,3.479,IMU1,9.51219512195122,3.1707317073170733,-68.35365853658537,0.009765625,0.033203125,0.0126953125
772,3.489,IMU0,11.646341463414634,2.682926829268293,-69.32926829268293,0.0263671875,-0.01953125,0.009765625
773,3.489,IMU1,10.487804878048781,2.9268292682926833,-63.41463414634147,0.005859375,0.001953125,0.0087890625
774,3.499,IMU0,6.341463414634147,3.1097560975609757,-64.39024390243902,0.041015625,0.001953125,0.0107421875
775,3.499,IMU1,9.634146341463415,3.7195121951219514,-72.19512195121952,0.0048828125,-0.021484375,0.0078125
776,3.509,IMU0,7.987804878048781,3.536585365853659,-63.78048780487806,0.02734375,0.0185546875,0.015625
777,3.509,IMU1,8.658536585365855,3.963414634146342,-64.9390243902439,0.001953125,0.013671875,0.0107421875
778,3.519,IMU0,7.987804878048781,3.414634146341464,-66.89024390243902,0.0400390625,0.005859375,0.017578125
779,3.519,IMU1,8.292682926829269,4.75609756097561,-66.58536585365854,0.0087890625,0.01171875,0.017578125
780,3.529,IMU0,6.7682926829268295,3.658536585365854,-66.21951219512195,0.046875,0.033203125,0.021484375
781,3.529,IMU1,9.390243902439025,3.1707317073170733,-69.02439024390245,0.01953125,0.01953125,0.015625
782,3.539,IMU0,7.682926829268293,3.1707317073170733,-65.54878048780489,0.0390625,0.03515625,0.0185546875
783,3.539,IMU1,9.51219512195122,4.207317073170732,-69.20731707317074,0.0107421875,0.021484375,0.009765625
784,3.549,IMU0,8.170731707317074,2.9268292682926833,-63.41463414634147,0.0595703125,0.00390625,0.017578125
785,3.549,IMU1,7.439024390243903,3.2926829268292686,-64.20731707317074,0.029296875,0.0146484375,0.013671875
786,3.559,IMU0,6.646341463414635,3.048780487804878,-70.3658536585366,0.037109375,0.0068359375,0.0146484375
787,3.559,IMU1,10.548780487804878,3.048780487804878,-72.19512195121952,0.009765625,0.005859375,0.0078125
788,3.569,IMU0,6.219512195121951,3.2926829268292686,-60.85365853658537,0.048828125,0.046875,0.01171875
789,3.569,IMU1,7.743902439024391,4.085365853658537,-65.48780487804879,0.0087890625,0.03515625,0.005859375
790,3.579,IMU0,7.682926829268293,3.9024390243902443,-64.9390243902439,0.0380859375,0.005859375,0.0087890625
791,3.579,IMU1,7.987804878048781,3.780487804878049,-62.926829268292686,0.005859375,0.0126953125,0.0078125
792,3.589,IMU0,6.219512195121951,2.439024390243903,-63.90243902439025,0.0224609375,0.0263671875,0.0087890625
793,3.589,IMU1,9.695121951219512,3.1097560975609757,-67.6219512195122,0.0009765625,0.0234375,0.00390625
794,3.599,IMU0,7.682926829268293,3.8414634146341466,-59.39024390243903,0.0341796875,0.046875,0.01171875
795,3.599,IMU1,8.292682926829269,4.451219512195122,-61.03658536585366,0.013671875,0.0361328125,0.00390625
796,3.609,IMU0,8.841463414634147,2.3170731707317076,-62.37804878048781,0.0234375,-0.005859375,0.0087890625
797,3.609,IMU1,9.02439024390244,3.048780487804878,-62.865853658536594,0.0087890625,-0.0029296875,0.00390625
798,3.619,IMU0,6.707317073170732,3.353658536585366,-61.15853658536586,0.0205078125,0.0068359375,0.0126953125
799,3.619,IMU1,9.26829268292683,3.658536585365854,-63.35365853658537,-0.0029296875,0.0078125,0.005859375
800,3.629,IMU0,6.402439024390245,3.658536585365854,-57.804878048780495,0.0302734375,0.0556640625,0.017578125
801,3.629,IMU1,7.01219512195122,4.329268292682928,-60.85365853658537,0.0048828125,0.041015625,0.0107421875
802,3.639,IMU0,8.902439024390244,3.1097560975609757,-61.463414634146346,0.025390625,0.052734375,0.0146484375
803,3.639,IMU1,9.573170731707318,3.048780487804878,-60.85365853658537,0.0107421875,0.0322265625,0.0078125
804,3.649,IMU0,6.646341463414635,3.2926829268292686,-58.71951219512196,0.0234375,0.0302734375,0.01171875
805,3.649,IMU1,9.390243902439025,4.085365853658537,-63.35365853658537,0.005859375,0.029296875,0.00390625
806,3.659,IMU0,7.073170731707318,3.5975609756097566,-55.54878048780488,0.0341796875,0.0439453125,0.0078125
807,3.659,IMU1,6.7682926829268295,4.207317073170732,-56.03658536585366,0.03125,0.052734375,0.0009765625
808,3.669,IMU0,7.987804878048781,3.780487804878049,-62.6829268292683,0.0400390625,0.0185546875,0.0048828125
809,3.669,IMU1,11.402439024390246,4.146341463414634,-66.28048780487805,0.009765625,-0.0009765625,-0.00390625
810,3.679,IMU0,7.073170731707318,3.9024390243902443,-54.32926829268293,0.0439453125,0.0185546875,0.0078125
811,3.679,IMU1,7.195121951219513,4.573170731707317,-56.28048780487806,0.0361328125,0.03125,0.0029296875
812,3.689,IMU0,8.170731707317074,3.1097560975609757,-59.51219512195122,0.0439453125,0.03515625,0.0126953125
813,3.689,IMU1,9.26829268292683,3.2926829268292686,-60.243902439024396,0.0361328125,0.03125,0.00390625
814,3.699,IMU0,8.902439024390244,3.231707317073171,-57.43902439024391,0.0419921875,0.0087890625,0.0087890625
815,3.699,IMU1,11.402439024390246,2.8658536585365857,-59.75609756097562,0.013671875,0.0078125,0.0009765625
816,3.709,IMU0,7.073170731707318,3.8414634146341466,-57.926829268292686,0.02734375,-0.013671875,0.0087890625
817,3.709,IMU1,8.353658536585366,4.085365853658537,-58.78048780487806,0.013671875,-0.0078125,0.0048828125
818,3.719,IMU0,6.2804878048780495,2.5609756097560976,-54.87804878048781,0.029296875,0.0126953125,0.009765625
819,3.719,IMU1,9.51219512195122,3.1097560975609757,-57.25609756097561,0.0205078125,0.0068359375,0.0
820,3.729,IMU0,8.902439024390244,3.780487804878049,-59.63414634146342,0.0185546875,0.0126953125,0.0009765625
821,3.729,IMU1,8.536585365853659,4.51219512195122,-62.31707317073171,-0.001953125,0.021484375,-0.00390625
822,3.739,IMU0,6.341463414634147,3.7195121951219514,-51.34146341463415,0.037109375,0.01953125,0.0029296875
823,3.739,IMU1,9.878048780487806,4.390243902439025,-52.86585365853659,0.0107421875,0.0185546875,-0.00390625
824,3.749,IMU0,9.146341463414634,3.2926829268292686,-59.32926829268293,0.03125,-0.017578125,-0.0009765625
825,3.749,IMU1,9.207317073170733,4.085365853658537,-62.560975609756106,0.0146484375,-0.021484375,-0.0068359375
826,3.759,IMU0,5.853658536585367,3.414634146341464,-53.41463414634147,0.0322265625,0.01953125,-0.001953125
827,3.759,IMU1,7.317073170731708,3.963414634146342,-53.41463414634147,0.01171875,0.009765625,-0.0048828125
828,3.769,IMU0,6.707317073170732,4.51219512195122,-55.243902439024396,0.0439453125,0.005859375,-0.0068359375
829,3.769,IMU1,9.51219512195122,4.573170731707317,-60.1829268292683,0.0234375,-0.0087890625,-0.013671875
830,3.779,IMU0,6.036585365853659,2.6219512195121952,-55.97560975609757,0.056640625,0.0185546875,-0.01953125
831,3.779,IMU1,6.646341463414635,3.8414634146341466,-55.487804878048784,0.0283203125,0.01953125,-0.021484375
832,3.789,IMU0,7.560975609756098,3.9024390243902443,-55.243902439024396,0.0380859375,0.068359375,-0.0146484375
833,3.789,IMU1,8.902439024390244,3.353658536585366,-57.43902439024391,0.0126953125,0.052734375,-0.021484375
834,3.799,IMU0,9.695121951219512,4.085365853658537,-54.63414634146342,0.0517578125,0.01953125,-0.0302734375
835,3.799,IMU1,11.219512195121952,4.329268292682928,-58.59756097560976,0.01171875,0.0166015625,-0.0322265625
836,3.809,IMU0,4.878048780487806,4.329268292682928,-55.91463414634147,0.0419921875,0.00390625,-0.03515625
837,3.809,IMU1,7.317073170731708,5.0,-53.59756097560976,0.0302734375,0.0146484375,-0.041015625
838,3.819,IMU0,7.682926829268293,3.353658536585366,-55.365853658536594,0.041015625,0.033203125,-0.044921875
839,3.819,IMU1,8.963414634146343,3.7195121951219514,-61.707317073170735,0.025390625,0.005859375,-0.052734375
840,3.829,IMU0,6.951219512195123,3.963414634146342,-55.85365853658537,0.0419921875,0.03125,-0.0419921875
841,3.829,IMU1,8.231707317073171,4.51219512195122,-53.04878048780488,0.02734375,0.0400390625,-0.044921875
842,3.839,IMU0,6.646341463414635,3.8414634146341466,-53.04878048780488,0.03125,0.03515625,-0.048828125
843,3.839,IMU1,9.573170731707318,4.390243902439025,-59.57317073170732,0.0068359375,0.017578125,-0.0537109375
844,3.849,IMU0,7.621951219512196,3.1097560975609757,-58.90243902439025,0.03515625,0.0263671875,-0.0546875
845,3.849,IMU1,7.378048780487806,3.9024390243902443,-55.79268292682927,0.015625,0.0380859375,-0.056640625
846,3.859,IMU0,6.951219512195123,4.390243902439025,-53.10975609756098,0.0517578125,0.0400390625,-0.0556640625
847,3.859,IMU1,9.451219512195122,3.536585365853659,-58.29268292682927,0.0166015625,0.0224609375,-0.060546875
848,3.869,IMU0,7.25609756097561,3.658536585365854,-57.01219512195122,0.03125,0.021484375,-0.05859375
849,3.869,IMU1,8.414634146341465,4.878048780487806,-57.865853658536594,0.0087890625,0.015625,-0.064453125
850,3.879,IMU0,6.341463414634147,3.048780487804878,-55.91463414634147,0.0283203125,0.0234375,-0.056640625
851,3.879,IMU1,7.682926829268293,3.536585365853659,-56.524390243902445,0.0078125,0.0078125,-0.0634765625
852,3.889,IMU0,7.317073170731708,2.7439024390243905,-53.65853658536586,0.0205078125,0.0244140625,-0.0478515625
853,3.889,IMU1,9.878048780487806,3.4756097560975614,-59.57317073170732,0.0078125,0.0263671875,-0.0537109375
854,3.899,IMU0,5.0,4.390243902439025,-57.25609756097561,0.00390625,0.029296875,-0.046875
855,3.899,IMU1,5.7926829268292686,5.182926829268293,-55.243902439024396,-0.0244140625,0.01953125,-0.0537109375
856,3.909,IMU0,6.158536585365854,3.658536585365854,-53.29268292682927,0.0322265625,0.0439453125,-0.052734375
857,3.909,IMU1,9.573170731707318,4.207317073170732,-58.47560975609757,0.0126953125,0.046875,-0.056640625
858,3.919,IMU0,7.8048780487804885,4.51219512195122,-59.32926829268293,0.04296875,0.021484375,-0.0517578125
859,3.919,IMU1,10.182926829268293,5.060975609756098,-60.54878048780488,0.0185546875,0.0166015625,-0.0556640625
860,3.929,IMU0,6.158536585365854,3.963414634146342,-50.91463414634147,0.0615234375,0.052734375,-0.0546875
861,3.929,IMU1,6.707317073170732,4.329268292682928,-52.987804878048784,0.03125,0.0439453125,-0.0595703125
862,3.939,IMU0,7.8048780487804885,2.439024390243903,-59.51219512195122,0.037109375,0.01953125,-0.0595703125
863,3.939,IMU1,9.695121951219512,2.7439024390243905,-61.524390243902445,0.0107421875,0.009765625,-0.0625
864,3.949,IMU0,4.939024390243903,3.5975609756097566,-53.65853658536586,0.0380859375,0.0419921875,-0.05859375
865,3.949,IMU1,6.646341463414635,3.963414634146342,-56.34146341463415,0.0,0.041015625,-0.0634765625
866,3.959,IMU0,6.463414634146342,4.146341463414634,-56.82926829268293,0.0283203125,0.0546875,-0.060546875
867,3.959,IMU1,7.134146341463415,4.878048780487806,-57.37804878048781,-0.001953125,0.052734375,-0.064453125
868,3.969,IMU0,6.829268292682928,4.329268292682928,-56.15853658536586,0.0361328125,0.046875,-0.060546875
869,3.969,IMU1,8.902439024390244,4.329268292682928,-59.207317073170735,0.005859375,0.0263671875,-0.06640625
870,3.979,IMU0,5.670731707317073,3.4756097560975614,-54.93902439024391,0.0419921875,0.041015625,-0.0576171875
871,3.979,IMU1,7.01219512195122,4.207317073170732,-57.01219512195122,0.0087890625,0.033203125,-0.0634765625
872,3.989,IMU0,6.646341463414635,4.2682926829268295,-57.50000000000001,0.0380859375,0.04296875,-0.0576171875
873,3.989,IMU1,8.963414634146343,4.75609756097561,-58.90243902439025,0.0068359375,0.0419921875,-0.0625
874,3.999,IMU0,6.463414634146342,3.963414634146342,-52.50000000000001,0.0546875,0.0693359375,-0.05078125
875,3.999,IMU1,7.134146341463415,4.2682926829268295,-55.0609756097561,0.025390625,0.05859375,-0.056640625
876,4.009,IMU0,9.207317073170733,3.2926829268292686,-60.54878048780488,0.029296875,0.0009765625,-0.052734375
877,4.009,IMU1,11.097560975609756,3.7195121951219514,-62.07317073170732,0.005859375,-0.005859375,-0.0576171875
878,4.019,IMU0,5.731707317073171,3.536585365853659,-50.73170731707317,0.0302734375,0.029296875,-0.052734375
879,4.019,IMU1,6.646341463414635,4.390243902439025,-52.86585365853659,0.00390625,0.0146484375,-0.0595703125
880,4.029,IMU0,7.865853658536586,4.146341463414634,-57.43902439024391,0.025390625,0.0107421875,-0.056640625
881,4.029,IMU1,9.451219512195122,4.817073170731708,-58.90243902439025,-0.001953125,0.0029296875,-0.060546875
882,4.039,IMU0,6.7682926829268295,4.329268292682928,-52.5609756097561,0.0224609375,0.01171875,-0.056640625
883,4.039,IMU1,8.719512195121952,4.75609756097561,-55.365853658536594,-0.001953125,-0.005859375,-0.0634765625
884,4.049,IMU0,7.25609756097561,3.780487804878049,-55.67073170731708,0.033203125,-0.0078125,-0.0615234375
885,4.049,IMU1,8.170731707317074,4.695121951219512,-56.40243902439025,0.0,-0.01171875,-0.0654296875
886,4.059,IMU0,5.609756097560976,4.573170731707317,-54.207317073170735,0.0458984375,0.013671875,-0.068359375
887,4.059,IMU1,7.500000000000001,4.878048780487806,-56.463414634146346,0.017578125,0.0078125,-0.07421875
888,4.069,IMU0,6.707317073170732,3.9024390243902443,-51.524390243902445,0.03125,0.0595703125,-0.0693359375
889,4.069,IMU1,7.439024390243903,4.390243902439025,-53.59756097560976,0.017578125,0.052734375,-0.0751953125
890,4.079,IMU0,6.951219512195123,3.780487804878049,-55.91463414634147,0.0263671875,0.0146484375,-0.078125
891,4.079,IMU1,9.51219512195122,4.085365853658537,-59.085365853658544,0.015625,0.0078125,-0.0859375
892,4.089,IMU0,8.414634146341465,3.963414634146342,-48.53658536585366,0.0419921875,-0.001953125,-0.08984375
893,4.089,IMU1,9.207317073170733,4.634146341463415,-48.47560975609756,0.0390625,0.0009765625,-0.095703125
894,4.099,IMU0,5.060975609756098,4.2682926829268295,-53.47560975609757,0.0419921875,-0.0126953125,-0.095703125
895,4.099,IMU1,7.073170731707318,4.75609756097561,-57.25609756097561,0.029296875,-0.033203125,-0.1025390625
896,4.109,IMU0,6.52439024390244,4.024390243902439,-50.426829268292686,0.0224609375,0.021484375,-0.095703125
897,4.109,IMU1,7.500000000000001,4.51219512195122,-50.73170731707317,0.017578125,0.013671875,-0.1025390625
898,4.119,IMU0,6.7682926829268295,3.5975609756097566,-50.304878048780495,0.0244140625,0.017578125,-0.1064453125
899,4.119,IMU1,8.658536585365855,4.146341463414634,-53.59756097560976,0.001953125,0.0029296875,-0.11328125
900,4.129,IMU0,6.52439024390244,4.390243902439025,-50.79268292682927,0.0234375,-0.0068359375,-0.1123046875
901,4.129,IMU1,7.560975609756098,5.182926829268293,-51.463414634146346,0.0,-0.01171875,-0.115234375
902,4.139,IMU0,4.573170731707317,5.3048780487804885,-47.07317073170732,0.0087890625,0.0146484375,-0.115234375
903,4.139,IMU1,6.341463414634147,5.670731707317073,-49.63414634146342,-0.013671875,0.009765625,-0.1201171875
904,4.149,IMU0,6.341463414634147,3.7195121951219514,-48.10975609756098,0.0244140625,0.0419921875,-0.1201171875
905,4.149,IMU1,7.25609756097561,4.024390243902439,-50.304878048780495,0.001953125,0.044921875,-0.1259765625
906,4.159,IMU0,7.01219512195122,4.329268292682928,-49.51219512195122,0.0390625,0.0263671875,-0.1337890625
907,4.159,IMU1,8.78048780487805,4.817073170731708,-52.37804878048781,0.0166015625,0.02734375,-0.1396484375
908,4.169,IMU0,9.51219512195122,4.085365853658537,-47.50000000000001,0.04296875,0.0048828125,-0.146484375
909,4.169,IMU1,10.914634146341465,4.573170731707317,-47.926829268292686,0.017578125,0.0126953125,-0.150390625
910,4.179,IMU0,5.487804878048781,4.634146341463415,-45.60975609756098,0.05859375,0.0185546875,-0.15234375
911,4.179,IMU1,6.7682926829268295,5.121951219512195,-48.23170731707317,0.0322265625,0.015625,-0.15625
912,4.189,IMU0,6.890243902439025,4.634146341463415,-50.54878048780488,0.0380859375,0.02734375,-0.1552734375
913,4.189,IMU1,8.658536585365855,4.817073170731708,-52.6829268292683,0.0107421875,0.021484375,-0.16015625
914,4.199,IMU0,6.951219512195123,4.329268292682928,-44.69512195121952,0.02734375,0.041015625,-0.173828125
915,4.199,IMU1,7.926829268292684,4.573170731707317,-46.646341463414636,0.0029296875,0.0341796875,-0.1787109375
916,4.209,IMU0,7.682926829268293,3.8414634146341466,-50.304878048780495,0.0361328125,0.001953125,-0.1923828125
917,4.209,IMU1,9.390243902439025,4.2682926829268295,-52.86585365853659,0.0068359375,-0.0068359375,-0.1962890625
918,4.219,IMU0,6.890243902439025,4.085365853658537,-46.524390243902445,0.0498046875,0.015625,-0.205078125
919,4.219,IMU1,7.865853658536586,4.634146341463415,-47.50000000000001,0.0283203125,0.0185546875,-0.208984375
920,4.229,IMU0,5.975609756097562,5.3048780487804885,-46.28048780487805,0.033203125,0.0341796875,-0.216796875
921,4.229,IMU1,7.682926829268293,5.487804878048781,-49.207317073170735,0.0087890625,0.03125,-0.2236328125
922,4.239,IMU0,7.195121951219513,4.329268292682928,-47.50000000000001,0.04296875,0.013671875,-0.2255859375
923,4.239,IMU1,8.170731707317074,4.695121951219512,-49.32926829268293,0.0244140625,0.013671875,-0.232421875
924,4.249,IMU0,6.341463414634147,3.780487804878049,-48.53658536585366,0.0498046875,-0.00390625,-0.232421875
925,4.249,IMU1,7.865853658536586,4.146341463414634,-51.21951219512196,0.03125,-0.0107421875,-0.2392578125
926,4.259,IMU0,8.414634146341465,3.7195121951219514,-46.951219512195124,0.0478515625,0.0048828125,-0.23828125
927,4.259,IMU1,10.121951219512196,4.2682926829268295,-48.10975609756098,0.037109375,0.001953125,-0.24609375
928,4.269,IMU0,5.914634146341464,5.182926829268293,-45.73170731707317,0.0498046875,0.0341796875,-0.232421875
929,4.269,IMU1,7.25609756097561,5.670731707317073,-47.6219512195122,0.0234375,0.029296875,-0.23828125
930,4.279,IMU0,7.560975609756098,5.487804878048781,-50.1219512195122,0.048828125,0.01953125,-0.2412109375
931,4.279,IMU1,9.51219512195122,5.731707317073171,-52.25609756097561,0.0263671875,0.0185546875,-0.24609375
932,4.289,IMU0,7.865853658536586,5.2439024390243905,-44.81707317073171,0.05078125,0.01953125,-0.240234375
933,4.289,IMU1,9.146341463414634,5.548780487804878,-46.463414634146346,0.0263671875,0.017578125,-0.2451171875
934,4.299,IMU0,6.7682926829268295,4.085365853658537,-50.1829268292683,0.0419921875,-0.0244140625,-0.23828125
935,4.299,IMU1,8.78048780487805,4.2682926829268295,-53.04878048780488,0.0234375,-0.03125,-0.244140625
936,4.309,IMU0,6.402439024390245,4.573170731707317,-48.84146341463415,0.04296875,-0.001953125,-0.234375
937,4.309,IMU1,7.743902439024391,5.060975609756098,-50.1219512195122,0.0244140625,-0.0078125,-0.240234375
938,4.319,IMU0,5.426829268292684,5.487804878048781,-46.03658536585366,0.041015625,0.0234375,-0.240234375
939,4.319,IMU1,7.073170731707318,5.853658536585367,-47.926829268292686,0.017578125,0.0205078125,-0.2470703125
940,4.329,IMU0,7.378048780487806,5.121951219512195,-49.75609756097561,0.0263671875,0.017578125,-0.2490234375
941,4.329,IMU1,8.963414634146343,5.487804878048781,-51.707317073170735,0.0087890625,0.013671875,-0.255859375
942,4.339,IMU0,5.914634146341464,4.451219512195122,-47.987804878048784,0.0322265625,0.009765625,-0.248046875
943,4.339,IMU1,6.951219512195123,4.817073170731708,-50.0609756097561,0.0126953125,-0.0009765625,-0.2548828125
944,4.349,IMU0,7.01219512195122,4.207317073170732,-49.69512195121952,0.0283203125,0.0068359375,-0.2548828125
945,4.349,IMU1,8.597560975609756,4.51219512195122,-52.01219512195122,0.0068359375,-0.00390625,-0.26171875
946,4.359,IMU0,7.25609756097561,4.024390243902439,-46.768292682926834,0.0322265625,0.021484375,-0.2646484375
947,4.359,IMU1,8.475609756097562,4.451219512195122,-48.04878048780488,0.0009765625,0.021484375,-0.267578125
948,4.369,IMU0,7.560975609756098,4.817073170731708,-50.304878048780495,0.048828125,-0.0205078125,-0.27734375
949,4.369,IMU1,9.146341463414634,5.2439024390243905,-52.6829268292683,0.01171875,-0.0205078125,-0.279296875
950,4.379,IMU0,7.439024390243903,5.060975609756098,-47.37804878048781,0.052734375,-0.0244140625,-0.27734375
951,4.379,IMU1,8.902439024390244,5.487804878048781,-49.207317073170735,0.021484375,-0.02734375,-0.2802734375
952,4.389,IMU0,3.780487804878049,4.695121951219512,-46.82926829268293,0.048828125,-0.0068359375,-0.267578125
953,4.389,IMU1,5.2439024390243905,5.121951219512195,-48.59756097560976,0.015625,-0.0048828125,-0.271484375
954,4.399,IMU0,6.52439024390244,4.024390243902439,-48.78048780487805,0.0302734375,0.013671875,-0.2666015625
955,4.399,IMU1,8.048780487804878,4.451219512195122,-51.585365853658544,0.0029296875,0.0068359375,-0.2705078125
956,4.409,IMU0,8.597560975609756,4.451219512195122,-42.926829268292686,0.0166015625,0.017578125,-0.2568359375
957,4.409,IMU1,9.695121951219512,4.878048780487806,-44.75609756097561,0.0,0.009765625,-0.2626953125
958,4.419,IMU0,7.195121951219513,4.2682926829268295,-42.01219512195122,0.0244140625,-0.013671875,-0.2529296875
959,4.419,IMU1,8.719512195121952,4.634146341463415,-43.963414634146346,0.0048828125,-0.0146484375,-0.2578125
960,4.429,IMU0,6.585365853658537,4.878048780487806,-43.78048780487805,0.0146484375,-0.0029296875,-0.25
961,4.429,IMU1,8.353658536585366,5.2439024390243905,-45.79268292682927,0.001953125,-0.0078125,-0.2568359375
962,4.439,IMU0,6.52439024390244,5.060975609756098,-42.19512195121951,0.033203125,0.029296875,-0.2470703125
963,4.439,IMU1,7.865853658536586,5.426829268292684,-43.84146341463415,0.0126953125,0.029296875,-0.251953125
964,4.449,IMU0,6.585365853658537,5.182926829268293,-41.707317073170735,0.0400390625,0.041015625,-0.2548828125
965,4.449,IMU1,8.048780487804878,5.609756097560976,-43.963414634146346,0.0185546875,0.0361328125,-0.259765625
966,4.459,IMU0,7.500000000000001,4.51219512195122,-40.670731707317074,0.0224609375,0.0458984375,-0.2666015625
967,4.459,IMU1,9.26829268292683,4.939024390243903,-42.43902439024391,0.0068359375,0.0390625,-0.2734375
968,4.469,IMU0,6.646341463414635,4.939024390243903,-40.1219512195122,0.0361328125,0.025390625,-0.275390625
969,4.469,IMU1,8.109756097560977,5.365853658536586,-41.463414634146346,0.0185546875,0.017578125,-0.2822265625
970,4.479,IMU0,5.060975609756098,4.817073170731708,-44.451219512195124,0.03515625,-0.0224609375,-0.2939453125
971,4.479,IMU1,6.2804878048780495,5.182926829268293,-46.89024390243903,0.015625,-0.033203125,-0.2998046875
972,4.489,IMU0,5.3048780487804885,4.451219512195122,-44.451219512195124,0.0224609375,-0.0185546875,-0.2978515625
973,4.489,IMU1,6.7682926829268295,4.939024390243903,-47.43902439024391,0.0048828125,-0.0263671875,-0.3046875
974,4.499,IMU0,6.341463414634147,4.024390243902439,-39.69512195121951,0.03515625,0.0341796875,-0.30078125
975,4.499,IMU1,7.621951219512196,4.451219512195122,-41.524390243902445,0.013671875,0.0234375,-0.3076171875
976,4.509,IMU0,5.731707317073171,4.329268292682928,-41.09756097560976,0.0517578125,0.0263671875,-0.3154296875
977,4.509,IMU1,7.25609756097561,4.634146341463415,-42.743902439024396,0.0322265625,0.0283203125,-0.3232421875
978,4.519,IMU0,7.25609756097561,4.024390243902439,-42.86585365853659,0.0263671875,0.0166015625,-0.3212890625
979,4.519,IMU1,8.902439024390244,4.2682926829268295,-45.1219512195122,0.01171875,0.005859375,-0.330078125
980,4.529,IMU0,6.219512195121951,4.878048780487806,-42.07317073170732,0.0341796875,0.009765625,-0.3212890625
981,4.529,IMU1,7.500000000000001,5.182926829268293,-44.08536585365854,0.0185546875,0.0126953125,-0.328125
982,4.539,IMU0,5.609756097560976,5.7926829268292686,-40.36585365853659,0.0419921875,0.025390625,-0.3251953125
983,4.539,IMU1,7.195121951219513,6.219512195121951,-42.5609756097561,0.0283203125,0.0302734375,-0.3310546875
984,4.549,IMU0,5.7926829268292686,5.548780487804878,-41.28048780487805,0.052734375,0.01953125,-0.3388671875
985,4.549,IMU1,7.621951219512196,5.975609756097562,-43.35365853658537,0.0244140625,0.0302734375,-0.3427734375
986,4.559,IMU0,5.426829268292684,4.451219512195122,-40.54878048780488,0.0517578125,0.046875,-0.3408203125
987,4.559,IMU1,7.378048780487806,4.878048780487806,-42.07317073170732,0.01953125,0.044921875,-0.3408203125
988,4.569,IMU0,5.914634146341464,4.451219512195122,-40.670731707317074,0.0341796875,0.0654296875,-0.345703125
989,4.569,IMU1,7.317073170731708,4.939024390243903,-42.01219512195122,0.009765625,0.037109375,-0.3525390625
990,4.579,IMU0,5.3048780487804885,5.121951219512195,-43.78048780487805,0.02734375,0.0146484375,-0.359375
991,4.579,IMU1,6.52439024390244,5.609756097560976,-45.79268292682927,0.01171875,0.001953125,-0.3671875
992,4.589,IMU0,5.914634146341464,4.451219512195122,-43.04878048780488,0.0224609375,-0.0029296875,-0.373046875
993,4.589,IMU1,7.01219512195122,5.121951219512195,-46.15853658536586,0.017578125,0.009765625,-0.37890625
994,4.599,IMU0,5.914634146341464,4.451219512195122,-38.29268292682927,0.0322265625,0.021484375,-0.3720703125
995,4.599,IMU1,6.463414634146342,4.451219512195122,-40.0,0.013671875,0.025390625,-0.3798828125
996,4.609,IMU0,6.2804878048780495,4.207317073170732,-36.463414634146346,0.037109375,0.0224609375,-0.376953125
997,4.609,IMU1,8.231707317073171,4.878048780487806,-41.890243902439025,0.015625,0.0166015625,-0.3876953125
998,4.619,IMU0,6.036585365853659,3.9024390243902443,-36.524390243902445,0.0380859375,-0.0068359375,-0.388671875
999,4.619,IMU1,8.292682926829269,4.75609756097561,-41.09756097560976,0.017578125,-0.013671875,-0.3984375
1000,4.629,IMU0,5.365853658536586,3.963414634146342,-37.6829268292683,0.029296875,-0.017578125,-0.4111328125
1001,4.629,IMU1,6.890243902439025,5.121951219512195,-39.87804878048781,0.021484375,-0.021484375,-0.4208984375
1002,4.639,IMU0,4.329268292682928,3.414634146341464,-37.01219512195122,0.0224609375,0.0078125,-0.4248046875
1003,4.639,IMU1,5.731707317073171,4.939024390243903,-37.743902439024396,0.005859375,0.0087890625,-0.4326171875
1004,4.649,IMU0,4.939024390243903,3.658536585365854,-35.1829268292683,0.013671875,0.04296875,-0.4384765625
1005,4.649,IMU1,6.7682926829268295,5.060975609756098,-36.03658536585366,0.0048828125,0.0302734375,-0.4482421875
1006,4.659,IMU0,5.731707317073171,3.9024390243902443,-34.81707317073171,0.0146484375,0.02734375,-0.455078125
1007,4.659,IMU1,8.292682926829269,5.0,-35.91463414634147,-0.0029296875,0.017578125,-0.4658203125
1008,4.669,IMU0,5.121951219512195,4.2682926829268295,-33.84146341463415,0.017578125,0.001953125,-0.46484375
1009,4.669,IMU1,8.658536585365855,5.365853658536586,-34.146341463414636,-0.00390625,-0.0009765625,-0.4755859375
1010,4.679,IMU0,4.573170731707317,4.146341463414634,-32.743902439024396,0.0263671875,0.0029296875,-0.47265625
1011,4.679,IMU1,8.475609756097562,5.182926829268293,-31.951219512195124,0.005859375,0.0146484375,-0.482421875
1012,4.689,IMU0,5.060975609756098,4.390243902439025,-30.243902439024392,0.0224609375,0.0244140625,-0.478515625
1013,4.689,IMU1,8.170731707317074,5.182926829268293,-28.475609756097562,0.01953125,0.0400390625,-0.48828125
1014,4.699,IMU0,5.914634146341464,4.75609756097561,-26.52439024390244,0.015625,0.0302734375,-0.482421875
1015,4.699,IMU1,8.78048780487805,5.426829268292684,-25.30487804878049,0.0087890625,0.041015625,-0.4892578125
1016,4.709,IMU0,6.036585365853659,4.634146341463415,-23.53658536585366,0.03125,0.0068359375,-0.490234375
1017,4.709,IMU1,8.170731707317074,4.817073170731708,-22.865853658536587,-0.0009765625,0.021484375,-0.4951171875
1018,4.719,IMU0,5.3048780487804885,4.939024390243903,-22.195121951219512,0.0361328125,-0.00390625,-0.505859375
1019,4.719,IMU1,6.52439024390244,5.2439024390243905,-21.951219512195124,0.0087890625,0.001953125,-0.5107421875
1020,4.729,IMU0,4.573170731707317,4.207317073170732,-21.585365853658537,0.03125,0.0078125,-0.5263671875
1021,4.729,IMU1,5.914634146341464,4.878048780487806,-21.646341463414636,0.0185546875,0.009765625,-0.53125
1022,4.739,IMU0,5.609756097560976,4.390243902439025,-21.34146341463415,0.029296875,0.0078125,-0.5615234375
1023,4.739,IMU1,6.707317073170732,5.3048780487804885,-21.707317073170735,0.013671875,0.0068359375,-0.564453125
1024,4.749,IMU0,5.3048780487804885,3.353658536585366,-20.79268292682927,0.03515625,0.0,-0.5869140625
1025,4.749,IMU1,6.829268292682928,4.878048780487806,-22.378048780487806,0.021484375,0.0009765625,-0.591796875
1026,4.759,IMU0,4.024390243902439,3.4756097560975614,-20.853658536585368,0.0322265625,-0.0029296875,-0.6123046875
1027,4.759,IMU1,5.0,3.963414634146342,-23.78048780487805,0.0146484375,-0.001953125,-0.6171875
1028,4.769,IMU0,3.2926829268292686,2.7439024390243905,-19.81707317073171,0.033203125,0.021484375,-0.6669921875
1029,4.769,IMU1,3.963414634146342,3.231707317073171,-24.085365853658537,0.0107421875,0.0166015625,-0.671875
1030,4.779,IMU0,3.658536585365854,3.9024390243902443,-19.207317073170735,0.0380859375,0.0517578125,-0.736328125
1031,4.779,IMU1,3.9024390243902443,3.1707317073170733,-23.84146341463415,0.01171875,0.0400390625,-0.740234375
1032,4.789,IMU0,5.426829268292684,5.060975609756098,-18.597560975609756,0.04296875,0.046875,-0.7998046875
1033,4.789,IMU1,6.158536585365854,3.780487804878049,-22.439024390243905,0.0244140625,0.0322265625,-0.8056640625
1034,4.799,IMU0,5.853658536585367,4.878048780487806,-19.634146341463417,0.0458984375,0.01953125,-0.8603515625
1035,4.799,IMU1,7.195121951219513,4.75609756097561,-21.402439024390247,0.03125,0.00390625,-0.8701171875
1036,4.809,IMU0,4.939024390243903,4.878048780487806,-21.585365853658537,0.05078125,0.0009765625,-0.8994140625
1037,4.809,IMU1,6.890243902439025,6.097560975609756,-22.073170731707318,0.0361328125,-0.0009765625,-0.9140625
1038,4.819,IMU0,4.085365853658537,3.7195121951219514,-21.951219512195124,0.048828125,0.0166015625,-0.9267578125
1039,4.819,IMU1,6.097560975609756,5.365853658536586,-23.170731707317074,0.0341796875,0.01171875,-0.94140625
1040,4.829,IMU0,3.8414634146341466,3.2926829268292686,-21.158536585365855,0.0478515625,0.0224609375,-0.9423828125
1041,4.829,IMU1,6.646341463414635,4.51219512195122,-23.59756097560976,0.0322265625,0.0166015625,-0.9541015625
1042,4.839,IMU0,4.146341463414634,3.353658536585366,-20.426829268292686,0.0361328125,0.013671875,-0.9443359375
1043,4.839,IMU1,4.939024390243903,3.536585365853659,-23.53658536585366,0.02734375,0.0029296875,-0.953125
1044,4.849,IMU0,3.963414634146342,4.695121951219512,-20.121951219512198,0.03125,0.001953125,-0.953125
1045,4.849,IMU1,4.817073170731708,4.634146341463415,-22.439024390243905,0.0205078125,-0.0068359375,-0.9580078125
1046,4.859,IMU0,4.329268292682928,4.817073170731708,-20.243902439024392,0.044921875,-0.0009765625,-0.9541015625
1047,4.859,IMU1,4.329268292682928,4.878048780487806,-22.073170731707318,0.0263671875,0.001953125,-0.9541015625
1048,4.869,IMU0,4.878048780487806,4.878048780487806,-21.463414634146343,0.052734375,0.0146484375,-0.94921875
1049,4.869,IMU1,6.463414634146342,5.7926829268292686,-21.76829268292683,0.03515625,0.0078125,-0.95703125
1050,4.879,IMU0,5.2439024390243905,4.207317073170732,-22.134146341463417,0.0546875,0.01953125,-0.9423828125
1051,4.879,IMU1,6.707317073170732,5.426829268292684,-23.902439024390247,0.0458984375,0.0078125,-0.9501953125
1052,4.889,IMU0,4.451219512195122,4.085365853658537,-22.80487804878049,0.060546875,0.0087890625,-0.9267578125
1053,4.889,IMU1,6.158536585365854,4.634146341463415,-24.939024390243905,0.0439453125,-0.0078125,-0.931640625
1054,4.899,IMU0,3.9024390243902443,4.878048780487806,-21.646341463414636,0.0576171875,-0.0009765625,-0.9140625
1055,4.899,IMU1,4.451219512195122,3.8414634146341466,-26.09756097560976,0.046875,-0.015625,-0.9208984375
1056,4.909,IMU0,3.963414634146342,6.158536585365854,-21.34146341463415,0.0595703125,0.0126953125,-0.90625
1057,4.909,IMU1,4.329268292682928,5.182926829268293,-24.939024390243905,0.048828125,0.001953125,-0.916015625
1058,4.919,IMU0,5.182926829268293,5.670731707317073,-21.219512195121954,0.0693359375,0.0244140625,-0.9013671875
1059,4.919,IMU1,7.01219512195122,6.2804878048780495,-23.59756097560976,0.05078125,0.021484375,-0.9111328125
1060,4.929,IMU0,5.365853658536586,5.609756097560976,-22.378048780487806,0.064453125,0.009765625,-0.8955078125
1061,4.929,IMU1,7.134146341463415,5.609756097560976,-24.085365853658537,0.0439453125,0.0009765625,-0.896484375
1062,4.939,IMU0,3.658536585365854,4.695121951219512,-22.865853658536587,0.0478515625,-0.0029296875,-0.8916015625
1063,4.939,IMU1,5.121951219512195,4.329268292682928,-25.54878048780488,0.03125,-0.0166015625,-0.8916015625
1064,4.949,IMU0,3.2926829268292686,5.0,-24.02439024390244,0.0419921875,0.009765625,-0.8701171875
1065,4.949,IMU1,3.8414634146341466,4.878048780487806,-26.951219512195124,0.0224609375,-0.001953125,-0.873046875
1066,4.959,IMU0,4.024390243902439,4.817073170731708,-26.158536585365855,0.0478515625,0.0107421875,-0.841796875
1067,4.959,IMU1,4.51219512195122,4.939024390243903,-28.292682926829272,0.01953125,0.0029296875,-0.845703125
1068,4.969,IMU0,3.4756097560975614,4.75609756097561,-26.89024390243903,0.0546875,-0.001953125,-0.818359375
1069,4.969,IMU1,4.024390243902439,5.2439024390243905,-29.207317073170735,0.025390625,-0.0068359375,-0.8232421875
1070,4.979,IMU0,2.3170731707317076,4.51219512195122,-26.707317073170735,0.0634765625,0.0029296875,-0.798828125
1071,4.979,IMU1,4.2682926829268295,5.121951219512195,-28.04878048780488,0.04296875,0.001953125,-0.806640625
1072,4.989,IMU0,2.7439024390243905,4.329268292682928,-26.52439024390244,0.0556640625,0.0263671875,-0.771484375
1073,4.989,IMU1,4.695121951219512,5.182926829268293,-28.10975609756098,0.044921875,0.017578125,-0.783203125
1074,4.999,IMU0,4.329268292682928,5.3048780487804885,-26.463414634146343,0.0576171875,0.0498046875,-0.7294921875
1075,4.999,IMU1,6.585365853658537,6.036585365853659,-28.84146341463415,0.041015625,0.033203125,-0.7421875
1076,5.009,IMU0,5.2439024390243905,5.487804878048781,-26.58536585365854,0.0546875,0.037109375,-0.68359375
1077,5.009,IMU1,6.2804878048780495,6.219512195121951,-30.000000000000004,0.0263671875,0.0234375,-0.693359375
1078,5.019,IMU0,4.451219512195122,6.219512195121951,-28.59756097560976,0.0576171875,0.021484375,-0.634765625
1079,5.019,IMU1,6.52439024390244,6.219512195121951,-31.76829268292683,0.03125,0.013671875,-0.6435546875
1080,5.029,IMU0,4.085365853658537,5.0,-30.54878048780488,0.0419921875,0.02734375,-0.5849609375
1081,5.029,IMU1,5.609756097560976,5.0,-32.987804878048784,0.0234375,0.013671875,-0.5927734375
1082,5.039,IMU0,3.5975609756097566,4.390243902439025,-30.975609756097565,0.0380859375,0.02734375,-0.53125
1083,5.039,IMU1,4.939024390243903,4.817073170731708,-33.47560975609756,0.015625,0.01953125,-0.5380859375
1084,5.049,IMU0,3.5975609756097566,4.634146341463415,-31.82926829268293,0.033203125,0.021484375,-0.474609375
1085,5.049,IMU1,5.853658536585367,5.7926829268292686,-33.170731707317074,0.0205078125,0.013671875,-0.486328125
1086,5.059,IMU0,3.658536585365854,5.0,-31.951219512195124,0.0400390625,0.0244140625,-0.4345703125
1087,5.059,IMU1,6.097560975609756,5.731707317073171,-32.6829268292683,0.0263671875,0.0185546875,-0.4453125
1088,5.069,IMU0,3.048780487804878,5.2439024390243905,-31.646341463414636,0.044921875,0.0390625,-0.40234375
1089,5.069,IMU1,5.609756097560976,5.975609756097562,-32.5609756097561,0.0224609375,0.03515625,-0.41015625
1090,5.079,IMU0,4.2682926829268295,5.548780487804878,-31.280487804878053,0.044921875,0.046875,-0.357421875
1091,5.079,IMU1,6.890243902439025,6.341463414634147,-32.5609756097561,0.0283203125,0.04296875,-0.3681640625
1092,5.089,IMU0,5.121951219512195,6.2804878048780495,-31.58536585365854,0.0419921875,0.03515625,-0.3173828125
1093,5.089,IMU1,6.463414634146342,6.463414634146342,-34.024390243902445,0.025390625,0.0263671875,-0.322265625
1094,5.099,IMU0,4.573170731707317,6.341463414634147,-31.646341463414636,0.048828125,0.0205078125,-0.2724609375
1095,5.099,IMU1,5.2439024390243905,5.670731707317073,-34.75609756097561,0.0185546875,0.0166015625,-0.2724609375
1096,5.109,IMU0,4.207317073170732,5.609756097560976,-33.35365853658537,0.041015625,0.0234375,-0.232421875
1097,5.109,IMU1,4.634146341463415,5.3048780487804885,-36.646341463414636,0.0146484375,0.017578125,-0.234375
1098,5.119,IMU0,3.963414634146342,5.365853658536586,-35.0609756097561,0.0341796875,0.0126953125,-0.189453125
1099,5.119,IMU1,4.329268292682928,5.487804878048781,-37.743902439024396,0.0029296875,0.0078125,-0.1904296875
1100,5.129,IMU0,2.3170731707317076,5.3048780487804885,-35.670731707317074,0.03515625,0.015625,-0.150390625
1101,5.129,IMU1,2.8658536585365857,5.121951219512195,-37.987804878048784,0.0068359375,0.01171875,-0.15234375
1102,5.139,IMU0,1.9512195121951221,4.817073170731708,-36.03658536585366,0.025390625,0.0419921875,-0.126953125
1103,5.139,IMU1,3.1097560975609757,4.390243902439025,-37.86585365853659,0.013671875,0.037109375,-0.1328125
1104,5.149,IMU0,2.5,4.451219512195122,-35.487804878048784,0.02734375,0.056640625,-0.11328125
1105,5.149,IMU1,3.414634146341464,4.817073170731708,-36.524390243902445,0.0146484375,0.0546875,-0.1181640625
1106,5.159,IMU0,2.7439024390243905,5.121951219512195,-35.0,0.03515625,0.0498046875,-0.0986328125
1107,5.159,IMU1,3.963414634146342,6.036585365853659,-36.707317073170735,0.0244140625,0.05078125,-0.1064453125
1108,5.169,IMU0,3.5975609756097566,5.670731707317073,-34.268292682926834,0.03515625,0.0439453125,-0.0966796875
1109,5.169,IMU1,5.853658536585367,5.853658536585367,-36.463414634146346,0.0146484375,0.04296875,-0.1015625
1110,5.179,IMU0,3.2926829268292686,5.487804878048781,-34.32926829268293,0.0283203125,0.046875,-0.0888671875
1111,5.179,IMU1,3.658536585365854,5.060975609756098,-37.5609756097561,0.0146484375,0.0361328125,-0.0927734375
1112,5.189,IMU0,2.439024390243903,4.329268292682928,-34.87804878048781,0.029296875,0.0390625,-0.083984375
1113,5.189,IMU1,2.9268292682926833,4.207317073170732,-38.41463414634147,0.0107421875,0.03515625,-0.08984375
1114,5.199,IMU0,1.9512195121951221,4.146341463414634,-36.03658536585366,0.037109375,0.029296875,-0.083984375
1115,5.199,IMU1,3.414634146341464,4.75609756097561,-38.65853658536586,0.0107421875,0.025390625,-0.095703125
