,ts,Ax,Ay,Az
0,17386,0,-1,0
1,17396,0,-1,0
2,17406,0,-1,0
3,17416,0,-1,0
4,17426,0,-1,0
5,17436,-1,-1,0
6,17446,0,-1,0
7,17456,0,-1,0
8,17466,0,-1,0
9,17476,-1,-1,0
10,17486,-1,-1,0
11,17496,0,-1,0
12,17506,0,-1,0
13,17516,-1,-1,0
14,17526,0,-1,0
15,17536,-1,-1,0
16,17546,0,-1,0
17,17556,0,-1,0
18,17566,0,-1,0
19,17576,-1,-1,0
20,17586,-1,-1,0
21,17596,-1,-1,0
22,17606,0,-1,0
23,17616,0,-1,0
24,17626,-1,-1,0
25,17636,0,-1,0
26,17646,-1,-1,0
27,17656,-1,-1,0
28,17666,-1,-2,0
29,17676,-1,-1,0
30,17686,1,-1,0
31,17696,1,-1,0
32,17706,0,-1,0
33,17716,-1,0,0
34,17726,-1,-1,0
35,17736,-2,-1,0
36,17746,0,-1,0
37,17756,-1,-1,0
38,17766,0,-1,0
39,17776,0,-1,0
40,17786,0,0,0
41,17796,0,-1,0
42,17806,-1,-1,0
43,17816,-1,-1,0
44,17826,-1,-1,0
45,17836,-1,-1,0
46,17846,-1,-1,0
47,17856,0,-1,0
48,17866,-1,-1,0
49,17876,-1,-1,0
50,17886,-1,-1,0
51,17896,-1,-1,0
52,17906,-1,-1,0
53,17916,0,-1,0
54,17926,-1,-1,0
55,17936,-1,-1,0
56,17946,0,-1,0
57,17956,-1,-1,0
58,17966,-1,-1,0
59,17976,0,-1,0
60,17986,0,-1,0
61,17996,0,-1,0
62,18006,-1,-1,0
63,18016,-1,-1,0
64,18026,-1,-1,0
65,18036,0,-1,0
66,18046,-1,-1,0
67,18056,0,-1,0
68,18066,0,-1,0
69,18076,0,-1,0
70,18086,-1,-1,0
71,18096,0,-1,0
72,18106,0,-1,0
73,18116,0,-1,0
74,18126,0,0,0
75,18136,0,-1,0
76,18146,0,-1,0
77,18156,0,-1,0
78,18166,0,-1,0
79,18176,-1,-1,0
80,18186,0,-1,0
81,18196,0,-1,0
82,18206,-1,-1,0
83,18216,-1,-1,0
84,18226,-1,-1,0
85,18236,0,-1,0
86,18246,0,-1,0
87,18256,0,-1,0
88,18266,-1,-1,0
89,18276,-1,-1,0
90,18286,0,-1,0
91,18296,-1,-1,0
92,18306,-1,-1,0
93,18316,-1,-1,0
94,18326,-1,-2,0
95,18336,-1,-1,0
96,18346,-1,-1,0
97,18356,0,-1,0
98,18366,0,-1,0
99,18376,-1,-2,0
100,18386,0,-1,0
101,18396,0,-1,0
102,18406,0,0,0
103,18416,0,-1,0
104,18426,-1,-1,0
105,18436,-1,-1,0
106,18446,-1,-1,0
107,18456,0,-1,0
108,18466,-1,-1,0
109,18476,-1,-1,0
110,18486,-1,-1,0
111,18496,0,-1,0
112,18506,0,-1,0
113,18516,-1,-1,0
114,18526,-1,-1,0
115,18536,0,-1,0
116,18546,0,-1,0
117,18556,0,-1,0
118,18566,0,-1,0
119,18576,0,-1,0
120,18586,-1,-1,0
121,18596,0,-1,0
122,18606,-1,-1,0
123,18616,-1,-1,0
124,18626,0,-1,0
125,18636,0,-1,0
126,18646,-1,-1,0
127,18656,0,-1,0
128,18666,0,-1,0
129,18676,-1,-1,0
130,18686,0,0,0
131,18696,0,-1,0
132,18706,-1,-1,0
133,18716,0,-1,0
134,18726,0,-1,0
135,18736,0,-1,0
136,18746,0,-1,0
137,18756,-1,-1,0
138,18766,-1,-1,0
139,18776,0,-1,0
140,18786,0,-2,0
141,18796,0,-1,0
142,18806,0,-2,0
143,18816,-1,-1,0
144,18826,0,-1,0
145,18836,0,-1,0
146,18846,0,-1,0
147,18856,0,-1,0
148,18866,-1,-1,0
149,18876,0,-1,0
150,18886,0,-1,0
151,18896,0,-1,0
152,18906,-1,-1,0
153,18916,-1,-1,0
154,18926,-1,-1,0
155,18936,0,-2,0
156,18946,0,0,0
157,18956,0,-1,0
158,18966,0,-1,0
159,18976,-1,-1,0
160,18986,0,-1,0
161,18996,-1,-2,0
162,19006,0,-1,0
163,19016,0,-1,0
164,19026,-1,-1,0
165,19036,0,-1,0
166,19046,0,-1,0
167,19056,0,-1,0
168,19066,-1,-1,0
169,19076,0,-1,0
170,19086,0,-2,0
171,19096,-1,-1,0
172,19106,0,-1,0
173,19116,0,-1,0
174,19126,0,-1,0
175,19136,-1,-1,0
176,19146,0,-1,0
177,19156,0,-1,0
178,19166,0,-1,0
179,19176,0,-1,0
180,19186,0,-1,0
181,19196,0,-1,0
182,19206,-1,-1,0
183,19216,0,-1,0
184,19226,0,-2,0
185,19236,0,-1,0
186,19246,0,-1,0
187,19256,-1,-1,0
188,19266,0,-1,0
189,19276,-1,-1,0
190,19286,0,-1,0
191,19296,-1,-2,0
192,19306,0,-1,0
193,19316,-1,-1,0
194,19326,0,-1,0
195,19336,-1,-1,0
196,19346,0,0,0
197,19356,0,-1,0
198,19366,0,-1,0
199,19376,-1,-1,0
200,19386,0,-1,0
201,19396,0,-1,0
202,19406,0,-1,0
203,19416,0,-2,0
204,19426,0,-1,0
205,19436,-1,-1,0
206,19446,-1,-1,0
207,19456,0,-1,0
208,19466,0,-1,0
209,19476,0,-1,0
210,19486,-1,-2,0
211,19496,0,-1,0
212,19506,-1,-1,0
213,19516,0,-1,0
214,19526,0,-2,0
215,19536,0,-1,0
216,19546,0,-2,0
217,19556,-1,-1,0
218,19566,0,-1,0
219,19576,-1,-1,0
220,19586,0,-1,0
221,19596,-1,-1,0
222,19606,0,-1,0
223,19616,-1,-2,0
224,19626,0,0,0
225,19636,-1,-1,0
226,19646,0,-1,0
227,19656,0,-1,0
228,19666,-1,-1,0
229,19676,0,-1,0
230,19686,0,-1,0
231,19696,0,-1,0
232,19706,0,-1,0
233,19716,0,-1,0
234,19726,-1,-1,0
235,19736,0,-1,0
236,19746,0,-2,0
237,19756,-1,-1,0
238,19766,0,-1,0
239,19776,-1,-1,0
240,19786,0,-1,0
241,19796,0,-2,0
242,19806,0,-1,0
243,19816,-1,-2,0
244,19826,-1,-1,0
245,19836,0,-1,0
246,19846,-1,-1,0
247,19856,0,-1,0
248,19866,-1,-1,0
249,19876,0,-1,0
250,19886,-1,-2,0
251,19896,0,-1,0
252,19906,-1,-1,0
253,19916,0,-1,0
254,19926,-1,-2,0
255,19936,0,-1,0
256,19946,0,-2,0
257,19956,0,-1,0
258,19966,-1,-2,0
259,19976,-1,-1,0
260,19986,-1,-1,0
261,19996,0,0,0
262,20006,0,-2,0
263,20016,0,-1,0
264,20026,0,-2,0
265,20036,0,-1,0
266,20046,0,-1,0
267,20056,0,0,0
268,20066,-1,-2,0
269,20076,0,0,0
270,20086,-1,-2,0
271,20096,0,-1,0
272,20106,-1,-1,0
273,20116,0,-1,0
274,20126,-1,-2,0
275,20136,0,-1,0
276,20146,0,-2,0
277,20156,-1,0,0
278,20166,-1,-2,0
279,20176,-1,-1,0
280,20186,0,-1,0
281,20196,-1,-1,0
282,20206,0,-1,0
283,20216,-1,-1,0
284,20226,-1,-1,0
285,20236,0,-1,0
286,20246,-1,-2,0
287,20256,0,-1,0
288,20266,0,-2,0
289,20276,0,-1,0
290,20286,0,-2,0
291,20296,0,-1,0
292,20306,-1,-1,0
293,20316,0,-1,0
294,20326,-1,-1,0
295,20336,0,-2,0
296,20346,0,0,0
297,20356,0,-2,0
298,20366,0,0,0
299,20376,-1,-1,0
300,20386,0,-1,0
301,20396,-1,-1,0
302,20406,0,-1,0
303,20416,0,-1,0
304,20426,0,-1,0
305,20436,0,-1,0
306,20446,-1,-1,0
307,20456,0,-1,0
308,20466,-1,-2,0
309,20476,0,-1,0
310,20486,-1,-1,0
311,20496,0,0,0
312,20506,0,-1,0
313,20516,0,-1,0
314,20526,0,-1,0
315,20536,0,-1,0
316,20546,0,-1,0
317,20556,0,-1,0
318,20566,0,-1,0
319,20576,0,-1,0
320,20586,0,-1,0
321,20596,0,-1,0
322,20606,0,-2,0
323,20616,0,-1,0
324,20626,0,-1,0
325,20636,0,0,0
326,20646,0,-1,0
327,20656,0,-1,0
328,20666,0,-1,0
329,20676,0,-1,0
330,20686,0,-1,0
331,20696,0,0,0
332,20706,0,-1,0
333,20716,0,-1,0
334,20726,-1,-2,0
335,20736,0,0,0
336,20746,-1,-2,0
337,20756,0,-1,0
338,20766,0,-1,0
339,20776,0,-2,0
340,20786,0,-1,0
341,20796,-1,-2,0
342,20806,0,-1,0
343,20816,0,-1,0
344,20826,0,-1,0
345,20836,0,-1,0
346,20846,-1,-1,0
347,20856,0,-1,0
348,20866,-1,-1,0
349,20876,0,-1,0
350,20886,-1,0,0
351,20896,0,-2,0
352,20906,0,-1,0
353,20916,-1,-1,0
354,20926,0,-1,0
355,20936,-1,-1,0
356,20946,0,-1,0
357,20956,-1,0,0
358,20966,-1,-2,0
359,20976,-1,-1,0
360,20986,-1,-1,0
361,20996,0,-1,0
362,21006,0,-1,0
363,21016,0,-1,0
364,21026,0,-1,0
365,21036,0,-1,0
366,21046,-1,-2,0
367,21056,0,-1,0
368,21066,0,-1,0
369,21076,0,-1,0
370,21086,0,-1,0
371,21096,0,-1,0
372,21106,0,-1,0
373,21116,0,-2,0
374,21126,0,-1,0
375,21136,0,-1,0
376,21146,0,-1,0
377,21156,-1,-1,0
378,21166,0,-1,0
379,21176,-1,-1,0
380,21186,0,-2,0
381,21196,0,-1,0
382,21206,0,-2,0
383,21216,0,-1,0
384,21226,0,-2,0
385,21236,0,-1,0
386,21246,0,-1,0
387,21256,-1,-1,0
388,21266,-1,-1,0
389,21276,0,-1,0
390,21286,0,-1,0
391,21296,-1,-1,0
392,21306,0,0,0
393,21316,0,-2,0
394,21326,0,-1,0
395,21336,-1,-1,0
396,21346,0,-1,0
397,21356,0,-1,0
398,21366,0,-2,0
399,21376,0,-1,0
400,21386,-1,-2,0
401,21396,-1,-1,0
402,21406,-1,-2,0
403,21416,0,-1,0
404,21426,0,-1,0
405,21436,0,-1,0
406,21446,0,-1,0
407,21456,-1,-1,0
408,21466,0,-1,0
409,21476,0,-1,0
410,21486,0,-1,0
411,21496,0,-2,0
412,21506,0,-1,0
413,21516,-1,-1,0
414,21526,0,-1,0
415,21536,0,-1,0
416,21546,-1,-1,0
417,21556,0,-1,0
418,21566,0,-1,0
419,21576,-1,-1,0
420,21586,0,-1,0
421,21596,-1,-1,0
422,21606,0,-1,0
423,21616,0,-2,0
424,21626,0,-1,0
425,21636,0,-1,0
426,21646,0,-1,0
427,21656,0,-1,0
428,21666,-1,-1,0
429,21676,-1,-1,0
430,21686,0,-1,0
431,21696,0,-1,0
432,21706,0,-1,0
433,21716,0,-1,0
434,21726,-1,-1,0
435,21736,0,-1,0
436,21746,0,-1,0
437,21756,0,-1,0
438,21766,0,-1,0
439,21776,0,-1,0
440,21786,-1,-1,0
441,21796,-1,-1,0
442,21806,-1,-2,0
443,21816,-1,-1,0
444,21826,0,-1,0
445,21836,0,-1,0
446,21846,-1,-1,0
447,21856,-1,-2,0
448,21866,-1,-1,0
449,21876,0,-1,0
450,21886,0,-1,0
451,21896,-1,-1,0
452,21906,-1,-1,0
453,21916,-1,-1,0
454,21926,0,-1,0
455,21936,0,-1,0
456,21946,0,-1,0
457,21956,0,-1,0
458,21966,0,-2,0
459,21976,0,-1,0
460,21986,0,-1,0
461,21996,0,-1,0
462,22006,-1,-1,0
463,22016,0,-1,0
464,22026,0,-1,0
465,22036,0,-1,0
466,22046,0,-1,0
467,22056,0,-1,0
468,22066,-1,-1,0
469,22076,-1,-1,0
470,22086,0,-1,0
471,22096,0,-1,0
472,22106,-1,-1,0
473,22116,-1,-1,0
474,22126,-1,-1,0
475,22136,-1,-1,0
476,22146,0,-1,0
477,22156,0,-1,0
478,22166,0,-2,0
479,22176,-1,-1,0
480,22186,-1,-1,0
481,22196,-1,-1,0
482,22206,0,-1,0
483,22216,-1,-1,0
484,22226,0,-1,0
485,22236,0,-1,0
486,22246,0,-1,0
487,22256,-1,-1,0
488,22266,-1,-1,0
489,22276,0,-1,0
490,22286,0,-1,0
491,22296,0,-1,0
492,22306,0,-1,0
493,22316,0,-1,0
494,22326,0,-1,0
495,22336,-1,-1,0
496,22346,-1,-1,0
497,22356,-1,-1,0
498,22366,0,-1,0
499,22376,0,-1,0
500,22386,0,-1,0
501,22396,0,-1,0
502,22406,0,0,0
503,22416,0,-1,0
504,22426,-1,-1,0
505,22436,-1,-1,0
506,22446,0,-1,0
507,22456,0,-1,0
508,22466,-1,-1,0
509,22476,0,-1,0
510,22486,0,-1,0
511,22496,0,-1,0
512,22506,-1,-1,0
513,22516,0,-1,0
514,22526,0,-1,0
515,22536,0,-1,0
516,22546,0,-1,0
517,22556,0,0,0
518,22566,-1,-1,0
519,22576,-1,-1,0
520,22586,0,-1,0
521,22596,0,-1,0
522,22606,0,-1,0
523,22616,0,-1,0
524,22626,0,-1,0
525,22636,0,-1,0
526,22646,0,-2,0
527,22656,0,-1,0
528,22666,-1,-1,0
529,22676,-1,-1,0
530,22686,-1,-1,0
531,22696,0,-1,0
532,22706,0,-1,0
533,22716,0,-1,0
534,22726,0,-1,0
535,22736,0,-1,0
536,22746,0,-1,0
537,22756,0,-1,0
538,22766,-1,-1,0
539,22776,-1,-1,0
540,22786,-1,-1,0
541,22796,-1,-1,0
542,22806,-1,-1,0
543,22816,0,-1,0
544,22826,0,-1,0
545,22836,0,-1,0
546,22846,0,-1,0
547,22856,-1,-1,0
548,22866,0,-1,0
549,22876,0,-1,0
550,22886,-1,-1,0
551,22896,-1,-1,0
552,22906,0,-1,0
553,22916,-1,-1,0
554,22926,-1,-1,0
555,22936,0,-1,0
556,22946,0,-1,0
557,22956,0,-1,0
558,22966,0,-1,0
559,22976,0,-1,0
560,22986,0,-1,0
561,22996,0,-1,0
562,23006,-1,-1,0
563,23016,-1,-1,0
564,23026,-1,-1,0
565,23036,0,-1,0
566,23046,-1,-1,0
567,23056,-1,-1,0
568,23066,0,-1,0
569,23076,-1,-1,0
570,23086,-1,-1,0
571,23096,-1,-1,0
572,23106,0,-2,0
573,23116,0,-2,0
574,23126,0,-1,0
575,23136,0,-1,0
576,23146,0,-1,0
577,23156,0,-1,0
578,23166,0,-1,0
579,23176,0,-1,0
580,23186,0,-1,0
581,23196,0,-1,0
582,23206,0,-1,0
583,23216,0,-1,0
584,23226,-1,-1,0
585,23236,-1,-1,0
586,23246,-1,-1,0
587,23256,-1,-1,0
588,23266,-1,-1,0
589,23276,-1,-1,0
590,23286,-1,-1,0
591,23296,-1,-1,0
592,23306,-1,-1,0
593,23316,-1,-2,0
594,23326,-1,-1,0
595,23336,0,-1,0
596,23346,0,-1,0
597,23356,0,-1,0
598,23366,0,-1,0
599,23376,0,-1,0
600,23386,0,-1,0
601,23396,-1,-1,0
602,23406,0,-1,0
603,23416,0,-1,0
604,23426,0,-1,0
605,23436,0,-1,0
606,23446,0,-1,0
607,23456,0,-1,0
608,23466,0,-1,0
609,23476,0,-1,0
610,23486,0,-1,0
611,23496,-1,-1,0
612,23506,-1,-1,0
613,23516,-1,-1,0
614,23526,-1,-1,0
615,23536,-1,-1,0
616,23546,-1,-1,0
617,23556,0,-1,0
618,23566,-1,-1,0
619,23576,0,-1,0
620,23586,0,-1,0
621,23596,0,-1,0
622,23606,0,-1,0
623,23616,0,-1,0
624,23626,0,-1,0
625,23636,0,-1,0
626,23646,0,-1,0
627,23656,-1,-1,0
628,23666,-1,-1,0
629,23676,-1,-1,0
630,23686,-1,-1,0
631,23696,-1,-1,0
632,23706,-1,-1,0
633,23716,-1,-1,0
634,23726,-1,-2,0
635,23736,-1,-2,0
636,23746,-1,-1,0
637,23756,-1,-1,0
638,23766,0,-1,0
639,23776,-1,-1,0
640,23786,-1,-1,0
641,23796,0,-1,0
642,23806,0,-1,0
643,23816,0,-1,0
644,23826,0,-1,0
645,23836,-1,-1,0
646,23846,-1,-1,0
647,23856,-1,-1,0
648,23866,-1,-1,0
649,23876,-1,-1,0
650,23886,-1,-1,0
651,23896,0,-1,0
652,23906,0,-1,0
653,23916,0,-1,0
654,23926,-1,-1,0
655,23936,-1,-1,0
656,23946,-1,-1,0
657,23956,-1,-1,0
658,23966,0,-1,0
659,23976,-1,-1,0
660,23986,-1,-1,0
661,23996,0,-1,0
662,24006,0,-1,0
663,24016,-1,-1,0
664,24026,-1,-1,0
665,24036,-1,-1,0
666,24046,-1,-1,0
667,24056,0,-1,0
668,24066,-1,-1,0
669,24076,-1,-1,0
670,24086,0,-1,0
671,24096,0,-1,0
672,24106,0,-1,0
673,24116,0,-1,0
674,24126,-1,-1,0
675,24136,-1,-1,0
676,24146,-1,-1,0
677,24156,0,-1,0
678,24166,-1,-1,0
679,24176,-1,-1,0
680,24186,-1,-1,0
681,24196,-1,-1,0
682,24206,-1,-1,0
683,24216,-1,-1,0
684,24226,0,-1,0
685,24236,-1,-1,0
686,24246,-1,-1,0
687,24256,-1,-1,0
688,24266,-1,-1,0
689,24276,-1,-2,0
690,24286,-1,-1,0
691,24296,-1,-1,0
692,24306,-1,-1,0
693,24316,-1,-1,0
694,24326,-1,-1,0
695,24336,-1,-1,0
696,24346,-1,-2,0
697,24356,-1,-2,0
698,24366,-1,-1,0
699,24376,-1,-1,0
700,24386,-1,-1,0
701,24396,-1,-1,0
702,24406,-1,-1,0
703,24416,-1,-1,0
704,24426,-1,-2,0
705,24436,-1,-2,0
706,24446,-1,-1,0
707,24456,-1,-1,0
708,24466,-1,-1,0
709,24476,0,-1,0
710,24486,-1,-1,0
711,24496,-1,-1,0
712,24506,-1,-1,0
713,24516,-1,-1,0
714,24526,-1,-1,0
715,24536,-1,-1,0
716,24546,0,-1,0
717,24556,-1,-1,0
718,24566,-1,-1,0
719,24576,-1,-2,0
720,24586,-1,-1,0
721,24596,-1,-1,0
722,24606,0,-1,0
723,24616,0,-1,0
724,24626,0,-1,0
725,24636,-1,-1,0
726,24646,-1,-1,0
727,24656,-1,-1,0
728,24666,-1,-1,0
729,24676,0,-2,0
730,24686,-1,-2,0
731,24696,0,-1,0
732,24706,-1,-1,0
733,24716,-1,-1,0
734,24726,-1,-1,0
735,24736,0,-1,0
736,24746,0,-1,0
737,24756,0,-1,0
738,24766,0,-1,0
739,24776,-1,-1,0
740,24786,0,-1,0
741,24796,0,-1,0
742,24806,0,-1,0
743,24816,-1,-2,0
744,24826,-1,-2,0
745,24836,-1,-1,0
746,24846,-1,-1,0
747,24856,0,-1,0
748,24866,0,-1,0
749,24876,0,-1,0
750,24886,0,-1,0
751,24896,0,-1,0
752,24906,0,-1,0
753,24916,-1,-1,0
754,24926,-1,-1,0
755,24936,-1,-1,0
756,24946,-1,-1,0
757,24956,-1,-1,0
758,24966,-1,-1,0
759,24976,-1,-2,0
760,24986,-1,-1,0
761,24996,0,-1,0
762,25006,0,-1,0
763,25016,0,-1,0
764,25026,0,-1,0
765,25036,0,-1,0
766,25046,0,-1,0
767,25056,0,-1,0
768,25066,0,-1,0
769,25076,-1,-1,0
770,25086,-1,-1,0
771,25096,-1,-1,0
772,25106,-1,-1,0
773,25116,-1,-2,0
774,25126,-1,-1,0
775,25136,-1,-1,0
776,25146,0,-1,0
777,25156,-1,-1,0
778,25166,0,-1,0
779,25176,0,-1,0
780,25186,0,-1,0
781,25196,0,-1,0
782,25206,0,-1,0
783,25216,0,-1,0
784,25226,-1,-1,0
785,25236,-1,-1,0
786,25246,-1,-1,0
787,25256,-1,-1,0
788,25266,-1,-2,0
789,25276,-1,-1,0
790,25286,-1,-1,0
791,25296,0,-1,0
792,25306,0,-1,0
793,25316,0,-1,0
794,25326,0,-1,0
795,25336,0,-1,0
796,25346,0,-1,0
797,25356,-1,-1,0
798,25366,-1,-1,0
799,25376,-1,-1,0
800,25386,-1,-1,0
801,25396,-1,-1,0
802,25406,-1,-1,0
803,25416,-1,-2,0
804,25426,-1,-2,0
805,25436,-1,-2,0
806,25446,-1,-1,0
807,25456,-1,-1,0
808,25466,-1,-1,0
809,25476,-1,-1,0
810,25486,-1,-1,0
811,25496,-1,-1,0
812,25506,-1,-1,0
813,25516,-1,-2,0
814,25526,-1,-1,0
815,25536,0,-1,0
816,25546,-1,-1,0
817,25556,-1,-1,0
818,25566,-1,-1,0
819,25576,-1,-1,0
820,25586,0,-1,0
821,25596,0,-1,0
822,25606,0,-1,0
823,25616,0,-1,0
824,25626,0,-1,0
825,25636,0,-1,0
826,25646,-1,-1,0
827,25656,-1,-1,0
828,25666,0,-1,0
829,25676,-1,-1,0
830,25686,-1,-1,0
831,25696,-1,-1,0
832,25706,-1,-1,0
833,25716,-1,-1,0
834,25726,0,-1,0
835,25736,0,-1,0
836,25746,-1,-1,0
837,25756,0,-1,0
838,25766,0,-1,0
839,25776,0,-1,0
840,25786,0,-1,0
841,25796,0,-1,0
842,25806,-1,-1,0
843,25816,-1,-1,0
844,25826,-1,-1,0
845,25836,-1,-1,0
846,25846,-1,-1,0
847,25856,-1,-1,0
848,25866,-1,-1,0
849,25876,-1,-2,0
850,25886,0,-1,0
851,25896,0,-1,0
852,25906,-1,-1,0
853,25916,0,-1,0
854,25926,0,-1,0
855,25936,0,-1,0
856,25946,-1,-1,0
857,25956,-1,-1,0
858,25966,-1,-1,0
859,25976,-1,-1,0
860,25986,-1,-1,0
861,25996,0,-1,0
862,26006,0,-1,0
863,26016,0,-1,0
864,26026,0,-1,0
865,26036,-1,-1,0
866,26046,-1,-1,0
867,26056,-1,-1,0
868,26066,-1,-1,0
869,26076,0,-1,0
870,26086,0,-1,0
871,26096,0,-1,0
872,26106,-1,-1,0
873,26116,-1,-1,0
874,26126,-1,-1,0
875,26136,-1,-1,0
876,26146,-1,-1,0
877,26156,0,-1,0
878,26166,0,-1,0
879,26176,-1,-1,0
880,26186,-1,-1,0
881,26196,-1,-1,0
882,26206,-1,-1,0
883,26216,-1,-1,0
884,26226,0,-1,0
885,26236,0,-1,0
886,26246,-1,-1,0
887,26256,0,-1,0
888,26266,-1,-1,0
889,26276,-1,-1,0
890,26286,-1,-1,0
891,26296,0,-1,0
892,26306,0,-1,0
893,26316,-1,-1,0
894,26326,-1,-1,0
895,26336,-1,-1,0
896,26346,-1,-2,0
897,26356,0,-1,0
898,26366,0,-1,0
899,26376,0,-1,0
900,26386,0,-1,0
901,26396,-1,-1,0
902,26406,-1,-1,0
903,26416,-1,-2,0
904,26426,-1,-1,0
905,26436,0,-1,0
906,26446,0,-1,0
907,26456,0,-1,0
908,26466,-1,-1,0
909,26476,-1,-1,0
910,26486,-1,-1,0
911,26496,-1,-1,0
912,26506,0,-1,0
913,26516,0,-1,0
914,26526,0,-1,0
915,26536,-1,-1,0
916,26546,-1,-1,0
917,26556,-1,-1,0
918,26566,-1,-1,0
919,26576,-1,-1,0
920,26586,0,-1,0
921,26596,0,-1,0
922,26606,-1,-1,0
923,26616,-1,-1,0
924,26626,0,-1,0
925,26636,0,-1,0
926,26646,0,-1,0
927,26656,-1,-1,0
928,26666,-1,-1,0
929,26676,0,-1,0
930,26686,0,-1,0
931,26696,0,-1,0
932,26706,0,-1,0
933,26716,0,-1,0
934,26726,0,-1,0
935,26736,0,-1,0
936,26746,-1,-1,0
937,26756,-1,-1,0
938,26766,-1,-1,0
939,26776,-1,-2,0
940,26786,0,-1,0
941,26796,0,-1,0
942,26806,0,-1,0
943,26816,-1,-1,0
944,26826,-1,-1,0
945,26836,-1,-1,0
946,26846,-1,-1,0
947,26856,-1,-2,0
948,26866,0,-1,0
949,26876,0,-1,0
950,26886,0,-1,0
951,26896,0,-1,0
952,26906,-1,-1,0
953,26916,0,-1,0
954,26926,-1,-1,0
955,26936,-1,-1,0
956,26946,-1,-1,0
957,26956,-1,-1,0
958,26966,-1,-1,0
959,26976,-1,-1,0
960,26986,-1,-1,0
961,26996,-1,-1,0
962,27006,-1,-1,0
963,27016,-1,-1,0
964,27026,0,-1,0
965,27036,0,-1,0
966,27046,0,-1,0
967,27056,0,-1,0
968,27066,0,-1,0
969,27076,0,-1,0
970,27086,0,-1,0
971,27096,-1,-1,0
972,27106,-1,-1,0
973,27116,-1,-1,0
974,27126,-1,-1,0
975,27136,0,-1,0
976,27146,-1,-1,0
977,27156,0,-1,0
978,27166,0,-1,0
979,27176,0,-1,0
980,27186,-1,-1,0
981,27196,-1,-1,0
982,27206,-1,-1,0
983,27216,-1,-1,0
984,27226,0,-1,0
985,27236,0,-1,0
986,27246,0,-1,0
987,27256,-1,-1,0
988,27266,-1,-1,0
989,27276,-1,-1,0
990,27286,0,-1,0
991,27296,0,-1,0
992,27306,-1,-1,0
993,27316,0,-1,0
994,27326,-1,-1,0
995,27336,0,-1,0
996,27346,0,-1,0
997,27356,0,-1,0
998,27366,-1,-1,0
999,27376,-1,-1,0
1000,27386,0,-1,0
1001,27396,0,-1,0
1002,27406,0,-1,0
1003,27416,-1,-1,0
1004,27426,0,-1,0
1005,27436,0,-1,0
1006,27446,0,-1,0
1007,27456,-1,-1,0
1008,27466,-1,-1,0
1009,27476,0,-1,0
1010,27486,-1,-1,0
1011,27496,-1,-1,0
1012,27506,0,-1,0
1013,27516,-1,-1,0
1014,27526,-1,-1,0
1015,27536,0,-1,0
1016,27546,-1,-1,0
1017,27556,-1,-1,0
1018,27566,0,-1,0
1019,27576,0,-1,0
1020,27586,-1,-1,0
1021,27596,0,-1,0
1022,27606,-1,-1,0
1023,27616,0,-1,0
1024,27626,-1,-1,0
1025,27636,-1,-1,0
1026,27646,-1,-1,0
1027,27656,-1,-1,0
1028,27666,0,-1,0
1029,27676,0,-1,0
1030,27686,0,-1,0
1031,27696,0,-1,0
1032,27706,-1,-1,0
1033,27716,0,-1,0
1034,27726,-1,-1,0
1035,27736,-1,-1,0
1036,27746,0,-1,0
1037,27756,0,-1,0
1038,27766,-1,-1,0
1039,27776,-1,-1,0
1040,27786,-1,-1,0
1041,27796,0,-1,0
1042,27806,-1,-1,0
1043,27816,0,-1,0
1044,27826,0,-1,0
1045,27836,-1,-1,0
1046,27846,0,-1,0
1047,27856,-1,-1,0
1048,27866,0,-1,0
1049,27876,0,-1,0
1050,27886,0,-1,0
1051,27896,0,-1,0
1052,27906,-1,-1,0
1053,27916,0,-1,0
1054,27926,-1,-1,0
1055,27936,-1,-1,0
1056,27946,-1,-1,0
1057,27956,0,-1,0
1058,27966,-1,-1,0
1059,27976,-1,-1,0
1060,27986,-1,-1,0
1061,27996,-1,-1,0
1062,28006,-1,-2,0
1063,28016,0,-1,0
1064,28026,-1,-1,0
1065,28036,0,-1,0
1066,28046,0,-1,0
1067,28056,-1,-1,0
1068,28066,0,-1,0
1069,28076,-1,-1,0
1070,28086,0,-2,0
1071,28096,0,-1,0
1072,28106,-1,-1,0
1073,28116,-1,-1,0
1074,28126,-1,-1,0
1075,28136,-1,-1,0
1076,28146,0,-1,0
1077,28156,-1,-1,0
1078,28166,0,-1,0
1079,28176,-1,-1,0
1080,28186,0,-1,0
1081,28196,-1,-1,0
1082,28206,-1,-1,0
1083,28216,0,-1,0
1084,28226,-1,-1,0
1085,28236,-1,-1,0
1086,28246,0,-1,0
1087,28256,-1,-1,0
1088,28266,0,-1,0
1089,28276,0,-1,0
1090,28286,0,-1,0
1091,28296,-1,-1,0
1092,28306,-1,-1,0
1093,28316,0,-1,0
1094,28326,-1,-1,0
1095,28336,-1,-1,0
1096,28346,0,-1,0
1097,28356,0,-1,0
1098,28366,0,-1,0
1099,28376,-1,-1,0
1100,28386,0,-1,0
1101,28396,0,-1,0
1102,28406,-1,-1,0
1103,28416,-1,-1,0
1104,28426,0,-1,0
1105,28436,-1,-1,0
1106,28446,0,-2,0
1107,28456,-1,-1,0
1108,28466,0,-1,0
1109,28476,0,-1,0
1110,28486,-1,-1,0
1111,28496,0,-2,0
1112,28506,0,-1,0
1113,28516,-1,-1,0
1114,28526,0,-1,0
1115,28536,0,-1,0
1116,28546,0,-1,0
1117,28556,0,-1,0
1118,28566,0,-1,0
1119,28576,-1,-1,0
1120,28586,-1,-1,0
1121,28596,-1,-1,0
1122,28606,0,-1,0
1123,28616,1,-1,0
1124,28626,1,-1,0
1125,28636,1,-1,0
1126,28646,0,-1,0
1127,28656,0,-1,0
1128,28666,0,-1,0
1129,28676,0,-1,0
1130,28686,0,-1,0
1131,28696,0,-1,0
1132,28706,-1,-1,0
1133,28716,-1,-1,0
1134,28726,0,-1,0
1135,28736,-1,-1,0
1136,28746,0,-1,0
1137,28756,-1,-1,0
1138,28766,0,-1,0
1139,28776,-1,-1,0
1140,28786,-1,-1,0
1141,28796,0,-1,0
1142,28806,0,-1,0
1143,28816,0,-1,0
1144,28826,0,-1,0
1145,28836,-1,-1,0
1146,28846,0,-1,0
1147,28856,0,-1,0
1148,28866,0,-1,0
1149,28876,0,-1,0
1150,28886,0,-1,0
1151,28896,0,-1,0
1152,28906,-1,-1,0
1153,28916,0,-2,0
1154,28926,-1,-1,0
1155,28936,-1,-1,0
1156,28946,0,-1,0
1157,28956,0,-1,0
1158,28966,0,-1,0
1159,28976,0,-1,0
1160,28986,0,-1,0
1161,28996,0,-2,0
1162,29006,-1,-1,0
1163,29016,0,-1,0
1164,29026,0,-1,0
1165,29036,0,-1,0
1166,29046,0,-1,0
1167,29056,0,-1,0
1168,29066,0,-1,0
1169,29076,0,-1,0
1170,29086,0,-1,0
1171,29096,0,-1,0
1172,29106,0,-1,0
1173,29116,-1,-1,0
1174,29126,0,-1,0
1175,29136,0,-1,0
1176,29146,-1,-1,0
1177,29156,0,-1,0
1178,29166,0,-1,0
1179,29176,-1,-1,0
1180,29186,0,-1,0
1181,29196,0,-1,0
1182,29206,0,-1,0
1183,29216,-1,-1,0
1184,29226,0,-1,0
1185,29236,0,-1,0
1186,29246,-1,-1,0
1187,29256,0,-1,0
1188,29266,0,-1,0
1189,29276,-1,-1,0
1190,29286,0,-1,0
1191,29296,-1,-1,0
1192,29306,0,-1,0
1193,29316,-1,-1,0
1194,29326,0,-1,0
1195,29336,0,-1,0
1196,29346,0,-1,0
1197,29356,0,-1,0
1198,29366,0,-1,0
1199,29376,-1,-1,0
1200,29386,0,-1,0
1201,29396,-1,-1,0
1202,29406,0,-1,0
1203,29416,-1,-1,0
1204,29426,0,-1,0
1205,29436,0,-1,0
1206,29446,-1,-1,0
1207,29456,0,-1,0
1208,29466,0,-1,0
1209,29476,0,-1,0
1210,29486,0,-1,0
1211,29496,0,-1,0
1212,29506,-1,-1,0
1213,29516,0,-1,0
1214,29526,0,-1,0
1215,29536,0,-1,0
1216,29546,-1,-1,0
1217,29556,0,-1,0
1218,29566,-1,-1,0
1219,29576,0,-1,0
1220,29586,0,-1,0
1221,29596,0,-1,0
1222,29606,0,-1,0
1223,29616,0,-1,0
1224,29626,-1,-1,0
1225,29636,-1,-1,0
1226,29646,0,-1,0
1227,29656,0,-1,0
1228,29666,0,-1,0
1229,29676,0,-1,0
1230,29686,-1,-1,0
1231,29696,-1,-1,0
1232,29706,-1,-1,0
1233,29716,0,-1,0
1234,29726,0,-1,0
1235,29736,0,-1,0
1236,29746,-1,-1,0
1237,29756,0,-1,0
1238,29766,0,-1,0
1239,29776,0,-1,0
1240,29786,-1,-1,0
1241,29796,-1,-1,0
1242,29806,-1,-1,0
1243,29816,0,-1,0
1244,29826,0,-1,0
1245,29836,0,-1,0
1246,29846,0,-1,0
1247,29856,0,-1,0
1248,29866,0,-1,0
1249,29876,0,-1,0
1250,29886,0,-1,0
1251,29896,0,-1,0
1252,29906,-1,-1,0
1253,29916,-1,-1,0
1254,29926,-1,-1,0
1255,29936,-1,-1,0
1256,29946,0,-1,0
1257,29956,0,-1,0
1258,29966,-1,-1,0
1259,29976,0,-1,0
1260,29986,-1,-1,0
1261,29996,0,-1,0
1262,30006,0,-1,0
1263,30016,-1,-1,0
1264,30026,0,-1,0
1265,30036,-1,-1,0
1266,30046,0,-1,0
1267,30056,-1,-1,0
1268,30066,0,-1,0
1269,30076,-1,-2,0
1270,30086,-1,-1,0
1271,30096,0,-1,0
1272,30106,0,-1,0
1273,30116,0,-1,0
1274,30126,0,-1,0
1275,30136,0,-1,0
1276,30146,0,-1,0
1277,30156,-1,-1,0
1278,30166,-1,-1,0
1279,30176,0,-1,0
1280,30186,0,-1,0
1281,30196,0,-1,0
1282,30206,-1,-1,0
1283,30216,0,-1,0
1284,30226,-1,-1,0
1285,30236,-1,-1,0
1286,30246,-1,-1,0
1287,30256,0,-1,0
1288,30266,0,-1,0
1289,30276,0,-1,0
1290,30286,0,-1,0
1291,30296,-1,-1,0
1292,30306,-1,-1,0
1293,30316,0,-1,0
1294,30326,0,-2,0
1295,30336,0,-1,0
1296,30346,0,-1,0
1297,30356,0,-1,0
1298,30366,0,-1,0
1299,30376,-1,-1,0
1300,30386,0,-1,0
1301,30396,-1,-1,0
1302,30406,0,-1,0
1303,30416,-1,-1,0
1304,30426,0,-1,0
1305,30436,0,-1,0
1306,30446,-1,-1,0
1307,30456,0,-1,0
1308,30466,-1,-1,0
1309,30476,0,-1,0
1310,30486,0,-1,0
1311,30496,0,-1,0
1312,30506,0,-1,0
1313,30516,-1,-1,0
1314,30526,0,-1,0
1315,30536,-1,-1,0
1316,30546,0,-1,0
1317,30556,0,-1,0
1318,30566,-1,-1,0
1319,30576,-1,-1,0
1320,30586,-1,-1,0
1321,30596,0,-1,0
1322,30606,0,-1,0
1323,30616,-1,-1,0
1324,30626,-1,-1,0
1325,30636,0,-1,0
1326,30646,0,-1,0
1327,30656,0,-1,0
1328,30666,0,-1,0
1329,30676,0,-1,0
1330,30686,0,-1,0
1331,30696,0,-1,0
1332,30706,0,-1,0
1333,30716,-1,-1,0
1334,30726,0,-1,0
1335,30736,-1,-1,0
1336,30746,0,-1,0
1337,30756,0,-1,0
1338,30766,0,-1,0
1339,30776,0,-1,0
1340,30786,0,-1,0
1341,30796,0,-1,0
1342,30806,0,-1,0
1343,30816,0,-1,0
1344,30826,0,-1,0
1345,30836,0,-1,0
1346,30846,-1,-1,0
1347,30856,-1,-1,0
1348,30866,0,-1,0
1349,30876,-1,-1,0
1350,30886,0,-1,0
1351,30896,-1,-1,0
1352,30906,-1,-1,0
1353,30916,0,-1,0
1354,30926,0,-1,0
1355,30936,0,-1,0
1356,30946,0,-1,0
1357,30956,0,-1,0
1358,30966,0,-1,0
1359,30976,0,-1,0
1360,30986,0,-1,0
1361,30996,0,-1,0
1362,31006,0,-1,0
1363,31016,-1,-1,0
1364,31026,0,-1,0
1365,31036,-1,-1,0
1366,31046,0,-1,0
1367,31056,0,-1,0
1368,31066,-1,-1,0
1369,31076,0,-1,0
1370,31086,0,-1,0
1371,31096,0,-1,0
1372,31106,-1,-1,0
1373,31116,-1,-1,0
1374,31126,-1,-1,0
1375,31136,0,-1,0
1376,31146,-1,-1,0
1377,31156,0,-1,0
1378,31166,-1,-1,0
1379,31176,-1,-1,0
1380,31186,0,-1,0
1381,31196,0,-1,0
1382,31206,0,-1,0
1383,31216,0,-1,0
1384,31226,-1,-1,0
1385,31236,0,-1,0
1386,31246,0,-1,0
1387,31256,0,-1,0
1388,31266,-1,-1,0
1389,31276,0,-1,0
1390,31286,0,-1,0
1391,31296,0,-1,0
1392,31306,-1,-1,0
1393,31316,0,-1,0
1394,31326,-1,-1,0
1395,31336,0,-1,0
1396,31346,0,-1,0
1397,31356,0,-1,0
1398,31366,-1,-1,0
1399,31376,-1,-1,0
1400,31386,0,-1,0
1401,31396,0,-1,0
1402,31406,0,-1,0
1403,31416,0,-1,0
1404,31426,0,-1,0
1405,31436,0,-1,0
1406,31446,-1,-1,0
1407,31456,-1,-1,0
1408,31466,0,-1,0
1409,31476,0,-1,0
1410,31486,0,-1,0
1411,31496,-1,-1,0
1412,31506,-1,-1,0
1413,31516,0,-1,0
1414,31526,-1,-1,0
1415,31536,0,-1,0
1416,31546,0,-1,0
1417,31556,0,-1,0
1418,31566,0,-1,0
1419,31576,-1,-1,0
1420,31586,0,-1,0
1421,31596,0,-1,0
1422,31606,0,-1,0
1423,31616,0,-1,0
1424,31626,-1,-1,0
1425,31636,0,-1,0
1426,31646,-1,-1,0
1427,31656,-1,-1,0
1428,31666,0,-1,0
1429,31676,0,-1,0
1430,31686,-1,-1,0
1431,31696,0,-1,0
1432,31706,-1,-1,0
1433,31716,0,-1,0
1434,31726,0,-1,0
1435,31736,-1,-1,0
1436,31746,0,-1,0
1437,31756,-1,-1,0
1438,31766,0,-1,0
1439,31776,-1,-1,0
1440,31786,0,-1,0
1441,31796,-1,-1,0
1442,31806,-1,-1,0
1443,31816,-1,-1,0
1444,31826,-1,-1,0
1445,31836,-1,-1,0
1446,31846,-1,-1,0
1447,31856,-1,-1,0
1448,31866,0,-1,0
1449,31876,-1,-1,0
1450,31886,0,-1,0
1451,31896,0,-1,0
1452,31906,0,-1,0
1453,31916,0,-1,0
1454,31926,0,-1,0
1455,31936,-1,-1,0
1456,31946,-1,-1,0
1457,31956,-1,-1,0
1458,31966,-1,-1,0
1459,31976,-1,-1,0
1460,31986,0,-1,0
1461,31996,-1,-1,0
1462,32006,0,-1,0
1463,32016,-1,-1,0
1464,32026,-1,-2,0
1465,32036,-1,-1,0
1466,32046,0,-1,0
1467,32056,-1,-1,0
1468,32066,0,-1,0
1469,32076,0,-1,0
1470,32086,-1,-1,0
1471,32096,-1,-1,0
1472,32106,-1,-1,0
1473,32116,-1,-1,0
1474,32126,-1,-1,0
1475,32136,-1,-1,0
1476,32146,-1,-1,0
1477,32156,-1,-1,0
1478,32166,-1,-1,0
1479,32176,0,-1,0
1480,32186,-1,-1,0
1481,32196,-1,-1,0
1482,32206,-1,-1,0
1483,32216,-1,-1,0
1484,32226,-1,-1,0
1485,32236,-1,-1,0
1486,32246,0,-1,0
1487,32256,-1,-1,0
1488,32266,0,-1,0
1489,32276,-1,-1,0
1490,32286,0,-1,0
1491,32296,-1,-1,0
1492,32306,-1,-1,0
1493,32316,-1,-1,0
1494,32326,-1,-1,0
1495,32336,0,-1,0
1496,32346,-1,-1,0
1497,32356,-1,-1,0
1498,32366,0,-1,0
1499,32376,-1,-1,0
1500,32386,0,-1,0
1501,32396,-1,-1,0
1502,32406,-1,-1,0
1503,32416,0,-1,0
1504,32426,0,-1,0
1505,32436,-1,-1,0
1506,32446,-1,-1,0
1507,32456,0,-2,0
1508,32466,-1,-1,0
1509,32476,-1,-1,0
1510,32486,0,-1,0
1511,32496,-1,-1,0
1512,32506,0,-1,0
1513,32516,-1,-1,0
1514,32526,-1,-1,0
1515,32536,-1,-1,0
1516,32546,-1,-1,0
1517,32556,-1,-1,0
1518,32566,0,-1,0
1519,32576,-1,-1,0
1520,32586,-1,-1,0
1521,32596,-1,-1,0
1522,32606,0,-1,0
1523,32616,-1,-1,0
1524,32626,-1,-1,0
1525,32636,-1,-1,0
1526,32646,-1,-1,0
1527,32656,-1,-1,0
1528,32666,-1,-1,0
1529,32676,-1,-1,0
1530,32686,-1,-1,0
1531,32696,0,-1,0
1532,32706,-1,-1,0
1533,32716,-1,-1,0
1534,32726,-1,-1,0
1535,32736,-1,-1,0
1536,32746,-1,-1,0
1537,32756,-1,-1,0
1538,32766,-1,-1,0
1539,32776,-1,-1,0
1540,32786,0,-1,0
1541,32796,-1,-1,0
1542,32806,-1,-1,0
1543,32816,-1,-1,0
1544,32826,-1,-1,0
1545,32836,-1,-1,0
1546,32846,0,-1,0
1547,32856,-1,-1,0
1548,32866,-1,-1,0
1549,32876,-1,-1,0
1550,32886,-1,-1,0
1551,32896,-1,-1,0
1552,32906,-1,-1,0
1553,32916,-1,-1,0
1554,32926,-1,-1,0
1555,32936,-1,-1,0
1556,32946,-1,-1,0
1557,32956,0,-1,0
1558,32966,-1,-1,0
1559,32976,-1,-1,0
1560,32986,-1,-1,0
1561,32996,-1,-1,0
1562,33006,0,-1,0
1563,33016,-1,-1,0
1564,33026,-1,-1,0
1565,33036,-1,-1,0
1566,33046,-1,-1,0
1567,33056,-1,-1,0
1568,33066,-1,-1,0
1569,33076,-1,-1,0
1570,33086,0,-1,0
1571,33096,0,-1,0
1572,33106,-1,-1,0
1573,33116,-1,-1,0
1574,33126,-1,-1,0
1575,33136,-1,-1,0
1576,33146,0,-1,0
1577,33156,-1,-1,0
1578,33166,-1,-2,0
1579,33176,-1,-1,0
1580,33186,-1,-1,0
1581,33196,0,-1,0
1582,33206,-1,-1,0
1583,33216,-1,-1,0
1584,33226,-1,-1,0
1585,33236,-1,-1,0
1586,33246,-1,-1,0
1587,33256,-1,-1,0
1588,33266,0,-1,0
1589,33276,-1,-1,0
1590,33286,0,-1,0
1591,33296,-1,-1,0
1592,33306,-1,-1,0
1593,33316,-1,-1,0
1594,33326,-1,-1,0
1595,33336,0,-1,0
1596,33346,0,-1,0
1597,33356,-1,-1,0
1598,33366,-1,-1,0
1599,33376,-1,-1,0
1600,33386,-1,-1,0
1601,33396,-1,-1,0
1602,33406,-1,-1,0
1603,33416,-1,-1,0
1604,33426,0,-1,0
1605,33436,-1,-1,0
1606,33446,0,-1,0
1607,33456,-1,-1,0
1608,33466,-1,-1,0
1609,33476,-1,-1,0
1610,33486,0,-1,0
1611,33496,-1,-1,0
1612,33506,-1,-1,0
1613,33516,-1,-1,0
1614,33526,0,-1,0
1615,33536,0,-2,0
1616,33546,0,-1,0
1617,33556,-1,-1,0
1618,33566,0,-1,0
1619,33576,-1,-1,0
1620,33586,-1,0,0
1621,33596,0,-1,0
1622,33606,-1,-1,0
1623,33616,-1,-1,0
1624,33626,-1,-2,0
1625,33636,-1,-1,0
1626,33646,0,-1,0
1627,33656,-1,-1,0
1628,33666,0,-1,0
1629,33676,0,-1,0
1630,33686,-1,-1,0
1631,33696,-1,-2,0
1632,33706,-1,-2,0
1633,33716,-1,-2,0
1634,33726,0,-1,0
1635,33736,-1,-1,0
1636,33746,-1,-2,0
1637,33756,0,-2,0
1638,33766,-1,-1,0
1639,33776,0,-1,0
1640,33786,-1,-1,0
1641,33796,-1,-1,0
1642,33806,0,-1,0
1643,33816,-1,-1,0
1644,33826,-1,-2,0
1645,33836,0,-2,0
1646,33846,-1,-1,0
1647,33856,-1,-1,0
1648,33866,-1,-1,0
1649,33876,-1,-1,0
1650,33886,0,-1,0
1651,33896,-1,-1,0
1652,33906,0,-1,0
1653,33916,-1,-1,0
1654,33926,-1,-1,0
1655,33936,-1,-1,0
1656,33946,-1,-1,0
1657,33956,-1,-1,0
1658,33966,-1,-1,0
1659,33976,-1,-1,0
1660,33986,-1,-1,0
1661,33996,-1,-1,0
1662,34006,-1,-1,0
1663,34016,-1,-1,0
1664,34026,-1,-1,0
1665,34036,-1,-1,0
1666,34046,-1,-1,0
1667,34056,-1,-1,0
1668,34066,0,-1,0
1669,34076,-1,-1,0
1670,34086,-1,-1,0
1671,34096,0,-1,0
1672,34106,-1,-1,0
1673,34116,0,-1,0
1674,34126,-1,-1,0
1675,34136,-1,-1,0
1676,34146,-1,-1,0
1677,34156,-1,-1,0
1678,34166,-1,-1,0
1679,34176,-1,-2,0
1680,34186,0,-1,0
1681,34196,-1,-1,0
1682,34206,-1,-1,0
1683,34216,0,-2,0
1684,34226,0,-1,0
1685,34236,0,-1,0
1686,34246,-1,-1,0
1687,34256,-1,-1,0
1688,34266,-1,-1,0
1689,34276,-1,-1,0
1690,34286,0,-1,0
1691,34296,0,-1,0
1692,34306,-1,-1,0
1693,34316,-1,-1,0
1694,34326,-1,-1,0
1695,34336,-1,-1,0
1696,34346,0,-1,0
1697,34356,-1,-1,0
1698,34366,0,-1,0
1699,34376,-1,-1,0
1700,34386,0,-1,0
1701,34396,-1,-1,0
1702,34406,-1,-1,0
1703,34416,-1,-1,0
1704,34426,-1,-1,0
1705,34436,-1,-1,0
1706,34446,-1,-1,0
1707,34456,-1,-1,0
1708,34466,-1,-1,0
1709,34476,-1,-1,0
1710,34486,-1,-1,0
1711,34496,0,-1,0
1712,34506,-1,-1,0
1713,34516,-1,-1,0
1714,34526,-1,-1,0
1715,34536,-1,-1,0
1716,34546,-1,-1,0
1717,34556,-1,-1,0
1718,34566,-1,-1,0
1719,34576,-1,-1,0
1720,34586,-1,-1,0
1721,34596,-1,-1,0
1722,34606,-1,-1,0
1723,34616,-1,-1,0
1724,34626,-1,-1,0
1725,34636,-1,-2,0
1726,34646,-1,-1,0
1727,34656,0,-1,0
1728,34666,-1,-1,0
1729,34676,-1,-1,0
1730,34686,-1,-1,0
1731,34696,-1,-1,0
1732,34706,-1,-1,0
1733,34716,0,-1,0
1734,34726,0,-1,0
1735,34736,0,-1,0
1736,34746,0,-1,0
1737,34756,0,-1,0
1738,34766,-1,-1,0
1739,34776,-1,-1,0
1740,34786,-1,-1,0
1741,34796,-1,-1,0
1742,34806,-1,-1,0
1743,34816,0,-1,0
1744,34826,-1,-1,0
1745,34836,-1,-1,0
1746,34846,0,-1,0
1747,34856,-1,-1,0
1748,34866,-1,-1,0
1749,34876,0,-1,0
1750,34886,-1,-1,0
1751,34896,-1,-1,0
1752,34906,0,-1,0
1753,34916,-1,-1,0
1754,34926,-1,-1,0
1755,34936,-1,-1,0
1756,34946,-1,-1,0
1757,34956,-1,-1,0
1758,34966,-1,-1,0
1759,34976,-1,-1,0
1760,34986,-1,-1,0
1761,34996,-1,-1,0
1762,35006,-1,-1,0
1763,35016,-1,-1,0
1764,35026,0,-1,0
1765,35036,-1,-1,0
1766,35046,0,-1,0
1767,35056,-1,-1,0
1768,35066,-1,-1,0
1769,35076,-1,-1,0
1770,35086,-1,-1,0
1771,35096,-1,-1,0
1772,35106,-1,-1,0
1773,35116,0,-1,0
1774,35126,-1,-2,0
1775,35136,-1,-1,0
1776,35146,-1,-1,0
1777,35156,-1,-2,0
1778,35166,-1,-1,0
1779,35176,-1,-1,0
1780,35186,-1,-1,0
1781,35196,-1,-1,0
1782,35206,0,-1,0
1783,35216,-1,-1,0
1784,35226,-1,-1,0
1785,35236,-1,-1,0
1786,35246,-1,-1,0
1787,35256,-1,-1,0
1788,35266,-1,0,0
1789,35276,-1,-1,0
1790,35286,-1,-1,0
1791,35296,-1,-1,0
1792,35306,-1,0,0
1793,35316,0,0,0
1794,35326,-1,-1,0
1795,35336,-1,-3,0
1796,35346,-1,-2,0
1797,35356,-1,-1,0
1798,35366,0,1,0
1799,35376,-1,-1,0
1800,35386,-1,-4,0
1801,35396,0,-2,0
1802,35406,0,0,0
1803,35416,0,0,0
1804,35426,-1,-1,0
1805,35436,-1,-3,0
1806,35446,-1,-1,0
1807,35456,-1,-1,0
1808,35466,-1,-2,0
1809,35476,-1,-1,0
1810,35486,-1,-1,0
1811,35496,-1,-1,0
1812,35506,0,-1,0
1813,35516,-1,-2,0
1814,35526,-1,-1,0
1815,35536,-1,-2,0
1816,35546,-1,-1,0
1817,35556,0,-1,0
1818,35566,-1,-1,0
1819,35576,-1,-1,0
1820,35586,-1,-1,0
1821,35596,-1,-2,0
1822,35606,0,-2,0
1823,35616,0,-1,0
1824,35626,-1,-1,0
1825,35636,-1,-1,0
1826,35646,0,-1,0
1827,35656,-2,-1,0
1828,35666,-1,-1,0
1829,35676,0,-1,0
1830,35686,-1,-1,0
1831,35696,-1,-1,0
1832,35706,-1,-1,0
1833,35716,-1,-1,0
1834,35726,-1,-1,0
1835,35736,0,-1,0
1836,35746,0,-1,0
1837,35756,-1,-1,0
1838,35766,-1,-1,0
1839,35776,0,-1,0
1840,35786,0,-1,0
1841,35796,-1,-1,0
1842,35806,-1,-1,0
1843,35816,-1,-1,0
1844,35826,-1,-1,0
1845,35836,-1,-1,0
1846,35846,0,-1,0
1847,35856,0,-1,0
1848,35866,-1,-1,0
1849,35876,-1,-1,0
1850,35886,-1,-1,0
1851,35896,-1,-1,0
1852,35906,0,-1,0
1853,35916,-1,-1,0
1854,35926,-1,-1,0
1855,35936,-1,-1,0
1856,35946,-1,-1,0
1857,35956,-1,-1,0
1858,35966,0,-1,0
1859,35976,-1,-1,0
1860,35986,-1,-2,0
1861,35996,-1,-1,0
1862,36006,-1,-1,0
1863,36016,-1,-1,0
1864,36026,-1,-1,0
1865,36036,-1,-1,0
1866,36046,-1,-1,0
1867,36056,-1,-1,0
1868,36066,-1,-1,0
1869,36076,-1,-1,0
1870,36086,-1,-1,0
1871,36096,-1,-1,0
1872,36106,0,-1,0
1873,36116,-1,-1,0
1874,36126,0,-1,0
1875,36136,-1,-1,0
1876,36146,-1,-1,0
1877,36156,-1,-1,0
1878,36166,0,-2,0
1879,36176,-1,-2,0
1880,36186,-1,-1,0
1881,36196,-1,-1,0
1882,36206,-1,-1,0
1883,36216,0,-1,0
1884,36226,-1,-1,0
1885,36236,-1,-1,0
1886,36246,-1,-1,0
1887,36256,-1,-2,0
1888,36266,-1,-2,0
1889,36276,0,-1,0
1890,36286,-1,0,0
1891,36296,-1,-2,0
1892,36306,-1,-2,0
1893,36316,-1,-1,0
1894,36326,-1,-1,0
1895,36336,0,0,0
1896,36346,-1,-1,0
1897,36356,-1,-2,0
1898,36366,-1,-2,0
1899,36376,-1,-2,0
1900,36386,0,-1,0
1901,36396,-1,0,0
1902,36406,-1,-1,0
1903,36416,-1,-2,0
1904,36426,0,-1,0
1905,36436,-1,-1,0
1906,36446,-1,-1,0
1907,36456,-1,-2,0
1908,36466,-1,-2,0
1909,36476,-1,-1,0
1910,36486,-1,-1,0
1911,36496,-1,-1,0
1912,36506,-1,-1,0
1913,36516,-1,-2,0
1914,36526,-1,-1,0
1915,36536,-1,-1,0
1916,36546,0,-1,0
1917,36556,0,-1,0
1918,36566,-1,-1,0
1919,36576,-1,-1,0
1920,36586,0,-2,0
1921,36596,-1,-1,0
1922,36606,-1,-1,0
1923,36616,0,-1,0
1924,36626,-1,0,0
1925,36636,-1,-1,0
1926,36646,-1,-1,0
1927,36656,-1,-1,0
1928,36666,-1,-2,0
1929,36676,-1,-1,0
1930,36686,-1,-1,0
1931,36696,-1,-1,0
1932,36706,-1,-1,0
1933,36716,-1,-1,0
1934,36726,-1,-1,0
1935,36736,-1,-1,0
1936,36746,-1,-2,0
1937,36756,-1,-1,0
1938,36766,-1,-2,0
1939,36776,0,-1,0
1940,36786,-1,-1,0
1941,36796,-1,-1,0
1942,36806,-1,-1,0
1943,36816,-1,-2,0
1944,36826,-1,-1,0
1945,36836,0,-1,0
1946,36846,0,-2,0
1947,36856,-1,-1,0
1948,36866,-1,-2,0
1949,36876,-1,-1,0
1950,36886,-1,-2,0
1951,36896,-1,-1,0
1952,36906,0,-1,0
1953,36916,-1,-1,0
1954,36926,-1,-1,0
1955,36936,-1,-2,0
1956,36946,-2,-1,0
1957,36956,0,-1,0
1958,36966,-1,-2,0
1959,36976,-1,-1,0
1960,36986,-1,-1,0
1961,36996,-1,-1,0
1962,37006,0,-1,0
1963,37016,-1,-1,0
1964,37026,-1,-1,0
1965,37036,-1,-1,0
1966,37046,-1,-1,0
1967,37056,-1,-1,0
1968,37066,-1,-1,0
1969,37076,-1,-1,0
1970,37086,-1,-1,0
1971,37096,-1,-1,0
1972,37106,-1,-1,0
1973,37116,-1,-1,0
1974,37126,-1,-1,0
1975,37136,-1,-1,0
1976,37146,-1,-1,0
1977,37156,0,-1,0
1978,37166,-1,-1,0
1979,37176,-2,-1,0
1980,37186,-1,-1,0
1981,37196,-1,-1,0
1982,37206,-1,-1,0
1983,37216,-1,-1,0
1984,37226,-1,-1,0
1985,37236,-1,-1,0
1986,37246,-1,-1,0
1987,37256,-1,-1,0
1988,37266,-1,-1,0
1989,37276,-1,-1,0
1990,37286,-1,-1,0
1991,37296,-1,-1,0
1992,37306,-1,-1,0
1993,37316,-1,-1,0
1994,37326,-1,-1,0
1995,37336,-1,-1,0
1996,37346,-1,-1,0
1997,37356,-2,-1,0
1998,37366,-1,-1,0
1999,37376,-2,-2,0
2000,37386,-1,-2,0
2001,37396,-1,-1,0
2002,37406,-1,-1,0
2003,37416,-1,-1,0
2004,37426,-1,0,0
2005,37436,-1,0,0
2006,37446,0,0,0
2007,37456,-1,-1,0
2008,37466,-1,0,0
2009,37476,-1,-1,0
2010,37486,-1,-1,0
2011,37496,-1,0,0
2012,37506,-2,-1,0
2013,37516,-1,0,0
2014,37526,-1,-1,0
2015,37536,-1,-1,0
2016,37546,-1,-1,0
2017,37556,-1,0,0
2018,37566,-1,-1,0
2019,37576,0,-1,0
2020,37586,-1,-1,0
2021,37596,-1,-2,0
2022,37606,-1,-2,0
2023,37616,-1,-1,0
2024,37626,-1,-1,0
2025,37636,-1,-1,0
2026,37646,-1,-1,0
2027,37656,-1,-1,0
2028,37666,0,-1,0
2029,37676,-1,-1,0
2030,37686,-1,0,0
2031,37696,-1,-1,0
2032,37706,-1,-1,0
2033,37716,-1,-2,0
2034,37726,-1,-2,0
2035,37736,-1,-1,0
2036,37746,-1,-1,0
2037,37756,-1,-1,0
2038,37766,-1,-1,0
2039,37776,-1,-1,0
2040,37786,-1,-1,0
2041,37796,0,-1,0
2042,37806,0,-1,0
2043,37816,0,-1,0
2044,37826,-1,-1,0
2045,37836,0,-1,0
2046,37846,-1,-2,0
2047,37856,-1,-1,0
2048,37866,-1,-1,0
2049,37876,-2,-2,0
2050,37886,-1,-1,0
2051,37896,-1,0,0
2052,37906,-1,-1,0
2053,37916,0,-1,0
2054,37926,-1,-1,0
2055,37936,-1,-2,0
2056,37946,-2,-1,0
2057,37956,-1,-1,0
2058,37966,-1,-1,0
2059,37976,0,-1,0
2060,37986,-1,-1,0
2061,37996,-1,-1,0
2062,38006,-1,-1,0
2063,38016,-1,-1,0
2064,38026,-2,-2,0
2065,38036,-2,-2,0
2066,38046,-1,-1,0
2067,38056,-1,-1,0
2068,38066,-1,-1,0
2069,38076,-1,-1,0
2070,38086,-1,-1,0
2071,38096,0,-1,0
2072,38106,-1,-1,0
2073,38116,-1,-1,0
2074,38126,0,-1,0
2075,38136,-1,-1,0
2076,38146,0,0,0
2077,38156,-1,-1,0
2078,38166,0,0,0
2079,38176,-1,-1,0
2080,38186,-1,-1,0
2081,38196,0,-1,0
2082,38206,-1,-1,0
2083,38216,-1,-1,0
2084,38226,-1,-1,0
2085,38236,-1,-1,0
2086,38246,-1,-1,0
2087,38256,-2,-1,0
2088,38266,-1,-1,0
2089,38276,-1,-2,0
2090,38286,0,-1,0
2091,38296,-1,-2,0
2092,38306,-1,-1,0
2093,38316,-1,-1,0
2094,38326,-1,-2,0
2095,38336,0,-1,0
2096,38346,-1,-1,0
2097,38356,-1,-1,0
2098,38366,-2,-1,0
2099,38376,-1,-1,0
2100,38386,-1,-1,0
2101,38396,0,-1,0
2102,38406,-1,-1,0
2103,38416,-1,-1,0
2104,38426,-1,-1,0
2105,38436,-1,-1,0
2106,38446,0,-1,0
2107,38456,-1,-2,0
2108,38466,-1,-1,0
2109,38476,-1,-2,0
2110,38486,0,-1,0
2111,38496,-1,-1,0
2112,38506,-1,-1,0
2113,38516,-1,-1,0
2114,38526,-1,-1,0
2115,38536,-1,-1,0
2116,38546,0,-1,0
2117,38556,-2,-2,0
2118,38566,-1,-1,0
2119,38576,0,-1,0
2120,38586,-1,-1,0
2121,38596,-1,-1,0
2122,38606,-1,-1,0
2123,38616,0,-1,0
2124,38626,-1,-1,0
2125,38636,-1,-1,0
2126,38646,0,-1,0
2127,38656,-2,-2,0
2128,38666,-1,-1,0
2129,38676,0,-1,0
2130,38686,-2,-2,0
2131,38696,0,-1,0
2132,38706,-1,-1,0
2133,38716,-1,-1,0
2134,38726,-1,-1,0
2135,38736,-1,-2,0
2136,38746,-1,-1,0
2137,38756,-1,-1,0
2138,38766,0,-1,0
2139,38776,-1,-1,0
2140,38786,-1,-1,0
2141,38796,-1,-1,0
2142,38806,-1,-1,0
2143,38816,-1,-1,0
2144,38826,-1,-2,0
2145,38836,-1,-1,0
2146,38846,-1,-1,0
2147,38856,-1,-1,0
2148,38866,-1,-2,0
2149,38876,-1,-1,0
2150,38886,-1,-2,0
2151,38896,-1,-1,0
2152,38906,-1,-1,0
2153,38916,-1,-1,0
2154,38926,-1,-1,0
2155,38936,-1,-2,0
2156,38946,-1,-1,0
2157,38956,-1,-2,0
2158,38966,-1,-1,0
2159,38976,-1,-1,0
2160,38986,-1,-1,0
2161,38996,-1,-2,0
2162,39006,-1,-2,0
2163,39016,-1,-1,0
2164,39026,-1,-1,0
2165,39036,-1,-1,0
2166,39046,-1,-1,0
2167,39056,-1,-2,0
2168,39066,-1,-2,0
2169,39076,-1,-2,0
2170,39086,-1,-1,0
2171,39096,-1,-1,0
2172,39106,-1,0,0
2173,39116,-1,0,0
2174,39126,-1,-1,0
2175,39136,-1,-1,0
2176,39146,-1,0,0
2177,39156,-1,-1,0
2178,39166,-1,-2,0
2179,39176,-1,-2,0
2180,39186,-1,-1,0
2181,39196,-1,-1,0
2182,39206,-1,-2,0
2183,39216,0,-2,0
2184,39226,-1,-2,0
2185,39236,-1,-1,0
2186,39246,-1,-2,0
2187,39256,-1,-1,0
2188,39266,-1,-2,0
2189,39276,0,-2,0
2190,39286,-2,-2,0
2191,39296,-1,-2,0
2192,39306,-1,-2,0
2193,39316,-1,-2,0
2194,39326,0,-2,0
2195,39336,-2,-2,0
2196,39346,-1,-3,0
2197,39356,-2,-2,0
2198,39366,-1,-2,0
2199,39376,-2,-2,0
2200,39386,0,-2,0
2201,39396,-2,-2,0
2202,39406,-1,-2,0
2203,39416,-2,-2,0
2204,39426,-1,-1,0
2205,39436,-1,-1,0
2206,39446,-1,-2,0
2207,39456,-1,-3,0
2208,39466,-1,-2,0
2209,39476,-1,-2,0
2210,39486,-1,-2,0
2211,39496,-1,-1,0
2212,39506,-1,-1,0
2213,39516,-1,-2,0
2214,39526,-1,-2,0
2215,39536,0,-1,0
2216,39546,-1,-2,0
2217,39556,-1,-1,0
2218,39566,0,-1,0
2219,39576,-1,-1,0
2220,39586,0,-2,0
2221,39596,-2,-2,0
2222,39606,0,-2,0
2223,39616,-2,-1,0
2224,39626,0,-3,0
2225,39636,-1,-1,0
2226,39646,-1,-3,0
2227,39656,-1,-1,0
2228,39666,-1,-2,0
2229,39676,-1,-2,0
2230,39686,-1,-1,0
2231,39696,-1,-3,0
2232,39706,-1,-1,0
2233,39716,0,-1,0
2234,39726,-1,-2,0
2235,39736,-1,-3,0
2236,39746,-2,-3,0
2237,39756,-1,-2,0
2238,39766,-1,-1,0
2239,39776,-1,0,0
2240,39786,0,-1,0
2241,39796,-1,-2,0
2242,39806,-1,-2,0
2243,39816,0,-2,0
2244,39826,-1,-2,0
2245,39836,-1,-3,0
2246,39846,0,-3,0
2247,39856,-1,-1,0
2248,39866,0,-1,0
2249,39876,-1,-1,0
2250,39886,-1,-1,0
2251,39896,-1,-1,0
2252,39906,-1,-2,0
2253,39916,-1,-2,0
2254,39926,-1,-2,0
2255,39936,-1,-2,0
2256,39946,-1,-1,0
2257,39956,-1,-2,0
2258,39966,-1,-2,0
2259,39976,0,-1,0
2260,39986,-1,-1,0
2261,39996,-1,-3,0
2262,40006,0,-1,0
2263,40016,-1,-2,0
2264,40026,0,-2,0
2265,40036,-1,-1,0
2266,40046,-1,-1,0
2267,40056,0,-3,0
2268,40066,-1,-2,0
2269,40076,0,-1,0
2270,40086,-1,-2,0
2271,40096,-1,-3,0
2272,40106,-1,-1,0
2273,40116,-1,-1,0
2274,40126,-1,-3,0
2275,40136,-1,-2,0
2276,40146,0,-1,0
2277,40156,-1,-2,0
2278,40166,-1,-3,0
2279,40176,0,-1,0
2280,40186,-1,-1,0
2281,40196,-1,-2,0
2282,40206,-1,-2,0
2283,40216,0,-1,0
2284,40226,0,-1,0
2285,40236,-1,-1,0
2286,40246,0,-2,0
2287,40256,-1,-2,0
2288,40266,-1,-2,0
2289,40276,0,-2,0
2290,40286,-1,-2,0
2291,40296,-1,-2,0
2292,40306,0,-2,0
2293,40316,-1,-1,0
2294,40326,0,-2,0
2295,40336,-1,-1,0
2296,40346,-1,-2,0
2297,40356,0,-2,0
2298,40366,-1,-1,0
2299,40376,0,-2,0
2300,40386,-1,-2,0
2301,40396,-1,-1,0
2302,40406,0,-2,0
2303,40416,-1,-2,0
2304,40426,-1,-2,0
2305,40436,0,-2,0
2306,40446,-1,-2,0
2307,40456,-1,-2,0
2308,40466,-1,-1,0
2309,40476,0,-1,0
2310,40486,0,-1,0
2311,40496,0,-1,0
2312,40506,0,-2,0
2313,40516,0,-2,0
2314,40526,0,-2,0
2315,40536,-1,-1,0
2316,40546,-1,-2,0
2317,40556,0,-1,0
2318,40566,-1,-1,0
2319,40576,-1,-2,0
2320,40586,-1,-1,0
2321,40596,0,-2,0
2322,40606,-1,-2,0
2323,40616,-1,-2,0
2324,40626,-1,-2,0
2325,40636,0,-2,0
2326,40646,0,-1,0
2327,40656,-1,-2,0
2328,40666,-1,-2,0
2329,40676,0,-2,0
2330,40686,-1,-2,0
2331,40696,-1,-2,0
2332,40706,0,-1,0
2333,40716,0,-1,0
2334,40726,0,-1,0
2335,40736,-1,-1,0
2336,40746,0,-2,0
2337,40756,0,-2,0
2338,40766,-1,-2,0
2339,40776,-1,-2,0
2340,40786,0,-1,0
2341,40796,-1,-1,0
2342,40806,0,-1,0
2343,40816,0,-1,0
2344,40826,0,-1,0
2345,40836,0,-1,0
2346,40846,-1,-2,0
2347,40856,-1,-1,0
2348,40866,-1,-2,0
2349,40876,-1,-1,0
2350,40886,0,-1,0
2351,40896,0,-1,0
2352,40906,1,0,0
2353,40916,0,-1,0
2354,40926,1,-2,0
2355,40936,1,-2,0
2356,40946,0,-2,0
2357,40956,0,-2,0
2358,40966,0,-2,0
2359,40976,0,-1,0
2360,40986,-1,-2,0
2361,40996,-1,-1,0
2362,41006,-1,-1,0
2363,41016,0,-1,0
2364,41026,0,-2,0
2365,41036,0,-1,0
2366,41046,-1,-1,0
2367,41056,0,-1,0
2368,41066,0,-1,0
2369,41076,-1,-1,0
2370,41086,-1,-1,0
2371,41096,0,-2,0
2372,41106,0,-2,0
2373,41116,0,-2,0
2374,41126,-1,-1,0
2375,41136,-1,-1,0
2376,41146,0,-1,0
2377,41156,0,-1,0
2378,41166,-1,-1,0
2379,41176,0,-2,0
2380,41186,-1,-1,0
2381,41196,-1,-2,0
2382,41206,0,-1,0
2383,41216,-1,-1,0
2384,41226,0,-1,0
2385,41236,0,-1,0
2386,41246,0,-1,0
2387,41256,-1,-1,0
2388,41266,0,-1,0
2389,41276,-1,-1,0
2390,41286,0,-1,0
2391,41296,-1,-2,0
2392,41306,0,-2,0
2393,41316,-1,-2,0
2394,41326,0,-1,0
2395,41336,-1,-1,0
2396,41346,0,-1,0
2397,41356,-1,-1,0
2398,41366,0,-1,0
2399,41376,-1,-2,0
2400,41386,0,-1,0
2401,41396,-1,-1,0
2402,41406,0,-1,0
2403,41416,-1,-1,0
2404,41426,0,-1,0
2405,41436,-1,-2,0
2406,41446,-1,-1,0
2407,41456,0,-1,0
2408,41466,-1,-1,0
2409,41476,-1,-1,0
2410,41486,0,-1,0
2411,41496,-1,-2,0
2412,41506,0,-1,0
2413,41516,0,-2,0
2414,41526,-1,-1,0
2415,41536,-1,-2,0
2416,41546,0,-1,0
2417,41556,-1,-1,0
2418,41566,-1,-2,0
2419,41576,0,-2,0
2420,41586,0,-1,0
2421,41596,-1,-1,0
2422,41606,0,-2,0
2423,41616,0,-2,0
2424,41626,0,-1,0
2425,41636,0,-2,0
2426,41646,0,-1,0
2427,41656,0,-1,0
2428,41666,-1,-2,0
2429,41676,0,-1,0
2430,41686,-1,-1,0
2431,41696,0,-1,0
2432,41706,-1,-2,0
2433,41716,0,-1,0
2434,41726,-1,-1,0
2435,41736,-1,-1,0
2436,41746,-1,-1,0
2437,41756,0,-1,0
2438,41766,0,-1,0
2439,41776,-1,-2,0
2440,41786,-1,-1,0
2441,41796,0,-1,0
2442,41806,0,-1,0
2443,41816,0,-1,0
2444,41826,0,-1,0
2445,41836,0,-1,0
2446,41846,0,-1,0
2447,41856,0,-1,0
2448,41866,0,-2,0
2449,41876,-1,-1,0
2450,41886,0,-1,0
2451,41896,-1,-2,0
2452,41906,0,-1,0
2453,41916,0,-1,0
2454,41926,-1,-2,0
2455,41936,0,-1,0
2456,41946,-1,-1,0
2457,41956,-1,-1,0
2458,41966,0,-1,0
2459,41976,-1,-2,0
2460,41986,-1,-1,0
2461,41996,-1,-1,0
2462,42006,-1,-2,0
2463,42016,0,-1,0
2464,42026,-1,-1,0
2465,42036,-1,-1,0
2466,42046,0,-1,0
2467,42056,0,-2,0
2468,42066,-1,-2,0
2469,42076,0,-1,0
2470,42086,-1,-1,0
2471,42096,-1,-1,0
2472,42106,0,-1,0
2473,42116,-1,-1,0
2474,42126,-1,-2,0
2475,42136,0,-2,0
2476,42146,0,-1,0
2477,42156,-1,-1,0
2478,42166,-1,-1,0
2479,42176,0,-1,0
2480,42186,0,-1,0
2481,42196,-1,-1,0
2482,42206,0,-2,0
2483,42216,0,-1,0
2484,42226,-1,-1,0
2485,42236,-1,-2,0
2486,42246,-1,-1,0
2487,42256,0,-1,0
2488,42266,-1,-1,0
2489,42276,-1,-1,0
2490,42286,-1,-1,0
2491,42296,0,-1,0
2492,42306,0,-1,0
2493,42316,-1,-1,0
2494,42326,0,-1,0
2495,42336,-1,-1,0
2496,42346,-1,-2,0
2497,42356,-1,-2,0
2498,42366,0,-1,0
2499,42376,-1,-2,0
2500,42386,-1,-2,0
2501,42396,-1,-1,0
2502,42406,-1,-1,0
2503,42416,0,-1,0
2504,42426,-1,-2,0
2505,42436,-1,-2,0
2506,42446,0,-2,0
2507,42456,-1,-2,0
2508,42466,0,-2,0
2509,42476,0,-2,0
2510,42486,0,-1,0
2511,42496,-1,-1,0
2512,42506,0,-1,0
2513,42516,-1,-1,0
2514,42526,-1,-2,0
2515,42536,-1,-1,0
2516,42546,0,0,0
2517,42556,0,-1,0
2518,42566,-1,-1,0
2519,42576,-1,-2,0
2520,42586,0,-1,0
2521,42596,-1,-2,0
2522,42606,0,-1,0
2523,42616,0,-1,0
2524,42626,-1,-1,0
2525,42636,-1,-2,0
2526,42646,-1,-2,0
2527,42656,0,-1,0
2528,42666,0,-1,0
2529,42676,-1,-2,0
2530,42686,-1,-2,0
2531,42696,0,-1,0
2532,42706,0,-1,0
2533,42716,-1,-2,0
2534,42726,-1,-2,0
2535,42736,-1,-1,0
2536,42746,-1,-1,0
2537,42756,-1,-1,0
2538,42766,-1,-1,0
2539,42776,-1,-1,0
2540,42786,0,-1,0
2541,42796,-1,-1,0
2542,42806,0,-2,0
2543,42816,0,-1,0
2544,42826,-1,-1,0
2545,42836,-1,-1,0
2546,42846,0,-1,0
2547,42856,-1,-1,0
2548,42866,-1,-2,0
2549,42876,-1,-2,0
2550,42886,0,-1,0
2551,42896,-1,-1,0
2552,42906,0,-1,0
2553,42916,-1,-1,0
2554,42926,-1,-2,0
2555,42936,0,-2,0
2556,42946,-1,-2,0
2557,42956,0,-1,0
2558,42966,-1,-1,0
2559,42976,0,-1,0
2560,42986,-1,-1,0
2561,42996,0,-1,0
2562,43006,-1,-2,0
2563,43016,-1,-1,0
2564,43026,-1,-2,0
2565,43036,0,-1,0
2566,43046,-1,-1,0
2567,43056,0,-1,0
2568,43066,-1,-1,0
2569,43076,-1,-1,0
2570,43086,0,-1,0
2571,43096,-1,-1,0
2572,43106,-1,-1,0
2573,43116,0,-1,0
2574,43126,0,-1,0
2575,43136,0,-1,0
2576,43146,-1,-2,0
2577,43156,-1,-2,0
2578,43166,-1,-2,0
2579,43176,-1,-2,0
2580,43186,0,-2,0
2581,43196,-1,-2,0
2582,43206,-1,-1,0
2583,43216,-1,-1,0
2584,43226,-1,-1,0
2585,43236,-1,-1,0
2586,43246,0,-1,0
2587,43256,-1,-1,0
2588,43266,-1,-1,0
2589,43276,-1,-1,0
2590,43286,-1,-1,0
2591,43296,0,-1,0
2592,43306,0,-1,0
2593,43316,-1,-1,0
2594,43326,-1,-2,0
2595,43336,-1,-1,0
2596,43346,0,-1,0
2597,43356,-1,-2,0
2598,43366,-1,-2,0
2599,43376,-1,-1,0
2600,43386,-1,-2,0
2601,43396,0,-1,0
2602,43406,0,-1,0
2603,43416,0,-1,0
2604,43426,-1,-1,0
2605,43436,-1,-1,0
2606,43446,-1,-2,0
2607,43456,-1,-1,0
2608,43466,-1,-2,0
2609,43476,0,-1,0
2610,43486,-1,-1,0
2611,43496,0,-2,0
2612,43506,-1,-2,0
2613,43516,-1,-1,0
2614,43526,0,-1,0
2615,43536,-1,-1,0
2616,43546,-1,-1,0
2617,43556,0,-1,0
2618,43566,-1,-1,0
2619,43576,-1,-2,0
2620,43586,-1,-2,0
2621,43596,-1,-1,0
2622,43606,-1,-1,0
2623,43616,-1,-1,0
2624,43626,0,-2,0
2625,43636,-1,-1,0
2626,43646,0,-1,0
2627,43656,-1,-1,0
2628,43666,0,-1,0
2629,43676,-1,-2,0
2630,43686,0,-2,0
2631,43696,-1,-2,0
2632,43706,-1,-2,0
2633,43716,0,-1,0
2634,43726,-1,-1,0
2635,43736,0,-2,0
2636,43746,-1,-2,0
2637,43756,-1,-3,0
2638,43766,-1,-2,0
2639,43776,-1,-1,0
2640,43786,-1,-1,0
2641,43796,0,-2,0
2642,43806,-1,-2,0
2643,43816,0,-1,0
2644,43826,-1,-2,0
2645,43836,-1,-1,0
2646,43846,0,-2,0
2647,43856,-1,0,0
2648,43866,-1,-2,0
2649,43876,-1,-3,0
2650,43886,-1,-3,0
2651,43896,0,-1,0
2652,43906,0,-1,0
2653,43916,0,-1,0
2654,43926,0,-1,0
2655,43936,0,-1,0
2656,43946,-1,-1,0
2657,43956,-1,-1,0
2658,43966,0,0,0
2659,43976,-1,1,0
2660,43986,0,0,0
2661,43996,-1,0,0
2662,44006,0,0,0
2663,44016,-1,-1,0
2664,44026,-1,-1,0
2665,44036,-1,-1,0
2666,44046,-1,-1,0
2667,44056,-1,-2,0
2668,44066,-1,1,0
2669,44076,0,-2,0
2670,44086,-1,-1,0
2671,44096,0,-2,0
2672,44106,-1,-1,0
2673,44116,-1,-1,0
2674,44126,-1,-2,0
2675,44136,0,-1,0
2676,44146,-1,-1,0
2677,44156,-1,-1,0
2678,44166,0,-1,0
2679,44176,0,-1,0
2680,44186,0,-1,0
2681,44196,0,-1,0
2682,44206,-1,-1,0
2683,44216,-1,-1,0
2684,44226,-1,-2,0
2685,44236,-1,-2,0
2686,44246,-1,-1,0
2687,44256,-1,-1,0
2688,44266,-1,-1,0
2689,44276,0,-1,0
2690,44286,0,-1,0
2691,44296,-1,-1,0
2692,44306,0,-1,0
2693,44316,-1,-1,0
2694,44326,-1,-1,0
2695,44336,0,-2,0
2696,44346,-1,-1,0
2697,44356,-1,-1,0
2698,44366,-1,-1,0
2699,44376,-1,-2,0
2700,44386,0,-1,0
2701,44396,-1,-1,0
2702,44406,-1,-2,0
2703,44416,-1,0,0
2704,44426,-1,-3,0
2705,44436,-1,0,0
2706,44446,-1,-2,0
2707,44456,-1,-1,0
2708,44466,-1,-1,0
2709,44476,-1,-1,0
2710,44486,-1,-1,0
2711,44496,0,-1,0
2712,44506,-1,-1,0
2713,44516,-1,-2,0
2714,44526,0,-1,0
2715,44536,-1,-2,0
2716,44546,-1,-1,0
2717,44556,-1,-1,0
2718,44566,-1,-1,0
2719,44576,-1,-1,0
2720,44586,-1,-3,0
2721,44596,0,0,0
2722,44606,-1,-3,0
2723,44616,-1,0,0
2724,44626,-1,-2,0
2725,44636,-1,-1,0
2726,44646,-1,-2,0
2727,44656,-1,0,0
2728,44666,-1,-2,0
2729,44676,0,-1,0
2730,44686,-2,-1,0
2731,44696,0,-1,0
2732,44706,-1,-1,0
2733,44716,-1,-1,0
2734,44726,0,-1,0
2735,44736,-1,-1,0
2736,44746,0,-1,0
2737,44756,-1,-2,0
2738,44766,-1,-2,0
2739,44776,-2,-2,0
2740,44786,0,-2,0
2741,44796,-1,-1,0
2742,44806,-1,-1,0
2743,44816,0,-1,0
2744,44826,-1,-2,0
2745,44836,0,-2,0
2746,44846,-1,-2,0
2747,44856,-1,-3,0
2748,44866,-1,-2,0
2749,44876,-1,-2,0
2750,44886,0,-1,0
2751,44896,-1,0,0
2752,44906,-1,-1,0
2753,44916,-1,-3,0
2754,44926,-1,-1,0
2755,44936,-1,-1,0
2756,44946,-1,-1,0
2757,44956,-1,-2,0
2758,44966,-1,-3,0
2759,44976,-1,-2,0
2760,44986,0,-2,0
2761,44996,0,-1,0
2762,45006,0,0,0
2763,45016,0,-1,0
2764,45026,0,-2,0
2765,45036,0,-1,0
2766,45046,0,-1,0
2767,45056,0,-2,0
2768,45066,0,-3,0
2769,45076,0,-3,0
2770,45086,0,-2,0
2771,45096,0,-2,0
2772,45106,-1,-3,0
2773,45116,-1,-3,0
2774,45126,-1,-1,0
2775,45136,0,-1,0
2776,45146,-1,-3,0
2777,45156,-1,-1,0
2778,45166,-1,-1,0
2779,45176,-2,-1,0
2780,45186,-1,0,0
2781,45196,-1,-2,0
2782,45206,0,-1,0
2783,45216,-1,-1,0
2784,45226,-1,-1,0
2785,45236,0,-3,0
2786,45246,-1,0,0
2787,45256,-1,-1,0
2788,45266,-1,-2,0
2789,45276,0,-3,0
2790,45286,-1,-2,0
2791,45296,-1,-3,0
2792,45306,-1,-2,0
2793,45316,-2,-3,0
2794,45326,-1,-3,0
2795,45336,-1,-2,0
2796,45346,-1,-1,0
2797,45356,0,0,0
2798,45366,-1,0,0
2799,45376,-1,-2,0
2800,45386,-1,-3,0
2801,45396,-1,-1,0
2802,45406,0,0,0
2803,45416,-1,-1,0
2804,45426,-1,-3,0
2805,45436,0,-1,0
2806,45446,-1,-1,0
2807,45456,-1,-2,0
2808,45466,0,-1,0
2809,45476,-1,-1,0
2810,45486,-1,-3,0
2811,45496,-1,0,0
2812,45506,-1,-3,0
2813,45516,-1,-1,0
2814,45526,-1,-2,0
2815,45536,0,-1,0
2816,45546,-2,-1,0
2817,45556,0,-2,0
2818,45566,-1,-1,0
2819,45576,-1,-1,0
2820,45586,-1,-3,0
2821,45596,-1,-4,0
2822,45606,-1,-1,0
2823,45616,-1,-2,0
2824,45626,-1,-1,0
2825,45636,-1,-2,0
2826,45646,-1,-3,0
2827,45656,-2,-1,0
2828,45666,-1,-1,0
2829,45676,-1,-2,0
2830,45686,0,-2,0
2831,45696,0,-2,0
2832,45706,-1,-2,0
2833,45716,-1,-2,0
2834,45726,-1,-1,0
2835,45736,-2,-1,0
2836,45746,-1,-2,0
2837,45756,-1,-2,0
2838,45766,0,-1,0
2839,45776,-1,-2,0
2840,45786,0,-1,0
2841,45796,-1,-3,0
2842,45806,-2,-1,0
2843,45816,-2,-1,0
2844,45826,-1,-1,0
2845,45836,0,-2,0
2846,45846,-1,-1,0
2847,45856,-2,-2,0
2848,45866,-2,-1,0
2849,45876,-1,-2,0
2850,45886,0,0,0
2851,45896,0,-3,0
2852,45906,-2,-2,0
2853,45916,-1,0,0
2854,45926,-1,-3,0
2855,45936,0,-1,0
2856,45946,0,-1,0
2857,45956,-1,-2,0
2858,45966,-1,0,0
2859,45976,-2,-2,0
2860,45986,-1,-1,0
2861,45996,0,-2,0
2862,46006,-1,-2,0
2863,46016,0,-1,0
2864,46026,0,-1,0
2865,46036,0,-1,0
2866,46046,-1,-1,0
2867,46056,-1,0,0
2868,46066,-1,-2,0
2869,46076,-2,-1,0
2870,46086,-1,0,0
2871,46096,-2,-2,0
2872,46106,-1,-2,0
2873,46116,-1,-1,0
2874,46126,0,-1,0
2875,46136,0,-2,0
2876,46146,0,-1,0
2877,46156,0,-1,0
2878,46166,-1,-1,0
2879,46176,-1,-2,0
2880,46186,-2,-2,0
2881,46196,-1,0,0
2882,46206,-1,-2,0
2883,46216,-1,-1,0
2884,46226,0,-1,0
2885,46236,0,-3,0
2886,46246,-2,-2,0
2887,46256,-1,-1,0
2888,46266,-1,-2,0
2889,46276,-1,-1,0
2890,46286,-1,-2,0
2891,46296,-1,-2,0
2892,46306,-2,-2,0
2893,46316,0,-2,0
2894,46326,-1,-2,0
2895,46336,-2,-2,0
2896,46346,-1,-1,0
2897,46356,0,-1,0
2898,46366,-2,-1,0
2899,46376,-1,-2,0
2900,46386,-1,-2,0
2901,46396,-1,-2,0
2902,46406,0,-2,0
2903,46416,-2,-1,0
2904,46426,-2,-1,0
2905,46436,-1,-1,0
2906,46446,-1,-2,0
2907,46456,0,-1,0
2908,46466,0,-1,0
2909,46476,-1,-2,0
2910,46486,-1,0,0
2911,46496,-1,-2,0
2912,46506,-1,-2,0
2913,46516,-1,-2,0
2914,46526,-1,-3,0
2915,46536,0,-2,0
2916,46546,-1,-1,0
2917,46556,-1,-3,0
2918,46566,-1,-2,0
2919,46576,-1,-3,0
2920,46586,-1,-2,0
2921,46596,-1,-1,0
2922,46606,-1,0,0
2923,46616,-1,0,0
2924,46626,-1,-1,0
2925,46636,-1,-2,0
2926,46646,-1,-3,0
2927,46656,-1,-2,0
2928,46666,-1,1,0
2929,46676,0,0,0
2930,46686,-1,-3,0
2931,46696,-1,-3,0
2932,46706,-1,-2,0
2933,46716,-1,-1,0
2934,46726,-1,-1,0
2935,46736,-1,-2,0
2936,46746,-1,-1,0
2937,46756,-1,-1,0
2938,46766,0,-1,0
2939,46776,-1,-2,0
2940,46786,-1,-1,0
2941,46796,-1,-1,0
2942,46806,-1,-3,0
2943,46816,0,-1,0
2944,46826,0,-1,0
2945,46836,0,-1,0
2946,46846,0,-2,0
2947,46856,0,-1,0
2948,46866,-1,-2,0
2949,46876,-1,-1,0
2950,46886,-2,-3,0
2951,46896,-1,-1,0
2952,46906,-1,-2,0
2953,46916,0,-1,0
2954,46926,-1,-3,0
2955,46936,-1,0,0
2956,46946,-2,-3,0
2957,46956,-1,0,0
2958,46966,0,-3,0
2959,46976,0,-1,0
2960,46986,-2,-3,0
2961,46996,-1,-1,0
2962,47006,0,-2,0
2963,47016,-1,-2,0
2964,47026,-1,-1,0
2965,47036,-1,-3,0
2966,47046,0,-1,0
2967,47056,-2,-3,0
2968,47066,-1,-2,0
2969,47076,0,-2,0
2970,47086,0,-2,0
2971,47096,-2,-2,0
2972,47106,-1,-2,0
2973,47116,-1,-2,0
2974,47126,0,-1,0
2975,47136,0,-2,0
2976,47146,0,-3,0
2977,47156,-1,-1,0
2978,47166,-1,-2,0
2979,47176,0,-2,0
2980,47186,-1,-1,0
2981,47196,0,-1,0
2982,47206,-1,-1,0
2983,47216,0,-2,0
2984,47226,-1,-2,0
2985,47236,0,-2,0
2986,47246,0,-2,0
2987,47256,-1,-2,0
2988,47266,-1,-2,0
2989,47276,-1,-1,0
2990,47286,-2,-3,0
2991,47296,-1,0,0
2992,47306,0,-3,0
2993,47316,-1,0,0
2994,47326,-1,-3,0
2995,47336,0,-1,0
2996,47346,0,-1,0
2997,47356,-1,-3,0
2998,47366,-1,1,0
2999,47376,0,-3,0
3000,47386,-1,-1,0
3001,47396,0,-1,0
3002,47406,-1,-2,0
3003,47416,0,-2,0
3004,47426,0,-2,0
3005,47436,-1,0,0
3006,47446,0,-2,0
3007,47456,-1,0,0
3008,47466,-1,-2,0
3009,47476,0,-1,0
3010,47486,-1,-3,0
3011,47496,0,-1,0
3012,47506,-1,-3,0
3013,47516,-1,-2,0
3014,47526,0,-2,0
3015,47536,-1,-3,0
3016,47546,0,-3,0
3017,47556,-1,-1,0
3018,47566,-1,-2,0
3019,47576,-1,-1,0
3020,47586,-1,-1,0
3021,47596,0,-2,0
3022,47606,-1,-2,0
3023,47616,-1,-3,0
3024,47626,0,-3,0
3025,47636,-1,-3,0
3026,47646,0,-3,0
3027,47656,0,-3,0
3028,47666,-1,-1,0
3029,47676,0,-1,0
3030,47686,0,-1,0
3031,47696,-1,-1,0
3032,47706,-1,-1,0
3033,47716,0,-1,0
3034,47726,-1,-2,0
3035,47736,-1,-1,0
3036,47746,0,-1,0
3037,47756,0,-1,0
3038,47766,-1,-2,0
3039,47776,-1,-2,0
3040,47786,-1,-1,0
3041,47796,0,-3,0
3042,47806,0,-1,0
3043,47816,1,-1,0
3044,47826,0,-3,0
3045,47836,0,-1,0
3046,47846,0,-2,0
3047,47856,0,-2,0
3048,47866,0,-1,0
3049,47876,0,-3,0
3050,47886,0,-1,0
3051,47896,-1,-1,0
3052,47906,-1,-2,0
3053,47916,-1,-2,0
3054,47926,-1,-1,0
3055,47936,-1,-2,0
3056,47946,-1,-2,0
3057,47956,-1,-1,0
3058,47966,-1,-2,0
3059,47976,-1,-3,0
3060,47986,-1,-2,0
3061,47996,-2,-2,0
3062,48006,-1,-2,0
3063,48016,-1,-2,0
3064,48026,-1,-2,0
3065,48036,-1,-2,0
3066,48046,-1,-2,0
3067,48056,-1,-2,0
3068,48066,-1,-1,0
3069,48076,0,-2,0
3070,48086,0,-1,0
3071,48096,0,-2,0
3072,48106,0,-2,0
3073,48116,-1,-2,0
3074,48126,-1,-2,0
3075,48136,-1,-1,0
3076,48146,0,-2,0
3077,48156,0,-2,0
3078,48166,1,-1,0
3079,48176,-1,-2,0
