,ts,acc_x,acc_y,acc_z
0,193469,1,-1,0
1,193479,1,-1,0
2,193489,1,-1,0
3,193499,1,-1,0
4,193509,1,-1,0
5,193519,1,-1,0
6,193529,1,-1,0
7,193539,1,-1,0
8,193549,1,-1,0
9,193559,1,-1,0
10,193569,1,-1,0
11,193579,1,0,0
12,193589,1,-1,0
13,193599,1,-1,0
14,193609,1,-1,0
15,193619,1,-1,0
16,193629,1,-1,0
17,193639,1,-1,0
18,193649,1,-1,0
19,193659,1,-1,0
20,193669,1,-1,0
21,193679,1,-1,0
22,193689,1,-1,0
23,193699,2,-1,0
24,193709,10,0,0
25,193719,17,0,0
26,193729,20,-2,0
27,193739,15,-1,0
28,193749,15,0,0
29,193759,14,-2,0
30,193769,14,-1,0
31,193779,12,-1,0
32,193789,11,-1,0
33,193799,13,-1,0
34,193809,14,0,0
35,193819,14,-1,0
36,193829,14,-1,0
37,193839,14,-1,0
38,193849,14,-1,0
39,193859,14,-1,0
40,193869,14,0,0
41,193879,14,-1,0
42,193889,14,0,0
43,193899,14,-1,0
44,193909,13,-1,0
45,193919,14,0,0
46,193929,14,-1,0
47,193939,13,-1,0
48,193949,13,-1,0
49,193959,13,-1,0
50,193969,13,-1,0
51,193979,13,-1,0
52,193989,13,-1,0
53,193999,13,-1,0
54,194009,13,-1,0
55,194019,13,-1,0
56,194029,13,-1,0
57,194039,13,-1,0
58,194049,13,-1,0
59,194059,13,-1,0
60,194069,13,-1,0
61,194079,13,-1,0
62,194089,12,0,0
63,194099,12,-1,0
64,194109,12,-1,0
65,194119,12,-1,0
66,194129,12,-1,0
67,194139,12,-1,0
68,194149,12,-1,0
69,194159,12,-1,0
70,194169,12,-1,0
71,194179,11,-1,0
72,194189,11,-1,0
73,194199,11,-1,0
74,194209,11,-1,0
75,194219,11,-1,0
76,194229,11,-1,0
77,194239,11,-1,0
78,194249,11,-1,0
79,194259,11,-1,0
80,194269,11,-1,0
81,194279,10,-1,0
82,194289,11,-1,0
83,194299,11,-1,0
84,194309,10,-1,0
85,194319,10,-1,0
86,194329,10,-1,0
87,194339,10,-1,0
88,194349,10,-1,0
89,194359,9,-1,0
90,194369,9,-1,0
91,194379,9,-1,0
92,194389,9,-1,0
93,194399,9,-1,0
94,194409,9,-1,0
95,194419,9,-1,0
96,194429,9,-1,0
97,194439,9,-1,0
98,194449,9,-1,0
99,194459,9,-1,0
100,194469,8,-1,0
101,194479,8,-1,0
102,194489,8,-1,0
103,194499,8,-1,0
104,194509,8,-1,0
105,194519,8,-1,0
106,194529,8,-1,0
107,194539,8,-1,0
108,194549,8,-1,0
109,194559,7,-1,0
110,194569,7,-1,0
111,194579,7,-1,0
112,194589,7,-1,0
113,194599,7,-1,0
114,194609,7,-1,0
115,194619,7,-1,0
116,194629,6,-1,0
117,194639,8,-1,0
118,194649,8,-1,0
119,194659,8,-1,0
120,194669,8,-1,0
121,194679,7,-1,0
122,194689,7,-1,0
123,194699,8,-1,0
124,194709,7,-1,0
125,194719,7,-1,0
126,194729,7,-1,0
127,194739,7,-1,0
128,194749,7,-1,0
129,194759,7,-1,0
130,194769,7,-1,0
131,194779,7,-1,0
132,194789,6,-1,0
133,194799,6,-1,0
134,194809,6,-1,0
135,194819,5,-1,0
136,194829,5,-1,0
137,194839,4,-1,0
138,194849,4,-1,0
139,194859,3,-1,0
140,194869,3,-1,0
141,194879,2,-1,0
142,194889,2,-1,0
143,194899,1,-1,0
144,194909,1,-1,0
145,194919,0,-1,0
146,194929,0,-1,0
147,194939,-1,-1,0
148,194949,-1,-1,0
149,194959,-1,-1,0
150,194969,-1,0,0
151,194979,-1,-1,0
152,194989,-1,-1,0
153,194999,-1,-1,0
154,195009,-1,-1,0
155,195019,-1,0,0
156,195029,-1,-1,0
157,195039,-1,-1,0
158,195049,-1,0,0
159,195059,-1,0,0
160,195069,-1,-1,0
161,195079,-1,-1,0
162,195089,-1,-1,0
163,195099,-1,-1,0
164,195109,-1,-1,0
165,195119,-1,0,0
166,195129,-1,0,0
167,195139,-1,-1,0
168,195149,-1,-1,0
169,195159,-1,0,0
170,195169,-1,-1,0
171,195179,-1,-1,0
172,195189,-1,-1,0
173,195199,-1,-1,0
174,195209,-1,-1,0
175,195219,-1,-1,0
176,195229,-1,-1,0
177,195239,-1,-1,0
178,195249,-1,-1,0
179,195259,-1,-1,0
180,195269,-1,-1,0
181,195279,-1,-1,0
182,195289,-1,-1,0
183,195299,-1,-1,0
184,195309,-1,-1,0
185,195319,-1,-1,0
186,195329,-1,-1,0
187,195339,-1,-1,0
188,195349,-1,-1,0
189,195359,-1,-1,0
190,195369,-1,-1,0
191,195379,-1,-1,0
192,195389,-1,-1,0
193,195399,-1,-1,0
194,195409,-1,-1,0
195,195419,-1,-1,0
196,195429,-1,-1,0
197,195439,-1,-1,0
198,195449,-1,-1,0
199,195459,-1,-1,0
200,195469,-1,-1,0
201,195479,-1,-1,0
202,195489,-1,-1,0
203,195499,-1,-1,0
204,195509,-1,0,0
205,195519,-1,-1,0
206,195529,-1,-1,0
207,195539,-1,-1,0
208,195549,-1,-1,0
209,195559,-1,-1,0
210,195569,-1,-1,0
211,195579,-1,-1,0
212,195589,-1,-1,0
213,195599,-1,-1,0
214,195609,-1,-1,0
215,195619,-1,0,0
216,195629,-1,0,0
217,195639,-1,-1,0
218,195649,-1,-1,0
219,195659,-1,-1,0
220,195669,-1,-1,0
221,195679,-1,-1,0
222,195689,-1,-1,0
223,195699,-1,-1,0
224,195709,-1,-1,0
225,195719,-1,-1,0
226,195729,-1,-1,0
227,195739,-1,-1,0
228,195749,-1,-1,0
229,195759,-1,-1,0
230,195769,-1,-1,0
231,195779,0,-1,0
232,195789,-1,-1,0
233,195799,-1,-1,0
234,195809,-1,-1,0
235,195819,-1,-1,0
236,195829,-1,0,0
237,195839,0,-1,0
238,195849,-1,-1,0
239,195859,-1,-1,0
240,195869,-1,-1,0
241,195879,-1,-1,0
242,195889,-1,-1,0
243,195899,-1,-1,0
244,195909,0,-1,0
245,195919,-1,-1,0
246,195929,-1,-1,0
247,195939,-1,-1,0
248,195949,0,-1,0
249,195959,-1,0,0
250,195969,-1,-1,0
251,195979,-1,-1,0
252,195989,-1,-1,0
253,195999,-1,-1,0
254,196009,-1,-1,0
255,196019,-1,-1,0
256,196029,0,-1,0
257,196039,-1,-1,0
258,196049,-1,-1,0
259,196059,-1,-1,0
260,196069,-1,-1,0
261,196079,-1,-1,0
262,196089,-1,-1,0
263,196099,-1,-1,0
264,196109,-1,-1,0
265,196119,-1,-1,0
266,196129,0,-1,0
267,196139,-1,-1,0
268,196149,-1,-1,0
269,196159,-1,-1,0
270,196169,-1,-1,0
271,196179,-1,-1,0
272,196189,-1,-1,0
273,196199,-1,-1,0
274,196209,-1,-1,0
275,196219,-1,0,0
276,196229,-1,-1,0
277,196239,-1,-1,0
278,196249,-1,-1,0
279,196259,-1,-1,0
280,196269,0,-1,0
281,196279,-1,-1,0
282,196289,-1,-1,0
283,196299,-1,-1,0
284,196309,-1,-1,0
285,196319,-1,-1,0
286,196329,-1,-1,0
287,196339,-1,-1,0
288,196349,-1,-1,0
289,196359,-1,-1,0
290,196369,-1,-1,0
291,196379,0,-1,0
292,196389,0,-1,0
293,196399,-1,-1,0
294,196409,0,0,0
295,196419,-1,-1,0
296,196429,-1,0,0
297,196439,-1,-1,0
298,196449,-1,0,0
299,196459,-1,-1,0
300,196469,-1,-1,0
301,196479,-1,-1,0
302,196489,-1,-1,0
303,196499,-1,-1,0
304,196509,-1,-1,0
305,196519,-1,-1,0
306,196529,-1,-1,0
307,196539,-1,-1,0
308,196549,-1,0,0
309,196559,-1,-1,0
310,196569,0,-1,0
311,196579,-1,-1,0
312,196589,-1,-1,0
313,196599,-1,-1,0
314,196609,0,-1,0
315,196619,-1,-1,0
316,196629,0,-1,0
317,196639,0,-1,0
318,196649,-1,-1,0
319,196659,-1,-1,0
320,196669,-1,-1,0
321,196679,-1,-1,0
322,196689,-1,-1,0
323,196699,-1,-1,0
324,196709,-1,-1,0
325,196719,-1,-1,0
326,196729,-1,-1,0
327,196739,-1,-1,0
328,196749,-1,-1,0
329,196759,-1,0,0
330,196769,-1,-1,0
331,196779,-1,-1,0
332,196789,-1,-1,0
333,196799,-1,-1,0
334,196809,-1,0,0
335,196819,0,-1,0
336,196829,-1,-1,0
337,196839,0,-1,0
338,196849,-1,-1,0
339,196859,-1,-1,0
340,196869,-1,-1,0
341,196879,-1,-1,0
342,196889,-1,-1,0
343,196899,-1,0,0
344,196909,-1,-1,0
345,196919,-1,-1,0
346,196929,-1,-1,0
347,196939,-1,-1,0
348,196949,0,-1,0
349,196959,0,-1,0
350,196969,-1,-1,0
351,196979,0,-1,0
352,196989,-1,-1,0
353,196999,-1,-1,0
354,197009,-1,-1,0
355,197019,-1,-1,0
356,197029,-1,-1,0
357,197039,0,-1,0
358,197049,-1,-1,0
359,197059,-1,-1,0
360,197069,0,-1,0
361,197079,-1,-1,0
362,197089,-1,-1,0
363,197099,0,-1,0
364,197109,0,-1,0
365,197119,-1,-1,0
366,197129,-1,-1,0
367,197139,0,-1,0
368,197149,-1,-1,0
369,197159,-1,-1,0
370,197169,0,-1,0
371,197179,0,-1,0
372,197189,0,-1,0
373,197199,0,-1,0
374,197209,-1,-1,0
375,197219,-1,-1,0
376,197229,0,-1,0
377,197239,-1,-1,0
378,197249,-1,-1,0
379,197259,-1,-1,0
380,197269,-1,-1,0
381,197279,0,-1,0
382,197289,-1,-1,0
383,197299,-1,-1,0
384,197309,0,-1,0
385,197319,-1,-1,0
386,197329,0,-1,0
387,197339,0,-1,0
388,197349,-1,-1,0
389,197359,-1,-1,0
390,197369,-1,-1,0
391,197379,-1,-1,0
392,197389,-1,-1,0
393,197399,-1,-1,0
394,197409,0,-1,0
395,197419,-1,-1,0
396,197429,-1,-1,0
397,197439,-1,-1,0
398,197449,-1,-1,0
399,197459,-1,-1,0
400,197469,0,-1,0
401,197479,-1,-1,0
402,197489,0,-1,0
403,197499,-1,-1,0
404,197509,-1,-1,0
405,197519,-1,-1,0
406,197529,-1,-1,0
407,197539,-1,-1,0
408,197549,-1,-1,0
409,197559,-1,0,0
410,197569,-1,-1,0
411,197579,-1,-1,0
412,197589,0,-1,0
413,197599,-1,-1,0
414,197609,0,-1,0
415,197619,0,-1,0
416,197629,-1,-1,0
417,197639,0,-1,0
418,197649,-1,-1,0
419,197659,-1,-1,0
420,197669,0,-1,0
421,197679,-1,-1,0
422,197689,-1,-1,0
423,197699,-1,-1,0
424,197709,0,-1,0
425,197719,-1,-1,0
426,197729,-1,-1,0
427,197739,-1,-1,0
428,197749,0,-1,0
429,197759,-1,-1,0
430,197769,0,-1,0
431,197779,-1,-1,0
432,197789,0,-1,0
433,197799,-1,-1,0
434,197809,0,-1,0
435,197819,-1,-1,0
436,197829,0,-1,0
437,197839,-1,-1,0
438,197849,-1,-1,0
439,197859,0,-1,0
440,197869,-1,-1,0
441,197879,0,0,0
442,197889,0,0,0
443,197899,0,-1,0
444,197909,0,-1,0
445,197919,-1,-1,0
446,197929,-1,-1,0
447,197939,-1,-1,0
448,197949,-1,-1,0
449,197959,-1,-1,0
450,197969,0,-1,0
451,197979,0,-1,0
452,197989,-1,-1,0
453,197999,-1,-1,0
454,198009,0,0,0
455,198019,-1,-1,0
456,198029,-1,-1,0
457,198039,-1,-1,0
458,198049,-1,-1,0
459,198059,-1,-1,0
460,198069,-1,-1,0
461,198079,-1,-1,0
462,198089,-1,-1,0
463,198099,-1,-1,0
464,198109,0,-1,0
465,198119,0,-1,0
466,198129,0,-1,0
467,198139,-1,-1,0
468,198149,-1,-1,0
469,198159,0,-1,0
470,198169,0,-1,0
471,198179,-1,-1,0
472,198189,-1,-1,0
473,198199,-1,-1,0
474,198209,-1,-1,0
475,198219,0,-1,0
476,198229,0,-1,0
477,198239,-1,-1,0
478,198249,-1,-1,0
479,198259,-1,-1,0
480,198269,0,-1,0
481,198279,0,0,0
482,198289,-1,-1,0
483,198299,-1,-1,0
484,198309,0,-1,0
485,198319,0,-1,0
486,198329,-1,-1,0
487,198339,0,-1,0
488,198349,0,-1,0
489,198359,-1,-1,0
490,198369,-1,-1,0
491,198379,-1,-1,0
492,198389,0,-1,0
493,198399,0,-1,0
494,198409,0,-1,0
495,198419,0,-1,0
496,198429,0,-1,0
497,198439,-1,-1,0
498,198449,0,-1,0
499,198459,-1,-1,0
500,198469,-1,-1,0
501,198479,-1,-1,0
502,198489,0,-1,0
503,198499,0,-1,0
504,198509,-1,-1,0
505,198519,0,0,0
506,198529,0,-1,0
507,198539,-1,-1,0
508,198549,0,-1,0
509,198559,-1,-1,0
510,198569,-1,-1,0
511,198579,0,-1,0
512,198589,0,-1,0
513,198599,0,-1,0
514,198609,-1,0,0
515,198619,-1,-1,0
516,198629,0,-1,0
517,198639,0,-1,0
518,198649,0,-1,0
519,198659,-1,-1,0
520,198669,-1,-1,0
521,198679,0,-1,0
522,198689,-1,-1,0
523,198699,-1,-1,0
524,198709,0,0,0
525,198719,-1,-1,0
526,198729,-1,-1,0
527,198739,-1,-1,0
528,198749,-1,-1,0
529,198759,0,-1,0
530,198769,0,-1,0
531,198779,-1,-1,0
532,198789,0,-1,0
533,198799,0,0,0
534,198809,0,-1,0
535,198819,0,-1,0
536,198829,0,-1,0
537,198839,0,-1,0
538,198849,-1,-1,0
539,198859,-1,-1,0
540,198869,0,0,0
541,198879,0,-1,0
542,198889,-1,0,0
543,198899,-1,-1,0
544,198909,0,-1,0
545,198919,-1,-1,0
546,198929,-1,-1,0
547,198939,-1,-1,0
548,198949,-1,-1,0
549,198959,0,-1,0
550,198969,0,-1,0
551,198979,-1,-1,0
552,198989,0,-1,0
553,198999,-1,-1,0
554,199009,0,-1,0
555,199019,-1,-1,0
556,199029,0,-1,0
557,199039,0,-1,0
558,199049,0,-1,0
559,199059,-1,-1,0
560,199069,0,-1,0
561,199079,0,-1,0
562,199089,-1,-1,0
563,199099,0,-1,0
564,199109,-1,-1,0
565,199119,0,-1,0
566,199129,-1,-1,0
567,199139,0,-1,0
568,199149,0,-1,0
569,199159,0,-1,0
570,199169,0,-1,0
571,199179,0,-1,0
572,199189,-1,-1,0
573,199199,0,-1,0
574,199209,0,-1,0
575,199219,-1,-1,0
576,199229,-1,-1,0
577,199239,-1,0,0
578,199249,0,-1,0
579,199259,-1,-1,0
580,199269,0,-1,0
581,199279,0,-1,0
582,199289,0,-1,0
583,199299,0,-1,0
584,199309,-1,-1,0
585,199319,0,-1,0
586,199329,-1,-1,0
587,199339,0,-1,0
588,199349,-1,-1,0
589,199359,-1,0,0
590,199369,-1,-1,0
591,199379,-1,-1,0
592,199389,-1,-1,0
593,199399,-1,-1,0
594,199409,-1,-1,0
595,199419,0,-1,0
596,199429,0,-1,0
597,199439,0,-1,0
598,199449,-1,-1,0
599,199459,0,-1,0
600,199469,0,0,0
601,199479,-1,-1,0
602,199489,-1,-1,0
603,199499,-1,-1,0
604,199509,-1,-1,0
605,199519,0,-1,0
606,199529,-1,-1,0
607,199539,0,-1,0
608,199549,0,-1,0
609,199559,0,-1,0
610,199569,0,-1,0
611,199579,0,-1,0
612,199589,0,-1,0
613,199599,0,-1,0
614,199609,-1,-1,0
615,199619,-1,-1,0
616,199629,-1,0,0
617,199639,-1,-1,0
618,199649,-1,-1,0
619,199659,-1,-1,0
620,199669,0,-1,0
621,199679,0,-1,0
622,199689,0,-1,0
623,199699,0,-1,0
624,199709,0,-1,0
625,199719,-1,-1,0
626,199729,0,-1,0
627,199739,-1,-1,0
628,199749,0,-1,0
629,199759,0,-1,0
630,199769,-1,-1,0
631,199779,-1,-1,0
632,199789,0,0,0
633,199799,0,-1,0
634,199809,0,-1,0
635,199819,-1,-1,0
636,199829,0,-1,0
637,199839,0,-1,0
638,199849,-1,-1,0
639,199859,-1,-1,0
640,199869,-1,-1,0
641,199879,0,-1,0
642,199889,-1,-1,0
643,199899,0,-1,0
644,199909,0,-1,0
645,199919,-1,-1,0
646,199929,0,-1,0
647,199939,0,0,0
648,199949,0,0,0
649,199959,0,-1,0
650,199969,-1,-1,0
651,199979,-1,-1,0
652,199989,0,-1,0
653,199999,-1,-1,0
654,200009,0,-1,0
655,200019,0,-1,0
656,200029,0,-1,0
657,200039,0,-1,0
658,200049,0,-1,0
659,200059,0,-1,0
660,200069,0,-1,0
661,200079,0,-1,0
662,200089,0,-1,0
663,200099,-1,-1,0
664,200109,-1,-1,0
665,200119,0,-1,0
666,200129,0,-1,0
667,200139,0,-1,0
668,200149,-1,-1,0
669,200159,-1,-1,0
670,200169,0,-1,0
671,200179,-1,0,0
672,200189,-1,-1,0
673,200199,0,-1,0
674,200209,0,-1,0
675,200219,0,-1,0
676,200229,0,-1,0
677,200239,0,-1,0
678,200249,-1,0,0
679,200259,0,0,0
680,200269,-1,-1,0
681,200279,0,-1,0
682,200289,-1,-1,0
683,200299,0,-1,0
684,200309,0,-1,0
685,200319,0,-1,0
686,200329,0,0,0
687,200339,0,-1,0
688,200349,-1,-1,0
689,200359,0,-1,0
690,200369,0,-1,0
691,200379,-1,-1,0
692,200389,0,-1,0
693,200399,0,0,0
694,200409,0,-1,0
695,200419,0,-1,0
696,200429,0,-1,0
697,200439,-1,-1,0
698,200449,-1,-1,0
699,200459,-1,-1,0
700,200469,0,-1,0
701,200479,0,-1,0
702,200489,-1,-1,0
703,200499,0,-1,0
704,200509,0,-1,0
705,200519,0,-1,0
706,200529,-1,-1,0
707,200539,0,-1,0
708,200549,0,-1,0
709,200559,0,-1,0
710,200569,0,-1,0
711,200579,0,-1,0
712,200589,-1,-1,0
713,200599,0,-1,0
714,200609,0,-1,0
715,200619,-1,-1,0
716,200629,-1,-1,0
717,200639,0,-1,0
718,200649,-1,-1,0
719,200659,0,-1,0
720,200669,-1,-1,0
721,200679,0,-1,0
722,200689,0,-1,0
723,200699,0,0,0
724,200709,0,0,0
725,200719,0,-1,0
726,200729,0,-1,0
727,200739,0,-1,0
728,200749,0,-1,0
729,200759,0,-1,0
730,200769,-1,0,0
731,200779,0,0,0
732,200789,-1,-1,0
733,200799,-1,-1,0
734,200809,-1,-1,0
735,200819,0,-1,0
736,200829,0,-1,0
737,200839,0,-1,0
738,200849,0,-1,0
739,200859,-1,0,0
740,200869,-1,-1,0
741,200879,-1,-1,0
742,200889,0,-1,0
743,200899,-1,-1,0
744,200909,0,-1,0
745,200919,-1,-1,0
746,200929,0,-1,0
747,200939,-1,-1,0
748,200949,0,-1,0
749,200959,0,-1,0
750,200969,-1,-1,0
751,200979,-1,-1,0
752,200989,0,-1,0
753,200999,0,-1,0
754,201009,0,-1,0
755,201019,-1,-1,0
756,201029,0,-1,0
757,201039,-1,-1,0
758,201049,0,-1,0
759,201059,0,0,0
760,201069,0,-1,0
761,201079,-1,-1,0
762,201089,0,-1,0
763,201099,0,0,0
764,201109,0,-1,0
765,201119,-1,-1,0
766,201129,0,-1,0
767,201139,0,-1,0
768,201149,0,-1,0
769,201159,0,-1,0
770,201169,0,-1,0
771,201179,0,-1,0
772,201189,0,-1,0
773,201199,0,-1,0
774,201209,-1,-1,0
775,201219,0,-1,0
776,201229,0,-1,0
777,201239,0,-1,0
778,201249,-1,0,0
779,201259,0,0,0
780,201269,0,-1,0
781,201279,0,-1,0
782,201289,-1,-1,0
783,201299,0,-1,0
784,201309,0,-1,0
785,201319,0,-1,0
786,201329,0,-1,0
787,201339,-1,-1,0
788,201349,-1,-1,0
789,201359,0,-1,0
790,201369,0,-1,0
791,201379,0,-1,0
792,201389,0,-1,0
793,201399,0,-1,0
794,201409,0,-1,0
795,201419,-1,-1,0
796,201429,0,-1,0
797,201439,-1,-1,0
798,201449,0,-1,0
799,201459,-1,-1,0
800,201469,0,-1,0
801,201479,0,-1,0
802,201489,0,-1,0
803,201499,0,-1,0
804,201509,-1,-1,0
805,201519,0,-1,0
806,201529,0,0,0
807,201539,-1,-1,0
808,201549,0,-1,0
809,201559,0,-1,0
810,201569,-1,0,0
811,201579,0,0,0
812,201589,0,-1,0
813,201599,0,-1,0
814,201609,0,-1,0
815,201619,0,-1,0
816,201629,0,-1,0
817,201639,0,-1,0
818,201649,-1,-1,0
819,201659,0,-1,0
820,201669,0,0,0
821,201679,0,-1,0
822,201689,0,-1,0
823,201699,0,-1,0
824,201709,0,-1,0
825,201719,0,-1,0
826,201729,-1,-1,0
827,201739,0,-1,0
828,201749,0,-1,0
829,201759,0,0,0
830,201769,0,-1,0
831,201779,0,0,0
832,201789,0,-1,0
833,201799,0,-1,0
834,201809,0,-1,0
835,201819,0,-1,0
836,201829,0,-1,0
837,201839,0,-1,0
838,201849,-1,-1,0
839,201859,-1,-1,0
840,201869,0,-1,0
841,201879,0,-1,0
842,201889,0,-1,0
843,201899,0,-1,0
844,201909,0,-1,0
845,201919,0,-1,0
846,201929,0,-1,0
847,201939,-1,-1,0
848,201949,-1,-1,0
849,201959,0,-1,0
850,201969,0,-1,0
851,201979,0,-1,0
852,201989,0,-1,0
853,201999,0,-1,0
854,202009,-1,-1,0
855,202019,-1,-1,0
856,202029,0,-1,0
857,202039,-1,-1,0
858,202049,0,-1,0
859,202059,0,-1,0
860,202069,0,-1,0
861,202079,0,-1,0
862,202089,0,-1,0
863,202099,0,-1,0
864,202109,0,-1,0
865,202119,-1,-1,0
866,202129,0,-1,0
867,202139,0,0,0
868,202149,0,-1,0
869,202159,0,-1,0
870,202169,0,-1,0
871,202179,0,0,0
872,202189,0,-1,0
873,202199,-1,-1,0
874,202209,0,0,0
875,202219,0,-1,0
876,202229,0,-1,0
877,202239,0,-1,0
878,202249,0,-1,0
879,202259,-1,-1,0
880,202269,-1,-1,0
881,202279,0,-1,0
882,202289,0,-1,0
883,202299,0,-1,0
884,202309,-1,-1,0
885,202319,0,-1,0
886,202329,0,-1,0
887,202339,0,-1,0
888,202349,0,-1,0
889,202359,0,-1,0
890,202369,-1,-1,0
891,202379,0,-1,0
892,202389,0,-1,0
893,202399,0,-1,0
894,202409,0,-1,0
895,202419,0,-1,0
896,202429,0,-1,0
897,202439,0,-1,0
898,202449,-1,-1,0
899,202459,0,-1,0
900,202469,0,-1,0
901,202479,0,-1,0
902,202489,0,-1,0
903,202499,0,-1,0
904,202509,0,-1,0
905,202519,0,-1,0
906,202529,-1,-1,0
907,202539,0,-1,0
908,202549,0,-1,0
909,202559,0,-1,0
910,202569,0,-1,0
911,202579,0,-1,0
912,202589,-1,-1,0
913,202599,0,0,0
914,202609,0,-1,0
915,202619,0,-1,0
916,202629,0,-1,0
917,202639,-1,-1,0
918,202649,0,-1,0
919,202659,-1,-1,0
920,202669,0,-1,0
921,202679,0,-1,0
922,202689,-1,-1,0
923,202699,0,-1,0
924,202709,0,-1,0
925,202719,0,-1,0
926,202729,0,-1,0
927,202739,-1,-1,0
928,202749,0,-1,0
929,202759,0,-1,0
930,202769,-1,-1,0
931,202779,0,-1,0
932,202789,0,-1,0
933,202799,-1,-1,0
934,202809,-2,-1,0
935,202819,-2,-1,0
936,202829,0,-1,0
937,202839,0,-1,0
938,202849,0,-1,0
939,202859,0,-1,0
940,202869,0,-1,0
941,202879,0,-1,0
942,202889,0,-1,0
943,202899,0,0,0
944,202909,0,-1,0
945,202919,0,-1,0
946,202929,0,-1,0
947,202939,0,-1,0
948,202949,-1,-1,0
949,202959,-1,-1,0
950,202969,-1,-1,0
951,202979,0,-1,0
952,202989,0,-1,0
953,202999,0,-1,0
954,203009,0,-1,0
955,203019,0,-1,0
956,203029,0,-1,0
957,203039,0,-1,0
958,203049,0,-1,0
959,203059,0,-1,0
960,203069,0,-1,0
961,203079,0,-1,0
962,203089,0,-1,0
963,203099,0,-1,0
964,203109,-1,-1,0
965,203119,0,-1,0
966,203129,-1,-1,0
967,203139,0,-1,0
968,203149,0,-1,0
969,203159,0,-1,0
970,203169,0,-1,0
971,203179,0,-1,0
972,203189,0,-1,0
973,203199,0,-1,0
974,203209,0,-1,0
975,203219,-1,-1,0
976,203229,-1,-1,0
977,203239,0,-1,0
978,203249,-1,-1,0
979,203259,-1,-1,0
980,203269,0,-1,0
981,203279,-1,-1,0
982,203289,0,0,0
983,203299,0,-1,0
984,203309,0,-2,0
985,203319,-1,0,0
986,203329,-1,0,0
987,203339,-1,0,0
988,203349,-1,-1,0
989,203359,-1,-2,0
990,203369,-1,4,0
991,203379,1,-7,0
992,203389,0,-1,0
993,203399,-1,0,0
994,203409,-1,0,0
995,203419,0,0,0
996,203429,0,-1,0
997,203439,0,-1,0
998,203449,0,-1,0
999,203459,-1,-1,0
1000,203469,-1,0,0
1001,203479,0,-1,0
1002,203489,0,-1,0
1003,203499,0,-1,0
1004,203509,0,0,0
1005,203519,0,-1,0
1006,203529,0,-1,0
1007,203539,-1,-1,0
1008,203549,0,-1,0
1009,203559,0,0,0
1010,203569,-1,-1,0
1011,203579,-1,-1,0
1012,203589,0,-1,0
1013,203599,-1,-1,0
1014,203609,0,-1,0
1015,203619,-1,-1,0
1016,203629,-1,-1,0
1017,203639,0,-1,0
1018,203649,-1,-1,0
1019,203659,-1,-1,0
1020,203669,-1,-1,0
1021,203679,-1,0,0
1022,203689,0,-1,0
1023,203699,-1,-1,0
1024,203709,-1,-1,0
1025,203719,0,-1,0
1026,203729,0,0,0
1027,203739,0,-1,0
1028,203749,-1,-1,0
1029,203759,0,0,0
1030,203769,0,-1,0
1031,203779,-1,-1,0
1032,203789,0,0,0
1033,203799,0,-1,0
1034,203809,-1,-1,0
1035,203819,-1,-1,0
1036,203829,0,-1,0
1037,203839,-1,-1,0
1038,203849,0,-1,0
1039,203859,-1,-1,0
1040,203869,0,-1,0
1041,203879,-1,0,0
1042,203889,0,-1,0
1043,203899,-1,-1,0
1044,203909,0,-1,0
1045,203919,-1,-1,0
1046,203929,0,-1,0
1047,203939,0,-1,0
1048,203949,-1,-1,0
1049,203959,0,-1,0
1050,203969,0,-1,0
1051,203979,-1,-1,0
1052,203989,-1,-1,0
1053,203999,-1,0,0
1054,204009,0,-1,0
1055,204019,0,0,0
1056,204029,-1,-1,0
1057,204039,-1,-1,0
1058,204049,0,-1,0
1059,204059,-1,0,0
1060,204069,-1,-1,0
1061,204079,-1,-1,0
1062,204089,0,-1,0
1063,204099,-1,-1,0
1064,204109,0,-1,0
1065,204119,-1,0,0
1066,204129,0,-1,0
1067,204139,-1,-1,0
1068,204149,0,-1,0
1069,204159,-1,-1,0
1070,204169,0,-1,0
1071,204179,0,-1,0
1072,204189,-1,-1,0
1073,204199,0,-1,0
1074,204209,-1,0,0
1075,204219,0,-1,0
1076,204229,0,-1,0
1077,204239,0,-1,0
1078,204249,0,0,0
1079,204259,-1,-1,0
1080,204269,-1,-1,0
1081,204279,0,-1,0
1082,204289,-1,0,0
1083,204299,-1,-1,0
1084,204309,-1,-1,0
1085,204319,0,-1,0
1086,204329,-1,-1,0
1087,204339,-1,-1,0
1088,204349,0,-1,0
1089,204359,0,-1,0
1090,204369,0,-1,0
1091,204379,0,-1,0
1092,204389,-1,-1,0
1093,204399,0,-1,0
1094,204409,0,0,0
1095,204419,-1,-1,0
1096,204429,-1,-1,0
1097,204439,0,-1,0
1098,204449,-1,-1,0
1099,204459,-1,-1,0
1100,204469,-1,-1,0
1101,204479,-1,-1,0
1102,204489,0,-1,0
1103,204499,-1,-1,0
1104,204509,0,-1,0
1105,204519,0,-1,0
1106,204529,-1,-1,0
1107,204539,0,-1,0
1108,204549,0,-1,0
1109,204559,0,-1,0
1110,204569,0,-1,0
1111,204579,-1,-1,0
1112,204589,-1,-1,0
1113,204599,-1,-1,0
1114,204609,0,-1,0
1115,204619,0,-1,0
1116,204629,-1,-1,0
1117,204639,0,-1,0
1118,204649,0,-1,0
1119,204659,0,-1,0
1120,204669,0,-1,0
1121,204679,-1,-1,0
1122,204689,-1,-1,0
1123,204699,0,-1,0
1124,204709,-1,-1,0
1125,204719,-1,-1,0
1126,204729,-1,-1,0
1127,204739,0,-1,0
1128,204749,-1,-1,0
1129,204759,-1,-1,0
1130,204769,0,-1,0
1131,204779,-1,-1,0
1132,204789,-1,-1,0
1133,204799,0,-1,0
1134,204809,0,-1,0
1135,204819,-1,-1,0
1136,204829,0,0,0
1137,204839,-1,-1,0
1138,204849,-1,-1,0
1139,204859,0,-1,0
1140,204869,-1,-1,0
1141,204879,-1,-1,0
1142,204889,-1,-1,0
1143,204899,0,-1,0
1144,204909,-1,-1,0
1145,204919,0,-1,0
1146,204929,-1,-1,0
1147,204939,-1,-1,0
1148,204949,-1,-1,0
1149,204959,0,-1,0
1150,204969,-1,-1,0
1151,204979,0,-1,0
1152,204989,-1,-1,0
1153,204999,0,-1,0
1154,205009,-1,-1,0
1155,205019,0,-1,0
1156,205029,-1,-1,0
1157,205039,-1,-1,0
1158,205049,-1,-1,0
1159,205059,0,-1,0
1160,205069,-1,-1,0
1161,205079,-1,-1,0
1162,205089,-1,-1,0
1163,205099,-1,-1,0
1164,205109,-1,0,0
1165,205119,-1,-1,0
1166,205129,-1,-1,0
1167,205139,-1,-1,0
1168,205149,-1,-1,0
1169,205159,-1,-1,0
1170,205169,-1,0,0
1171,205179,0,-1,0
1172,205189,-1,-1,0
1173,205199,-1,-1,0
1174,205209,-1,-1,0
1175,205219,-1,-1,0
1176,205229,-1,-1,0
1177,205239,-1,0,0
1178,205249,-1,-1,0
1179,205259,-1,-1,0
1180,205269,-1,0,0
1181,205279,-1,-1,0
1182,205289,-1,-1,0
1183,205299,-1,0,0
1184,205309,-1,-1,0
1185,205319,0,0,0
1186,205329,-1,0,0
1187,205339,-1,-1,0
1188,205349,-1,-1,0
1189,205359,-1,0,0
1190,205369,-1,0,0
1191,205379,0,-1,0
1192,205389,-1,-1,0
1193,205399,-1,0,0
1194,205409,-1,0,0
1195,205419,-1,0,0
1196,205429,-1,0,0
1197,205439,-1,0,0
1198,205449,-1,0,0
1199,205459,-1,-1,0
1200,205469,0,-1,0
1201,205479,-1,-1,0
1202,205489,-1,0,0
1203,205499,-1,-1,0
1204,205509,-1,-1,0
1205,205519,-1,-1,0
1206,205529,-1,0,0
1207,205539,0,-1,0
1208,205549,-1,0,0
1209,205559,-1,0,0
1210,205569,0,0,0
1211,205579,-1,0,0
1212,205589,-1,0,0
1213,205599,0,0,0
1214,205609,-1,-1,0
1215,205619,-1,-1,0
1216,205629,-1,-1,0
1217,205639,-1,-1,0
1218,205649,0,0,0
1219,205659,-1,-1,0
1220,205669,-1,-1,0
1221,205679,-1,0,0
1222,205689,-1,-1,0
1223,205699,0,-1,0
1224,205709,-1,0,0
1225,205719,-1,-1,0
1226,205729,-1,0,0
1227,205739,-1,0,0
1228,205749,0,-1,0
1229,205759,-1,0,0
1230,205769,-1,0,0
1231,205779,-1,0,0
1232,205789,-1,-1,0
1233,205799,0,0,0
1234,205809,-1,-1,0
1235,205819,0,0,0
1236,205829,-1,0,0
1237,205839,-1,-1,0
1238,205849,-1,0,0
1239,205859,-1,-1,0
1240,205869,-1,-1,0
1241,205879,-1,-1,0
1242,205889,-1,0,0
1243,205899,-1,-1,0
1244,205909,0,0,0
1245,205919,-1,0,0
1246,205929,-1,-1,0
1247,205939,-1,-1,0
1248,205949,-1,-1,0
1249,205959,-1,0,0
1250,205969,-1,-1,0
1251,205979,-1,-1,0
1252,205989,-1,-1,0
1253,205999,-1,-1,0
1254,206009,-1,-1,0
1255,206019,-1,-1,0
1256,206029,-1,0,0
1257,206039,-1,0,0
1258,206049,0,-1,0
1259,206059,0,-1,0
1260,206069,-1,-1,0
1261,206079,-1,-1,0
1262,206089,-1,-1,0
1263,206099,-1,0,0
1264,206109,0,-1,0
1265,206119,-1,-1,0
1266,206129,0,0,0
1267,206139,-1,0,0
1268,206149,-1,-1,0
1269,206159,-1,0,0
1270,206169,-1,-1,0
1271,206179,-1,0,0
1272,206189,-1,0,0
1273,206199,-1,0,0
1274,206209,-1,0,0
1275,206219,-1,0,0
1276,206229,-1,0,0
1277,206239,-1,0,0
1278,206249,-1,-1,0
1279,206259,-1,0,0
1280,206269,-1,-1,0
1281,206279,-1,0,0
1282,206289,-1,0,0
1283,206299,0,0,0
1284,206309,-1,0,0
1285,206319,-1,0,0
1286,206329,-1,0,0
1287,206339,-1,0,0
1288,206349,-1,0,0
1289,206359,-1,0,0
1290,206369,-1,0,0
1291,206379,-1,0,0
1292,206389,-1,0,0
1293,206399,-1,0,0
1294,206409,-1,0,0
1295,206419,0,0,0
1296,206429,-1,-1,0
1297,206439,-1,0,0
1298,206449,-1,-1,0
1299,206459,-1,0,0
1300,206469,-1,0,0
1301,206479,-1,0,0
1302,206489,-1,-1,0
1303,206499,0,0,0
1304,206509,-1,-1,0
1305,206519,-1,-1,0
1306,206529,-1,-1,0
1307,206539,-1,-1,0
1308,206549,-1,-1,0
1309,206559,-1,-1,0
1310,206569,-1,-1,0
1311,206579,-1,-1,0
1312,206589,-1,-1,0
1313,206599,-1,-1,0
1314,206609,-1,-1,0
1315,206619,-1,-1,0
1316,206629,-1,-1,0
1317,206639,-1,-1,0
1318,206649,-1,-1,0
1319,206659,-1,-1,0
1320,206669,-1,-1,0
1321,206679,-1,-1,0
1322,206689,-1,-1,0
1323,206699,-1,-2,0
1324,206709,-1,-2,0
1325,206719,-1,-2,0
1326,206729,-1,-1,0
1327,206739,0,-2,0
1328,206749,-1,-2,0
1329,206759,0,-2,0
1330,206769,-1,-1,0
1331,206779,-1,-2,0
1332,206789,-1,-2,0
1333,206799,-1,-2,0
1334,206809,-1,-2,0
1335,206819,-1,-2,0
1336,206829,-1,-2,0
1337,206839,-1,-2,0
1338,206849,-1,-2,0
1339,206859,-1,-2,0
1340,206869,-1,-2,0
1341,206879,-1,-2,0
1342,206889,-1,-2,0
1343,206899,-1,-1,0
1344,206909,-1,-2,0
1345,206919,-1,-2,0
1346,206929,0,-2,0
1347,206939,-1,-2,0
1348,206949,-1,-1,0
1349,206959,-1,-1,0
1350,206969,-1,-2,0
1351,206979,-1,-1,0
1352,206989,-1,-2,0
1353,206999,-1,-1,0
1354,207009,-1,-1,0
1355,207019,-1,-1,0
1356,207029,-1,-2,0
1357,207039,-1,-1,0
1358,207049,-1,-1,0
1359,207059,-1,-1,0
1360,207069,-1,-1,0
1361,207079,-1,-1,0
1362,207089,-1,-1,0
1363,207099,-1,-1,0
1364,207109,-1,-1,0
1365,207119,-1,-1,0
1366,207129,-1,-1,0
1367,207139,-1,-1,0
1368,207149,-1,-1,0
1369,207159,-1,-1,0
1370,207169,-1,-1,0
1371,207179,0,-1,0
1372,207189,-1,-1,0
1373,207199,-1,-1,0
1374,207209,-1,-1,0
1375,207219,-1,-1,0
1376,207229,-1,-1,0
1377,207239,-1,-1,0
1378,207249,-1,-1,0
1379,207259,-1,-1,0
1380,207269,-1,-1,0
1381,207279,-1,-1,0
1382,207289,-1,-1,0
1383,207299,-1,-1,0
1384,207309,-1,-1,0
1385,207319,-1,-1,0
1386,207329,-1,0,0
1387,207339,-1,-1,0
1388,207349,-1,-1,0
1389,207359,-1,-1,0
1390,207369,-1,-1,0
1391,207379,-1,-1,0
1392,207389,-1,-1,0
1393,207399,-1,-1,0
1394,207409,-1,-1,0
1395,207419,-1,-1,0
1396,207429,-1,-1,0
1397,207439,-1,-1,0
1398,207449,-1,-1,0
1399,207459,-1,-1,0
1400,207469,-1,-1,0
1401,207479,-1,0,0
1402,207489,-1,-1,0
1403,207499,-1,-1,0
1404,207509,-1,-1,0
1405,207519,-1,0,0
1406,207529,-1,-1,0
1407,207539,-1,-1,0
1408,207549,-1,-1,0
1409,207559,-1,-1,0
1410,207569,0,-1,0
1411,207579,-1,-1,0
1412,207589,-1,-1,0
1413,207599,-1,0,0
1414,207609,-1,-1,0
1415,207619,-1,-1,0
1416,207629,0,0,0
1417,207639,-1,0,0
1418,207649,-1,-1,0
1419,207659,-1,0,0
1420,207669,-1,0,0
1421,207679,-1,0,0
1422,207689,-1,0,0
1423,207699,-1,0,0
1424,207709,-1,0,0
1425,207719,-1,0,0
1426,207729,-1,0,0
1427,207739,-1,0,0
1428,207749,-1,0,0
1429,207759,-1,0,0
1430,207769,-1,0,0
1431,207779,-1,-1,0
1432,207789,-1,0,0
1433,207799,-1,0,0
1434,207809,-1,0,0
1435,207819,-1,-1,0
1436,207829,-1,0,0
1437,207839,-1,-1,0
1438,207849,-1,0,0
1439,207859,-1,-1,0
1440,207869,-1,-1,0
1441,207879,-1,-1,0
1442,207889,-1,-1,0
1443,207899,-1,-1,0
1444,207909,-1,0,0
1445,207919,-1,0,0
1446,207929,-1,0,0
1447,207939,-1,0,0
1448,207949,-1,0,0
1449,207959,-1,0,0
1450,207969,-1,0,0
1451,207979,-1,-1,0
1452,207989,-1,0,0
1453,207999,-1,-1,0
1454,208009,-1,0,0
1455,208019,-1,0,0
1456,208029,-1,0,0
1457,208039,-1,0,0
1458,208049,-1,0,0
1459,208059,-1,0,0
1460,208069,-1,0,0
1461,208079,-1,0,0
1462,208089,-1,0,0
1463,208099,-1,0,0
1464,208109,-1,0,0
1465,208119,-1,0,0
1466,208129,-1,0,0
1467,208139,-1,0,0
1468,208149,-1,0,0
1469,208159,-1,0,0
1470,208169,-1,0,0
1471,208179,-1,1,0
1472,208189,-1,0,0
1473,208199,-1,0,0
1474,208209,-1,0,0
1475,208219,-1,1,0
1476,208229,-1,0,0
1477,208239,-1,0,0
1478,208249,-1,0,0
1479,208259,-1,0,0
1480,208269,-1,0,0
1481,208279,-1,0,0
1482,208289,-1,0,0
1483,208299,-1,0,0
1484,208309,-1,0,0
1485,208319,-1,0,0
1486,208329,-1,0,0
1487,208339,-1,0,0
1488,208349,-2,0,0
1489,208359,-1,0,0
1490,208369,-1,0,0
1491,208379,-1,0,0
1492,208389,-1,0,0
1493,208399,-1,0,0
1494,208409,0,0,0
1495,208419,-1,-1,0
1496,208429,-1,0,0
1497,208439,-1,-1,0
1498,208449,-1,-1,0
1499,208459,-1,-1,0
1500,208469,-1,-1,0
1501,208479,-1,-1,0
1502,208489,-1,-1,0
1503,208499,-1,-1,0
1504,208509,-1,-1,0
1505,208519,-1,-1,0
1506,208529,-1,-1,0
1507,208539,-1,-1,0
1508,208549,-1,-1,0
1509,208559,-1,-1,0
1510,208569,-1,-1,0
1511,208579,-1,-1,0
1512,208589,-1,-1,0
1513,208599,-1,-3,0
1514,208609,0,-2,0
1515,208619,-1,-3,0
1516,208629,-1,-1,0
1517,208639,-1,-2,0
1518,208649,0,-2,0
1519,208659,-1,-2,0
1520,208669,-1,-2,0
1521,208679,-1,-2,0
1522,208689,-1,-2,0
1523,208699,-1,-2,0
1524,208709,-1,-2,0
1525,208719,-1,-3,0
1526,208729,-1,-3,0
1527,208739,-1,-2,0
1528,208749,-1,-2,0
1529,208759,-1,-3,0
1530,208769,-1,-3,0
1531,208779,-1,-2,0
1532,208789,-1,-2,0
1533,208799,-1,-3,0
1534,208809,-1,-2,0
1535,208819,-1,-2,0
1536,208829,-1,-3,0
1537,208839,-1,-2,0
1538,208849,-1,-3,0
1539,208859,-1,-2,0
1540,208869,-1,-2,0
1541,208879,-1,-3,0
1542,208889,-1,-2,0
1543,208899,-1,-2,0
1544,208909,-1,-2,0
1545,208919,-1,-2,0
1546,208929,-1,-2,0
1547,208939,-1,-2,0
1548,208949,-1,-1,0
1549,208959,-1,-1,0
1550,208969,-1,-1,0
1551,208979,-1,-1,0
1552,208989,-1,-2,0
1553,208999,-1,-1,0
1554,209009,-1,-1,0
1555,209019,-1,-1,0
1556,209029,-1,-1,0
1557,209039,-1,-1,0
1558,209049,-1,-1,0
1559,209059,-1,-1,0
1560,209069,-1,-1,0
1561,209079,-1,-1,0
1562,209089,-1,-1,0
1563,209099,-1,-1,0
1564,209109,-1,-1,0
1565,209119,-1,-1,0
1566,209129,-1,-1,0
1567,209139,-1,-1,0
1568,209149,-1,-1,0
1569,209159,-1,0,0
1570,209169,-1,-1,0
1571,209179,-1,-1,0
1572,209189,-1,-1,0
1573,209199,-1,0,0
1574,209209,-1,-1,0
1575,209219,-1,-1,0
1576,209229,-1,-1,0
1577,209239,-1,-1,0
1578,209249,-1,-1,0
1579,209259,-1,-1,0
1580,209269,-1,-1,0
1581,209279,-1,-1,0
1582,209289,-1,-1,0
1583,209299,-1,-1,0
1584,209309,-1,-1,0
1585,209319,-1,-1,0
1586,209329,-1,-1,0
1587,209339,-1,-1,0
1588,209349,-1,-1,0
1589,209359,-1,-1,0
1590,209369,-1,-1,0
1591,209379,-1,-2,0
1592,209389,-1,-1,0
1593,209399,-1,-2,0
1594,209409,-1,-2,0
1595,209419,-1,-1,0
1596,209429,-1,-1,0
1597,209439,-1,-2,0
1598,209449,-1,-2,0
1599,209459,-1,-2,0
1600,209469,-1,-2,0
1601,209479,-1,-2,0
1602,209489,-1,-2,0
1603,209499,-1,-2,0
1604,209509,-1,-2,0
1605,209519,-1,-2,0
1606,209529,-1,-2,0
1607,209539,-1,-2,0
1608,209549,-1,-2,0
1609,209559,-1,-2,0
1610,209569,-1,-2,0
1611,209579,-1,-2,0
1612,209589,-1,-2,0
1613,209599,-1,-2,0
1614,209609,-1,-2,0
1615,209619,-1,-2,0
1616,209629,-1,-2,0
1617,209639,-1,-3,0
1618,209649,-1,-2,0
1619,209659,-1,-3,0
1620,209669,-1,-2,0
1621,209679,-1,-2,0
1622,209689,-1,-2,0
1623,209699,-1,-2,0
1624,209709,-1,-2,0
1625,209719,-1,-2,0
1626,209729,-1,-2,0
1627,209739,-1,-2,0
1628,209749,-1,-2,0
1629,209759,-1,-2,0
1630,209769,-1,-2,0
1631,209779,-1,-2,0
1632,209789,-1,-2,0
1633,209799,-1,-2,0
1634,209809,-1,-2,0
1635,209819,-1,-2,0
1636,209829,-1,-2,0
1637,209839,-1,-1,0
1638,209849,-1,-1,0
1639,209859,-1,-2,0
1640,209869,-1,-1,0
1641,209879,-1,-1,0
1642,209889,-1,-1,0
1643,209899,-1,-1,0
1644,209909,-1,-1,0
1645,209919,-1,-1,0
1646,209929,-1,-1,0
1647,209939,-1,-1,0
1648,209949,-1,-1,0
1649,209959,-1,-1,0
1650,209969,-1,-1,0
1651,209979,-1,-1,0
1652,209989,-1,-1,0
1653,209999,-1,-1,0
1654,210009,-1,-1,0
1655,210019,-1,-1,0
1656,210029,-1,-1,0
1657,210039,-1,-1,0
1658,210049,-1,-1,0
1659,210059,-1,-1,0
1660,210069,-1,-1,0
1661,210079,-1,-2,0
1662,210089,-1,-1,0
1663,210099,-1,-1,0
1664,210109,-1,-2,0
1665,210119,-1,-1,0
1666,210129,-1,-1,0
1667,210139,-1,-1,0
1668,210149,-1,-1,0
1669,210159,-1,-2,0
1670,210169,-1,-2,0
1671,210179,-1,-2,0
1672,210189,-1,-1,0
1673,210199,-1,-2,0
1674,210209,-1,-1,0
1675,210219,-1,-2,0
1676,210229,-1,-2,0
1677,210239,-1,-2,0
1678,210249,-1,-1,0
1679,210259,-1,-2,0
1680,210269,-1,-2,0
1681,210279,-1,-2,0
1682,210289,-1,-2,0
1683,210299,-1,-2,0
1684,210309,-1,-2,0
1685,210319,-1,-2,0
1686,210329,-1,-2,0
1687,210339,-1,-2,0
1688,210349,-1,-2,0
1689,210359,-1,-2,0
1690,210369,-1,-3,0
1691,210379,-1,-2,0
1692,210389,-1,-2,0
1693,210399,-1,-2,0
1694,210409,-1,-2,0
1695,210419,-1,-2,0
1696,210429,-1,-2,0
1697,210439,-1,-2,0
1698,210449,-1,-2,0
1699,210459,-1,-3,0
1700,210469,-1,-2,0
1701,210479,-1,-3,0
1702,210489,-1,-2,0
1703,210499,-1,-2,0
1704,210509,-1,-2,0
1705,210519,-1,-2,0
1706,210529,-1,-2,0
1707,210539,-1,-2,0
1708,210549,-1,-2,0
1709,210559,-1,-2,0
1710,210569,-1,-2,0
1711,210579,-1,-2,0
1712,210589,-1,-2,0
1713,210599,-1,-2,0
1714,210609,-1,-2,0
1715,210619,-1,-2,0
1716,210629,-1,-2,0
1717,210639,-1,-2,0
1718,210649,-1,-2,0
1719,210659,-1,-2,0
1720,210669,-1,-2,0
1721,210679,-1,-2,0
1722,210689,-1,-2,0
1723,210699,-1,-1,0
1724,210709,-1,-2,0
1725,210719,-1,-2,0
1726,210729,-1,-1,0
1727,210739,-1,-1,0
1728,210749,-1,-1,0
1729,210759,-1,-1,0
1730,210769,-1,-1,0
1731,210779,-1,-1,0
1732,210789,-1,-1,0
1733,210799,-1,-1,0
1734,210809,-1,-1,0
1735,210819,-1,-1,0
1736,210829,-1,0,0
1737,210839,-1,-1,0
1738,210849,-1,0,0
1739,210859,-1,0,0
1740,210869,-1,-1,0
1741,210879,0,0,0
1742,210889,-1,0,0
1743,210899,-1,0,0
1744,210909,-1,0,0
1745,210919,-1,0,0
1746,210929,-1,0,0
1747,210939,-1,0,0
1748,210949,-1,-1,0
1749,210959,-1,-1,0
1750,210969,-1,0,0
1751,210979,-2,0,0
1752,210989,-1,0,0
1753,210999,-1,-1,0
1754,211009,-1,0,0
1755,211019,-1,-1,0
1756,211029,-1,0,0
1757,211039,-1,0,0
1758,211049,-1,-1,0
1759,211059,-1,-1,0
1760,211069,-1,-1,0
1761,211079,-1,0,0
1762,211089,-1,-1,0
1763,211099,-1,0,0
1764,211109,-1,0,0
1765,211119,-1,-1,0
1766,211129,-1,0,0
1767,211139,-1,0,0
1768,211149,-1,0,0
1769,211159,-1,0,0
1770,211169,-1,0,0
1771,211179,-1,0,0
1772,211189,-1,1,0
1773,211199,-1,0,0
1774,211209,-1,1,0
1775,211219,-1,0,0
1776,211229,-1,0,0
1777,211239,-1,0,0
1778,211249,-1,1,0
1779,211259,-1,0,0
1780,211269,-1,1,0
1781,211279,-1,1,0
1782,211289,-1,1,0
1783,211299,-1,1,0
1784,211309,-1,1,0
1785,211319,-1,1,0
1786,211329,-1,1,0
1787,211339,-1,0,0
1788,211349,-1,1,0
1789,211359,-1,0,0
1790,211369,-1,1,0
1791,211379,-1,1,0
1792,211389,-1,1,0
1793,211399,-1,0,0
1794,211409,-1,1,0
1795,211419,-1,0,0
1796,211429,-1,1,0
1797,211439,-1,1,0
1798,211449,-1,0,0
1799,211459,-1,1,0
1800,211469,-1,1,0
1801,211479,-1,1,0
1802,211489,-1,1,0
1803,211499,-1,1,0
1804,211509,-1,1,0
1805,211519,-1,1,0
1806,211529,-1,1,0
1807,211539,-1,1,0
1808,211549,-1,1,0
1809,211559,-1,1,0
1810,211569,-1,1,0
1811,211579,-1,1,0
1812,211589,-1,1,0
1813,211599,-1,1,0
1814,211609,-1,1,0
1815,211619,-1,1,0
1816,211629,-1,1,0
1817,211639,-1,1,0
1818,211649,-1,1,0
1819,211659,-1,1,0
1820,211669,-1,1,0
1821,211679,-1,1,0
1822,211689,-1,1,0
1823,211699,-1,1,0
1824,211709,-1,1,0
1825,211719,-1,1,0
1826,211729,-1,0,0
1827,211739,-1,1,0
1828,211749,-1,1,0
1829,211759,-1,0,0
1830,211769,-1,1,0
1831,211779,-1,1,0
1832,211789,-1,0,0
1833,211799,-1,1,0
1834,211809,-1,0,0
1835,211819,-1,0,0
1836,211829,-1,0,0
1837,211839,-1,0,0
1838,211849,-1,0,0
1839,211859,-1,0,0
1840,211869,-1,0,0
1841,211879,-1,1,0
1842,211889,-1,0,0
1843,211899,-1,0,0
1844,211909,-1,-1,0
1845,211919,-1,-1,0
1846,211929,-1,0,0
