,ts,acc_x,acc_y,acc_z
0,237370,1,-1,0
1,237380,1,-1,0
2,237390,1,-1,0
3,237400,1,0,0
4,237410,1,0,0
5,237420,1,-1,0
6,237430,1,-1,0
7,237440,1,0,0
8,237450,1,-1,0
9,237460,1,0,0
10,237470,1,-1,0
11,237480,1,-1,0
12,237490,1,-1,0
13,237500,1,0,0
14,237510,1,0,0
15,237520,1,-1,0
16,237530,1,-1,0
17,237540,1,-1,0
18,237550,1,-1,0
19,237560,1,-1,0
20,237570,1,-1,0
21,237580,1,-1,0
22,237590,1,-1,0
23,237600,1,-1,0
24,237610,1,-1,0
25,237620,2,-1,0
26,237630,20,0,0
27,237640,27,-1,0
28,237650,26,-1,0
29,237660,24,0,0
30,237670,22,0,0
31,237680,22,0,0
32,237690,22,-1,0
33,237700,22,0,0
34,237710,22,-1,0
35,237720,21,0,0
36,237730,21,0,0
37,237740,21,-1,0
38,237750,20,0,0
39,237760,20,-1,0
40,237770,20,0,0
41,237780,20,0,0
42,237790,20,-1,0
43,237800,20,0,0
44,237810,20,-1,0
45,237820,20,-1,0
46,237830,19,0,0
47,237840,19,0,0
48,237850,20,0,0
49,237860,19,0,0
50,237870,19,-1,0
51,237880,20,0,0
52,237890,20,-1,0
53,237900,19,0,0
54,237910,19,-1,0
55,237920,20,0,0
56,237930,19,0,0
57,237940,19,0,0
58,237950,18,-1,0
59,237960,18,-1,0
60,237970,19,-1,0
61,237980,19,-1,0
62,237990,19,-1,0
63,238000,19,-1,0
64,238010,19,-1,0
65,238020,18,-1,0
66,238030,19,-1,0
67,238040,18,-1,0
68,238050,18,-1,0
69,238060,18,-1,0
70,238070,19,-1,0
71,238080,18,-1,0
72,238090,18,-1,0
73,238100,18,-1,0
74,238110,18,-1,0
75,238120,18,-1,0
76,238130,19,-1,0
77,238140,18,-1,0
78,238150,18,-1,0
79,238160,18,-2,0
80,238170,18,-2,0
81,238180,18,-1,0
82,238190,18,-1,0
83,238200,18,-1,0
84,238210,18,-1,0
85,238220,19,-1,0
86,238230,18,-1,0
87,238240,18,-1,0
88,238250,18,-1,0
89,238260,18,-1,0
90,238270,18,-1,0
91,238280,18,-1,0
92,238290,18,-1,0
93,238300,18,0,0
94,238310,18,0,0
95,238320,18,0,0
96,238330,19,0,0
97,238340,18,0,0
98,238350,17,1,0
99,238360,18,0,0
100,238370,18,0,0
101,238380,18,0,0
102,238390,18,0,0
103,238400,17,0,0
104,238410,17,0,0
105,238420,17,0,0
106,238430,17,0,0
107,238440,17,-1,0
108,238450,17,-1,0
109,238460,17,-1,0
110,238470,17,0,0
111,238480,17,-1,0
112,238490,17,-1,0
113,238500,17,-1,0
114,238510,17,-1,0
115,238520,18,-1,0
116,238530,18,-2,0
117,238540,17,-2,0
118,238550,17,-2,0
119,238560,17,-2,0
120,238570,17,-2,0
121,238580,16,-2,0
122,238590,16,-1,0
123,238600,16,-2,0
124,238610,16,-1,0
125,238620,16,-1,0
126,238630,16,-1,0
127,238640,16,-1,0
128,238650,17,-2,0
129,238660,16,-1,0
130,238670,16,-1,0
131,238680,16,-1,0
132,238690,16,-1,0
133,238700,16,-1,0
134,238710,16,0,0
135,238720,16,-1,0
136,238730,15,-1,0
137,238740,16,-1,0
138,238750,15,-1,0
139,238760,15,-1,0
140,238770,15,-1,0
141,238780,15,-1,0
142,238790,15,-1,0
143,238800,15,-1,0
144,238810,15,-1,0
145,238820,15,-1,0
146,238830,14,-1,0
147,238840,14,-2,0
148,238850,14,-2,0
149,238860,14,-2,0
150,238870,14,-2,0
151,238880,14,-1,0
152,238890,14,-2,0
153,238900,13,-2,0
154,238910,13,-1,0
155,238920,13,-1,0
156,238930,13,-1,0
157,238940,13,-1,0
158,238950,13,-1,0
159,238960,13,0,0
160,238970,13,-1,0
161,238980,13,-1,0
162,238990,13,-1,0
163,239000,13,-1,0
164,239010,12,-1,0
165,239020,13,-1,0
166,239030,12,-1,0
167,239040,12,-1,0
168,239050,12,-1,0
169,239060,12,-1,0
170,239070,12,-1,0
171,239080,12,-1,0
172,239090,11,-1,0
173,239100,11,-1,0
174,239110,12,-1,0
175,239120,16,-1,0
176,239130,12,-1,0
177,239140,12,-1,0
178,239150,11,-1,0
179,239160,11,-1,0
180,239170,10,-1,0
181,239180,10,-1,0
182,239190,10,-1,0
183,239200,9,-1,0
184,239210,9,-1,0
185,239220,8,0,0
186,239230,8,-1,0
187,239240,7,-1,0
188,239250,6,-1,0
189,239260,6,-1,0
190,239270,6,-1,0
191,239280,5,-1,0
192,239290,5,-1,0
193,239300,4,-1,0
194,239310,4,-1,0
195,239320,3,-1,0
196,239330,3,-1,0
197,239340,2,-1,0
198,239350,1,-1,0
199,239360,0,-1,0
200,239370,0,-1,0
201,239380,0,-1,0
202,239390,0,-1,0
203,239400,-1,-1,0
204,239410,-1,-1,0
205,239420,-1,-1,0
206,239430,-2,-1,0
207,239440,-2,-1,0
208,239450,-2,-1,0
209,239460,-2,-1,0
210,239470,-2,-1,0
211,239480,-2,-1,0
212,239490,-2,-1,0
213,239500,-2,-1,0
214,239510,-3,-1,0
215,239520,-3,-1,0
216,239530,-3,-1,0
217,239540,-3,-1,0
218,239550,-3,-1,0
219,239560,-3,-1,0
220,239570,-3,-1,0
221,239580,-3,-1,0
222,239590,-3,-1,0
223,239600,-3,-1,0
224,239610,-3,-1,0
225,239620,-3,-1,0
226,239630,-3,-1,0
227,239640,-4,-1,0
228,239650,-4,-1,0
229,239660,-4,-1,0
230,239670,-4,-1,0
231,239680,-4,-1,0
232,239690,-4,-1,0
233,239700,-3,-1,0
234,239710,-3,-2,0
235,239720,-4,-1,0
236,239730,-4,-1,0
237,239740,-3,-2,0
238,239750,-4,-2,0
239,239760,-4,-2,0
240,239770,-4,-2,0
241,239780,-4,-1,0
242,239790,-4,-1,0
243,239800,-4,-1,0
244,239810,-4,-1,0
245,239820,-4,-1,0
246,239830,-4,-1,0
247,239840,-4,-1,0
248,239850,-4,-1,0
249,239860,-4,-1,0
250,239870,-4,-1,0
251,239880,-4,-2,0
252,239890,-4,-1,0
253,239900,-3,-1,0
254,239910,-3,-1,0
255,239920,-4,-1,0
256,239930,-4,-1,0
257,239940,-4,-1,0
258,239950,-4,-1,0
259,239960,-4,-1,0
260,239970,-4,-1,0
261,239980,-4,-1,0
262,239990,-4,-1,0
263,240000,-3,-1,0
264,240010,-4,-1,0
265,240020,-4,-1,0
266,240030,-4,-1,0
267,240040,-4,-1,0
268,240050,-4,-1,0
269,240060,-4,-1,0
270,240070,-4,-1,0
271,240080,-4,-1,0
272,240090,-4,-1,0
273,240100,-4,-1,0
274,240110,-4,-1,0
275,240120,-4,-1,0
276,240130,-4,-2,0
277,240140,-4,-1,0
278,240150,-4,-1,0
279,240160,-4,-1,0
280,240170,-4,-1,0
281,240180,-4,-1,0
282,240190,-4,-1,0
283,240200,-4,-1,0
284,240210,-4,-1,0
285,240220,-4,-1,0
286,240230,-4,-1,0
287,240240,-4,-1,0
288,240250,-4,-1,0
289,240260,-4,-1,0
290,240270,-4,-1,0
291,240280,-3,-1,0
292,240290,-3,-1,0
293,240300,-4,-1,0
294,240310,-4,-1,0
295,240320,-4,-1,0
296,240330,-3,-1,0
297,240340,-3,-1,0
298,240350,-4,-1,0
299,240360,-4,-1,0
300,240370,-3,-1,0
301,240380,-3,-1,0
302,240390,-3,-1,0
303,240400,-3,-1,0
304,240410,-3,-1,0
305,240420,-3,-1,0
306,240430,-3,-1,0
307,240440,-3,-1,0
308,240450,-3,-1,0
309,240460,-3,-1,0
310,240470,-3,-1,0
311,240480,-3,-1,0
312,240490,-4,-1,0
313,240500,-4,-1,0
314,240510,-3,-1,0
315,240520,-3,-1,0
316,240530,-3,-1,0
317,240540,-3,-1,0
318,240550,-4,-1,0
319,240560,-3,-1,0
320,240570,-4,-1,0
321,240580,-3,-1,0
322,240590,-3,-1,0
323,240600,-3,-1,0
324,240610,-3,-1,0
325,240620,-3,-1,0
326,240630,-3,-1,0
327,240640,-3,-1,0
328,240650,-3,-1,0
329,240660,-3,-1,0
330,240670,-3,-1,0
331,240680,-3,-1,0
332,240690,-3,-1,0
333,240700,-3,-1,0
334,240710,-3,-1,0
335,240720,-3,-1,0
336,240730,-3,-1,0
337,240740,-3,-1,0
338,240750,-3,-1,0
339,240760,-3,-1,0
340,240770,-3,-1,0
341,240780,-3,-1,0
342,240790,-3,-1,0
343,240800,-3,-1,0
344,240810,-3,-1,0
345,240820,-3,-1,0
346,240830,-3,-1,0
347,240840,-3,-1,0
348,240850,-3,-1,0
349,240860,-3,-1,0
350,240870,-3,-1,0
351,240880,-3,-1,0
352,240890,-3,-1,0
353,240900,-3,-1,0
354,240910,-3,-1,0
355,240920,-3,-1,0
356,240930,-3,-1,0
357,240940,-3,-1,0
358,240950,-3,-1,0
359,240960,-3,-1,0
360,240970,-3,-1,0
361,240980,-3,-1,0
362,240990,-3,-1,0
363,241000,-3,-1,0
364,241010,-3,-1,0
365,241020,-3,-1,0
366,241030,-3,-1,0
367,241040,-3,-1,0
368,241050,-3,-1,0
369,241060,-3,-1,0
370,241070,-3,-1,0
371,241080,-3,-1,0
372,241090,-3,-1,0
373,241100,-3,-1,0
374,241110,-3,-1,0
375,241120,-3,-1,0
376,241130,-3,-1,0
377,241140,-3,-1,0
378,241150,-3,-1,0
379,241160,-3,-1,0
380,241170,-3,-1,0
381,241180,-3,-1,0
382,241190,-3,-1,0
383,241200,-3,-1,0
384,241210,-3,-1,0
385,241220,-3,-1,0
386,241230,-3,-1,0
387,241240,-3,-1,0
388,241250,-3,-1,0
389,241260,-3,-1,0
390,241270,-3,-1,0
391,241280,-3,-1,0
392,241290,-3,-1,0
393,241300,-3,-1,0
394,241310,-2,-1,0
395,241320,-3,-1,0
396,241330,-3,-1,0
397,241340,-2,-1,0
398,241350,-3,-1,0
399,241360,-3,-1,0
400,241370,-3,-1,0
401,241380,-3,-1,0
402,241390,-3,-1,0
403,241400,-3,-1,0
404,241410,-3,-1,0
405,241420,-3,-1,0
406,241430,-3,-1,0
407,241440,-3,-1,0
408,241450,-2,-1,0
409,241460,-3,-1,0
410,241470,-2,-1,0
411,241480,-2,-1,0
412,241490,-3,-1,0
413,241500,-2,-1,0
414,241510,-3,-1,0
415,241520,-2,-1,0
416,241530,-3,-1,0
417,241540,-3,-1,0
418,241550,-2,-1,0
419,241560,-3,-1,0
420,241570,-3,-1,0
421,241580,-3,-1,0
422,241590,-2,-1,0
423,241600,-3,-1,0
424,241610,-2,-1,0
425,241620,-3,-1,0
426,241630,-2,-1,0
427,241640,-3,-1,0
428,241650,-2,-1,0
429,241660,-2,-1,0
430,241670,-2,-1,0
431,241680,-2,-1,0
432,241690,-2,-1,0
433,241700,-2,-1,0
434,241710,-2,-1,0
435,241720,-2,-1,0
436,241730,-2,-1,0
437,241740,-2,-1,0
438,241750,-2,-1,0
439,241760,-2,-1,0
440,241770,-2,-1,0
441,241780,-2,-1,0
442,241790,-2,-1,0
443,241800,-2,-1,0
444,241810,-2,-1,0
445,241820,-2,-1,0
446,241830,-2,-1,0
447,241840,-2,-1,0
448,241850,-2,-1,0
449,241860,-2,-1,0
450,241870,-2,-1,0
451,241880,-2,-1,0
452,241890,-2,-1,0
453,241900,-2,-1,0
454,241910,-2,-1,0
455,241920,-2,-1,0
456,241930,-2,-1,0
457,241940,-2,-1,0
458,241950,-2,-1,0
459,241960,-2,-1,0
460,241970,-2,-1,0
461,241980,-2,-1,0
462,241990,-2,-1,0
463,242000,-2,-1,0
464,242010,-2,-1,0
465,242020,-2,-1,0
466,242030,-2,-1,0
467,242040,-2,-1,0
468,242050,-2,-1,0
469,242060,-2,-1,0
470,242070,-2,-1,0
471,242080,-2,-1,0
472,242090,-2,-1,0
473,242100,-2,-1,0
474,242110,-2,-1,0
475,242120,-2,0,0
476,242130,-2,-1,0
477,242140,-2,-1,0
478,242150,-2,-1,0
479,242160,-2,-1,0
480,242170,-2,-1,0
481,242180,-2,-1,0
482,242190,-2,-1,0
483,242200,-2,-1,0
484,242210,-2,-1,0
485,242220,-2,-1,0
486,242230,-2,-1,0
487,242240,-2,-1,0
488,242250,-2,-1,0
489,242260,-2,-1,0
490,242270,-2,-1,0
491,242280,-2,-1,0
492,242290,-2,-1,0
493,242300,-2,-1,0
494,242310,-2,-1,0
495,242320,-2,-1,0
496,242330,-2,-1,0
497,242340,-2,-1,0
498,242350,-2,-1,0
499,242360,-2,-1,0
500,242370,-2,-1,0
501,242380,-1,-1,0
502,242390,-2,-1,0
503,242400,-2,-1,0
504,242410,-2,-1,0
505,242420,-2,-1,0
506,242430,-2,-1,0
507,242440,-2,-1,0
508,242450,-2,-1,0
509,242460,-2,-1,0
510,242470,-2,-1,0
511,242480,-2,-1,0
512,242490,-2,-1,0
513,242500,-2,-1,0
514,242510,-2,-1,0
515,242520,-2,-1,0
516,242530,-2,-1,0
517,242540,-2,-1,0
518,242550,-2,-1,0
519,242560,-2,-1,0
520,242570,-2,-1,0
521,242580,-2,-1,0
522,242590,-2,-1,0
523,242600,-2,-1,0
524,242610,-2,-1,0
525,242620,-2,-1,0
526,242630,-2,-1,0
527,242640,-2,-1,0
528,242650,-2,-1,0
529,242660,-2,-1,0
530,242670,-2,-1,0
531,242680,-2,-1,0
532,242690,-2,-1,0
533,242700,-2,-1,0
534,242710,-2,-1,0
535,242720,-2,-1,0
536,242730,-2,-1,0
537,242740,-2,-1,0
538,242750,-2,-1,0
539,242760,-2,-1,0
540,242770,-2,-1,0
541,242780,-2,-1,0
542,242790,-2,-1,0
543,242800,-2,-1,0
544,242810,-2,-1,0
545,242820,-2,-1,0
546,242830,-2,-1,0
547,242840,-2,-1,0
548,242850,-1,-1,0
549,242860,-2,-1,0
550,242870,-2,-1,0
551,242880,-2,-1,0
552,242890,-2,-1,0
553,242900,-2,-1,0
554,242910,-2,-1,0
555,242920,-1,-1,0
556,242930,-2,-1,0
557,242940,-2,-1,0
558,242950,-2,-1,0
559,242960,-2,-1,0
560,242970,-2,-1,0
561,242980,-2,-1,0
562,242990,-2,-1,0
563,243000,-2,-1,0
564,243010,-1,-1,0
565,243020,-2,-1,0
566,243030,-2,-1,0
567,243040,-1,-1,0
568,243050,-2,-1,0
569,243060,-2,-1,0
570,243070,-2,-1,0
571,243080,-1,-1,0
572,243090,-2,-1,0
573,243100,-1,-1,0
574,243110,-2,-1,0
575,243120,-2,-1,0
576,243130,-1,-1,0
577,243140,-2,-1,0
578,243150,-1,-1,0
579,243160,-2,-1,0
580,243170,-1,-1,0
581,243180,-2,-1,0
582,243190,-2,-1,0
583,243200,-1,-1,0
584,243210,-1,-1,0
585,243220,-2,-1,0
586,243230,-2,-1,0
587,243240,-1,-1,0
588,243250,-2,-1,0
589,243260,-1,0,0
590,243270,-1,-1,0
591,243280,-1,-1,0
592,243290,-1,-1,0
593,243300,-2,-1,0
594,243310,-1,-1,0
595,243320,-1,-1,0
596,243330,-1,-1,0
597,243340,-1,-1,0
598,243350,-2,-1,0
599,243360,-1,-1,0
600,243370,-2,-1,0
601,243380,-2,-1,0
602,243390,-1,-1,0
603,243400,-2,-1,0
604,243410,-1,-1,0
605,243420,-1,-1,0
606,243430,-2,-1,0
607,243440,-1,-1,0
608,243450,-1,-1,0
609,243460,-1,-1,0
610,243470,-1,-1,0
611,243480,-2,-1,0
612,243490,-1,-1,0
613,243500,-1,-1,0
614,243510,-1,-1,0
615,243520,-1,-1,0
616,243530,-1,-1,0
617,243540,-1,-1,0
618,243550,-1,-1,0
619,243560,-1,-1,0
620,243570,-1,-1,0
621,243580,-1,-1,0
622,243590,-1,-1,0
623,243600,-1,-1,0
624,243610,-1,-1,0
625,243620,-1,-1,0
626,243630,-1,-1,0
627,243640,-2,-1,0
628,243650,-1,-1,0
629,243660,-1,-1,0
630,243670,-1,-1,0
631,243680,-1,-1,0
632,243690,-1,-1,0
633,243700,-1,-1,0
634,243710,-1,-1,0
635,243720,-1,-1,0
636,243730,-1,-1,0
637,243740,-2,-1,0
638,243750,-1,-1,0
639,243760,-1,-1,0
640,243770,-1,-1,0
641,243780,-1,-1,0
642,243790,-1,-1,0
643,243800,-1,-1,0
644,243810,-1,-1,0
645,243820,-1,-1,0
646,243830,-1,-1,0
647,243840,-1,-1,0
648,243850,-1,-1,0
649,243860,-2,-1,0
650,243870,-1,-1,0
651,243880,-1,-1,0
652,243890,-2,-1,0
653,243900,-1,-1,0
654,243910,-1,-1,0
655,243920,-1,-1,0
656,243930,-1,-1,0
657,243940,-1,-1,0
658,243950,-1,-1,0
659,243960,-1,-1,0
660,243970,-1,-1,0
661,243980,-1,-1,0
662,243990,-1,-1,0
663,244000,-1,-1,0
664,244010,-1,-1,0
665,244020,-1,-1,0
666,244030,-1,-1,0
667,244040,-1,-1,0
668,244050,-1,-1,0
669,244060,-1,-1,0
670,244070,-1,-1,0
671,244080,-1,-1,0
672,244090,-1,-1,0
673,244100,-1,-1,0
674,244110,-1,-1,0
675,244120,-1,-1,0
676,244130,-1,-1,0
677,244140,-1,-1,0
678,244150,-1,-1,0
679,244160,-1,-1,0
680,244170,-1,-1,0
681,244180,-1,-1,0
682,244190,-1,-1,0
683,244200,-1,-1,0
684,244210,-1,-1,0
685,244220,-1,-1,0
686,244230,-1,-1,0
687,244240,-1,-1,0
688,244250,-1,-1,0
689,244260,-1,-1,0
690,244270,-1,-1,0
691,244280,-1,-1,0
692,244290,-1,-1,0
693,244300,-1,-1,0
694,244310,-1,-1,0
695,244320,-1,-1,0
696,244330,-1,0,0
697,244340,-1,-1,0
698,244350,-1,-1,0
699,244360,-1,-1,0
700,244370,-1,-1,0
701,244380,-1,-1,0
702,244390,-1,-1,0
703,244400,-1,-1,0
704,244410,-1,-1,0
705,244420,-1,-1,0
706,244430,-1,-1,0
707,244440,-1,-1,0
708,244450,-1,-1,0
709,244460,-1,-1,0
710,244470,-1,-1,0
711,244480,-1,-1,0
712,244490,-1,-1,0
713,244500,-1,-1,0
714,244510,-1,-1,0
715,244520,-1,-1,0
716,244530,-1,-1,0
717,244540,-1,0,0
718,244550,-1,-1,0
719,244560,-1,-1,0
720,244570,-1,-1,0
721,244580,-1,-1,0
722,244590,-1,-1,0
723,244600,-1,0,0
724,244610,-1,0,0
725,244620,-1,-1,0
726,244630,-1,-1,0
727,244640,-1,-1,0
728,244650,-1,-1,0
729,244660,-1,-1,0
730,244670,-1,-1,0
731,244680,-1,-1,0
732,244690,-1,-1,0
733,244700,-1,-1,0
734,244710,-1,-1,0
735,244720,-1,-1,0
736,244730,-1,-1,0
737,244740,-1,-1,0
738,244750,-1,-1,0
739,244760,-1,-1,0
740,244770,-1,-1,0
741,244780,-1,-1,0
742,244790,-1,-1,0
743,244800,-1,-1,0
744,244810,-1,0,0
745,244820,-1,-1,0
746,244830,-1,-1,0
747,244840,-1,-1,0
748,244850,-1,-1,0
749,244860,-1,-1,0
750,244870,-1,-1,0
751,244880,-1,-1,0
752,244890,-1,-1,0
753,244900,-1,-1,0
754,244910,-1,-1,0
755,244920,-1,-1,0
756,244930,-1,-1,0
757,244940,-1,-1,0
758,244950,-1,-1,0
759,244960,-1,-1,0
760,244970,-1,-1,0
761,244980,-1,-1,0
762,244990,-1,-1,0
763,245000,-1,-1,0
764,245010,-1,-1,0
765,245020,-1,-1,0
766,245030,-1,-1,0
767,245040,-1,-1,0
768,245050,-1,-1,0
769,245060,-1,-1,0
770,245070,-1,-1,0
771,245080,-1,-1,0
772,245090,-1,-1,0
773,245100,-1,-1,0
774,245110,-1,-1,0
775,245120,-1,-1,0
776,245130,-1,-1,0
777,245140,-1,-1,0
778,245150,-1,-1,0
779,245160,-1,-1,0
780,245170,-1,0,0
781,245180,-1,0,0
782,245190,-1,0,0
783,245200,-1,0,0
784,245210,-1,0,0
785,245220,-1,-1,0
786,245230,-1,-1,0
787,245240,-1,0,0
788,245250,-1,-1,0
789,245260,-1,-1,0
790,245270,-1,-1,0
791,245280,-1,-1,0
792,245290,-1,-1,0
793,245300,-1,-1,0
794,245310,-1,-1,0
795,245320,-1,-1,0
796,245330,-1,-1,0
797,245340,-1,-1,0
798,245350,-1,-1,0
799,245360,-1,-1,0
800,245370,-1,-1,0
801,245380,-1,-1,0
802,245390,-1,-1,0
803,245400,-1,-1,0
804,245410,-1,-1,0
805,245420,-1,-1,0
806,245430,-1,-1,0
807,245440,-1,-1,0
808,245450,-1,-1,0
809,245460,-1,-1,0
810,245470,-1,-1,0
811,245480,-1,-1,0
812,245490,-1,-1,0
813,245500,-1,-1,0
814,245510,-1,-1,0
815,245520,-1,-1,0
816,245530,-1,-1,0
817,245540,-1,-1,0
818,245550,-1,-1,0
819,245560,-1,-1,0
820,245570,-1,-1,0
821,245580,-1,-1,0
822,245590,-1,-1,0
823,245600,-1,-1,0
824,245610,-1,-1,0
825,245620,-1,-1,0
826,245630,-1,-1,0
827,245640,-1,-1,0
828,245650,-1,-1,0
829,245660,-1,-1,0
830,245670,-1,-1,0
831,245680,-1,-1,0
832,245690,-1,-1,0
833,245700,-1,-1,0
834,245710,-1,-1,0
835,245720,-1,0,0
836,245730,-1,-1,0
837,245740,-1,-1,0
838,245750,-1,-1,0
839,245760,-1,-1,0
840,245770,-1,-1,0
841,245780,-1,-1,0
842,245790,-1,-1,0
843,245800,-1,-1,0
844,245810,-1,-1,0
845,245820,-1,-1,0
846,245830,-1,-1,0
847,245840,-1,0,0
848,245850,-1,-1,0
849,245860,-1,-1,0
850,245870,-1,-1,0
851,245880,-1,-1,0
852,245890,-1,-1,0
853,245900,-1,-1,0
854,245910,-1,-1,0
855,245920,-1,-1,0
856,245930,-1,-1,0
857,245940,-1,0,0
858,245950,-1,-1,0
859,245960,-1,0,0
860,245970,-1,-1,0
861,245980,-1,-1,0
862,245990,-1,-1,0
863,246000,-1,-1,0
864,246010,-1,-1,0
865,246020,-1,-1,0
866,246030,-1,-1,0
867,246040,-1,-1,0
868,246050,-1,-1,0
869,246060,-1,-1,0
870,246070,-1,-1,0
871,246080,-1,-1,0
872,246090,-1,-1,0
873,246100,-1,-1,0
874,246110,-1,-1,0
875,246120,-1,-1,0
876,246130,-1,-1,0
877,246140,-1,-1,0
878,246150,-1,-1,0
879,246160,-1,-1,0
880,246170,-1,-1,0
881,246180,-1,-1,0
882,246190,-1,-1,0
883,246200,-1,-1,0
884,246210,-1,-1,0
885,246220,-1,-1,0
886,246230,-1,-1,0
887,246240,-1,-1,0
888,246250,-1,-1,0
889,246260,-1,-1,0
890,246270,-1,-1,0
891,246280,-1,-1,0
892,246290,-1,-1,0
893,246300,-1,-1,0
894,246310,-1,-1,0
895,246320,-1,-1,0
896,246330,-1,-1,0
897,246340,-1,-1,0
898,246350,-1,-1,0
899,246360,-1,-1,0
900,246370,-1,-1,0
901,246380,-1,-1,0
902,246390,-1,-1,0
903,246400,-1,-1,0
904,246410,-1,-1,0
905,246420,-1,-1,0
906,246430,-1,-1,0
907,246440,-1,-1,0
908,246450,-1,-1,0
909,246460,-1,-1,0
910,246470,-1,-1,0
911,246480,-1,-1,0
912,246490,-1,-1,0
913,246500,-1,-1,0
914,246510,-1,-1,0
915,246520,-1,-1,0
916,246530,-1,-1,0
917,246540,-1,-1,0
918,246550,-1,-1,0
919,246560,-1,-1,0
920,246570,-1,-1,0
921,246580,-1,-1,0
922,246590,-1,-1,0
923,246600,-1,-1,0
924,246610,-1,-1,0
925,246620,-1,-1,0
926,246630,-1,-1,0
927,246640,-1,-1,0
928,246650,-1,-1,0
929,246660,-1,-1,0
930,246670,-1,-1,0
931,246680,-1,-1,0
932,246690,-1,-1,0
933,246700,-1,0,0
934,246710,-1,-1,0
935,246720,0,-1,0
936,246730,-1,-1,0
937,246740,-1,-1,0
938,246750,-1,-1,0
939,246760,-1,-1,0
940,246770,-1,-1,0
941,246780,-1,-1,0
942,246790,-1,-1,0
943,246800,-1,-1,0
944,246810,-1,-1,0
945,246820,-1,-1,0
946,246830,-1,-1,0
947,246840,-1,-1,0
948,246850,-1,-1,0
949,246860,-1,-1,0
950,246870,-1,-1,0
951,246880,-1,-1,0
952,246890,-1,-1,0
953,246900,-1,0,0
954,246910,-1,-1,0
955,246920,-1,-1,0
956,246930,-1,-1,0
957,246940,-1,-1,0
958,246950,-1,-1,0
959,246960,-1,-1,0
960,246970,-1,-1,0
961,246980,0,-1,0
962,246990,-1,-1,0
963,247000,-1,-1,0
964,247010,-1,-1,0
965,247020,-1,-1,0
966,247030,-1,-1,0
967,247040,-1,-1,0
968,247050,-1,-1,0
969,247060,-1,-1,0
970,247070,0,-1,0
971,247080,-1,-1,0
972,247090,-1,-1,0
973,247100,-1,-1,0
974,247110,-1,-1,0
975,247120,-1,-1,0
976,247130,-1,-1,0
977,247140,-1,-1,0
978,247150,-1,-1,0
979,247160,-1,-1,0
980,247170,-1,-1,0
981,247180,0,-1,0
982,247190,-1,-1,0
983,247200,-1,-1,0
984,247210,-1,-1,0
985,247220,-1,0,0
986,247230,-1,-1,0
987,247240,-1,-1,0
988,247250,-1,-1,0
989,247260,-1,-1,0
990,247270,-1,-1,0
991,247280,-1,-1,0
992,247290,-1,-1,0
993,247300,-1,-1,0
994,247310,-1,-1,0
995,247320,-1,-1,0
996,247330,-1,-1,0
997,247340,0,-1,0
998,247350,-1,-1,0
999,247360,-1,-1,0
1000,247370,-1,-1,0
1001,247380,-1,-1,0
1002,247390,-1,-1,0
1003,247400,-1,-1,0
1004,247410,-1,-1,0
1005,247420,0,-1,0
1006,247430,-1,-1,0
1007,247440,-1,-1,0
1008,247450,0,-1,0
1009,247460,-1,-1,0
1010,247470,-1,-1,0
1011,247480,-1,-1,0
1012,247490,-1,-1,0
1013,247500,-1,-1,0
1014,247510,0,-1,0
1015,247520,-1,-1,0
1016,247530,-1,-1,0
1017,247540,-1,-1,0
1018,247550,-1,-1,0
1019,247560,-1,-1,0
1020,247570,-1,-1,0
1021,247580,-1,-1,0
1022,247590,-1,-1,0
1023,247600,-1,-1,0
1024,247610,0,-1,0
1025,247620,-1,0,0
1026,247630,-1,-1,0
1027,247640,-1,0,0
1028,247650,0,-1,0
1029,247660,-1,-1,0
1030,247670,-1,-1,0
1031,247680,0,0,0
1032,247690,0,-1,0
1033,247700,-1,-1,0
1034,247710,-1,-1,0
1035,247720,-1,-1,0
1036,247730,-1,-1,0
1037,247740,-1,-1,0
1038,247750,-1,-1,0
1039,247760,-1,-1,0
1040,247770,-1,-1,0
1041,247780,-1,-1,0
1042,247790,-1,-1,0
1043,247800,-1,-1,0
1044,247810,-1,-1,0
1045,247820,-1,-1,0
1046,247830,-1,-1,0
1047,247840,0,-1,0
1048,247850,-1,-1,0
1049,247860,-1,-1,0
1050,247870,-1,-1,0
1051,247880,0,-1,0
1052,247890,-1,-1,0
1053,247900,-1,-1,0
1054,247910,-1,-1,0
1055,247920,0,-1,0
1056,247930,0,-1,0
1057,247940,-1,-1,0
1058,247950,-1,-1,0
1059,247960,-1,-1,0
1060,247970,-1,-1,0
1061,247980,0,-1,0
1062,247990,-1,-1,0
1063,248000,-1,-1,0
1064,248010,-1,-1,0
1065,248020,-1,-1,0
1066,248030,-1,-1,0
1067,248040,0,-1,0
1068,248050,-1,-1,0
1069,248060,-1,-1,0
1070,248070,-1,-1,0
1071,248080,-1,-1,0
1072,248090,-1,-1,0
1073,248100,-1,-1,0
1074,248110,0,-1,0
1075,248120,0,-1,0
1076,248130,0,-1,0
1077,248140,-1,-1,0
1078,248150,0,-1,0
1079,248160,0,-1,0
1080,248170,0,-1,0
1081,248180,-1,-1,0
1082,248190,-1,-1,0
1083,248200,-1,-1,0
1084,248210,-1,0,0
1085,248220,-1,-1,0
1086,248230,-1,-1,0
1087,248240,-1,-1,0
1088,248250,-1,-1,0
1089,248260,-1,-1,0
1090,248270,-1,-1,0
1091,248280,-1,-1,0
1092,248290,-1,-1,0
1093,248300,-1,0,0
1094,248310,0,-1,0
1095,248320,-1,-1,0
1096,248330,-1,-1,0
1097,248340,-1,-1,0
1098,248350,0,-1,0
1099,248360,-1,-1,0
1100,248370,0,-1,0
1101,248380,0,-1,0
1102,248390,-1,0,0
1103,248400,-1,-1,0
1104,248410,-1,-1,0
1105,248420,0,-1,0
1106,248430,-1,-1,0
1107,248440,-1,-1,0
1108,248450,-1,-1,0
1109,248460,-1,-1,0
1110,248470,-1,-1,0
1111,248480,-1,0,0
1112,248490,0,-1,0
1113,248500,-1,-1,0
1114,248510,-1,-1,0
1115,248520,-1,-1,0
1116,248530,-1,-1,0
1117,248540,-1,-1,0
1118,248550,-1,-1,0
1119,248560,-1,-1,0
1120,248570,0,-1,0
1121,248580,-1,-1,0
1122,248590,0,-1,0
1123,248600,-1,-1,0
1124,248610,0,-1,0
1125,248620,-1,-1,0
1126,248630,-1,-1,0
1127,248640,-1,-1,0
1128,248650,-1,-1,0
1129,248660,-1,-1,0
1130,248670,0,-1,0
1131,248680,0,-1,0
1132,248690,-1,-1,0
1133,248700,0,-1,0
1134,248710,-1,-1,0
1135,248720,-1,-1,0
1136,248730,-1,-1,0
1137,248740,-1,-1,0
1138,248750,-1,-1,0
1139,248760,-1,-1,0
1140,248770,0,-1,0
1141,248780,0,-1,0
1142,248790,-1,-1,0
1143,248800,-1,-1,0
1144,248810,-1,-1,0
1145,248820,0,-1,0
1146,248830,0,-1,0
1147,248840,-1,-1,0
1148,248850,0,-1,0
1149,248860,0,-1,0
1150,248870,-1,-1,0
1151,248880,-1,-1,0
1152,248890,-1,-1,0
1153,248900,-1,0,0
1154,248910,-1,-1,0
1155,248920,-1,-1,0
1156,248930,0,-1,0
1157,248940,-1,-1,0
1158,248950,-1,-1,0
1159,248960,0,-1,0
1160,248970,0,-1,0
1161,248980,0,-1,0
1162,248990,0,-1,0
1163,249000,-1,-1,0
1164,249010,-1,-1,0
1165,249020,-1,-1,0
1166,249030,-1,-1,0
1167,249040,0,-1,0
1168,249050,-1,-1,0
1169,249060,0,-1,0
1170,249070,0,-1,0
1171,249080,-1,-1,0
1172,249090,-1,-1,0
1173,249100,-1,-1,0
1174,249110,0,-1,0
1175,249120,-1,-1,0
1176,249130,-1,-1,0
1177,249140,-1,-1,0
1178,249150,-1,-1,0
1179,249160,-1,-1,0
1180,249170,0,-1,0
1181,249180,-1,-1,0
1182,249190,0,-1,0
1183,249200,0,-1,0
1184,249210,-1,-1,0
1185,249220,0,-1,0
1186,249230,0,-1,0
1187,249240,-1,-1,0
1188,249250,0,-1,0
1189,249260,-1,-1,0
1190,249270,-1,-1,0
1191,249280,0,-1,0
1192,249290,-1,-1,0
1193,249300,0,-1,0
1194,249310,0,-1,0
1195,249320,-1,-1,0
1196,249330,-1,-1,0
1197,249340,-1,-1,0
1198,249350,0,-1,0
1199,249360,-1,0,0
1200,249370,-1,-1,0
1201,249380,0,-1,0
1202,249390,-1,0,0
1203,249400,-1,-1,0
1204,249410,0,-1,0
1205,249420,-1,-1,0
1206,249430,0,-1,0
1207,249440,0,-1,0
1208,249450,0,-1,0
1209,249460,-1,-1,0
1210,249470,0,0,0
1211,249480,-1,-1,0
1212,249490,-1,-1,0
1213,249500,-1,-1,0
1214,249510,0,-1,0
1215,249520,-1,-1,0
1216,249530,0,-1,0
1217,249540,-1,-1,0
1218,249550,-1,-1,0
1219,249560,-1,-1,0
1220,249570,-1,-1,0
1221,249580,-1,-1,0
1222,249590,0,-1,0
1223,249600,0,-1,0
1224,249610,0,-1,0
1225,249620,0,-1,0
1226,249630,-1,-1,0
1227,249640,-1,-1,0
1228,249650,-1,-1,0
1229,249660,-1,-1,0
1230,249670,0,0,0
1231,249680,-1,-1,0
1232,249690,-1,-1,0
1233,249700,-1,-1,0
1234,249710,0,-1,0
1235,249720,-1,-1,0
1236,249730,0,-1,0
1237,249740,-1,0,0
1238,249750,-1,-1,0
1239,249760,-1,-1,0
1240,249770,0,-1,0
1241,249780,-1,-1,0
1242,249790,0,-1,0
1243,249800,0,-1,0
1244,249810,-1,-1,0
1245,249820,0,-1,0
1246,249830,0,-1,0
1247,249840,-1,-1,0
1248,249850,-1,-1,0
1249,249860,-1,-1,0
1250,249870,0,-1,0
1251,249880,-1,-1,0
1252,249890,-1,-1,0
1253,249900,-1,-1,0
1254,249910,0,-1,0
1255,249920,0,-1,0
1256,249930,0,-1,0
1257,249940,0,-1,0
1258,249950,-1,-1,0
1259,249960,-1,-1,0
1260,249970,-1,-1,0
1261,249980,0,-1,0
1262,249990,0,-1,0
1263,250000,-1,-1,0
1264,250010,-1,-1,0
1265,250020,-1,-1,0
1266,250030,-1,-1,0
1267,250040,0,-1,0
1268,250050,-1,0,0
1269,250060,-1,-1,0
1270,250070,-1,-1,0
1271,250080,-1,-1,0
1272,250090,0,-1,0
1273,250100,-1,-1,0
1274,250110,-1,-1,0
1275,250120,-1,-1,0
1276,250130,0,-1,0
1277,250140,0,-1,0
1278,250150,-1,-1,0
1279,250160,-1,-1,0
1280,250170,-1,-1,0
1281,250180,0,-1,0
1282,250190,0,0,0
1283,250200,0,-1,0
1284,250210,0,-1,0
1285,250220,-1,-1,0
1286,250230,0,-1,0
1287,250240,-1,-1,0
1288,250250,-1,0,0
1289,250260,-1,-1,0
1290,250270,0,-1,0
1291,250280,-1,-1,0
1292,250290,-1,-1,0
1293,250300,-1,-1,0
1294,250310,-1,-1,0
1295,250320,-1,-1,0
1296,250330,-1,-1,0
1297,250340,-1,-1,0
1298,250350,0,-1,0
1299,250360,0,-1,0
1300,250370,-1,-1,0
1301,250380,-1,-1,0
1302,250390,-1,-1,0
1303,250400,-1,0,0
1304,250410,-1,-1,0
1305,250420,-1,-1,0
1306,250430,0,-1,0
1307,250440,0,0,0
1308,250450,0,-1,0
1309,250460,-1,-1,0
1310,250470,0,-1,0
1311,250480,-1,-1,0
1312,250490,0,-1,0
1313,250500,0,-1,0
1314,250510,-1,-1,0
1315,250520,-1,-1,0
1316,250530,-1,-1,0
1317,250540,-1,0,0
1318,250550,0,-1,0
1319,250560,0,-1,0
1320,250570,-1,0,0
1321,250580,0,-1,0
1322,250590,-1,-1,0
1323,250600,0,-1,0
1324,250610,-1,-1,0
1325,250620,-1,-1,0
1326,250630,0,-1,0
1327,250640,-1,-1,0
1328,250650,0,0,0
1329,250660,-1,-1,0
1330,250670,-1,-1,0
1331,250680,0,-1,0
1332,250690,-1,-1,0
1333,250700,-1,-1,0
1334,250710,-1,-1,0
1335,250720,0,-1,0
1336,250730,0,-1,0
1337,250740,-1,0,0
1338,250750,-1,0,0
1339,250760,-1,-1,0
1340,250770,0,-1,0
1341,250780,-1,-1,0
1342,250790,-1,-1,0
1343,250800,0,-1,0
1344,250810,0,-1,0
1345,250820,-1,-1,0
1346,250830,0,-1,0
1347,250840,0,0,0
1348,250850,0,-1,0
1349,250860,-1,-1,0
1350,250870,-1,0,0
1351,250880,0,0,0
1352,250890,-1,-1,0
1353,250900,0,0,0
1354,250910,-1,-1,0
1355,250920,-1,-1,0
1356,250930,-1,-1,0
1357,250940,-1,0,0
1358,250950,-1,-1,0
1359,250960,0,-1,0
1360,250970,-1,-1,0
1361,250980,0,0,0
1362,250990,0,0,0
1363,251000,-1,0,0
1364,251010,0,-1,0
1365,251020,-1,-1,0
1366,251030,-1,-1,0
1367,251040,-1,-1,0
1368,251050,0,-1,0
1369,251060,-1,0,0
1370,251070,0,-1,0
1371,251080,0,0,0
1372,251090,0,-1,0
1373,251100,0,0,0
1374,251110,0,0,0
1375,251120,-1,0,0
1376,251130,-1,0,0
1377,251140,-1,-1,0
1378,251150,-1,-1,0
1379,251160,6,-1,0
1380,251170,39,0,0
1381,251180,76,0,0
1382,251190,-18,3,0
1383,251200,-10,0,0
1384,251210,-3,-1,0
1385,251220,-2,-1,0
1386,251230,-1,-1,0
1387,251240,0,-1,0
1388,251250,0,-1,0
1389,251260,-1,-1,0
1390,251270,0,-1,0
1391,251280,-1,-1,0
1392,251290,-1,-1,0
1393,251300,-1,0,0
1394,251310,-1,-1,0
1395,251320,-1,-1,0
1396,251330,-1,-1,0
1397,251340,-1,-1,0
1398,251350,-1,0,0
1399,251360,-1,0,0
1400,251370,-1,-1,0
1401,251380,-1,-1,0
1402,251390,-1,0,0
1403,251400,-2,0,0
1404,251410,-2,0,0
1405,251420,-1,0,0
1406,251430,-1,0,0
1407,251440,-1,-1,0
1408,251450,-1,-1,0
1409,251460,-1,-1,0
1410,251470,-1,-1,0
1411,251480,-18,7,0
1412,251490,-38,16,0
1413,251500,-44,10,0
1414,251510,-30,1,0
1415,251520,8,-1,0
1416,251530,5,-1,0
1417,251540,0,-1,0
1418,251550,0,-1,0
1419,251560,0,-1,0
1420,251570,0,-1,0
1421,251580,0,-1,0
1422,251590,0,-1,0
1423,251600,0,-1,0
1424,251610,0,-1,0
1425,251620,0,-1,0
1426,251630,0,-1,0
1427,251640,0,-1,0
1428,251650,0,-1,0
1429,251660,0,-1,0
1430,251670,0,-1,0
1431,251680,0,-1,0
1432,251690,0,-1,0
1433,251700,0,-1,0
1434,251710,0,-1,0
1435,251720,0,-1,0
1436,251730,0,-1,0
1437,251740,0,-1,0
1438,251750,0,-1,0
1439,251760,0,-1,0
1440,251770,0,-1,0
1441,251780,0,-1,0
1442,251790,0,-1,0
1443,251800,0,-1,0
1444,251810,0,-1,0
1445,251820,0,-1,0
1446,251830,0,-1,0
1447,251840,0,-1,0
1448,251850,0,-1,0
1449,251860,0,-1,0
1450,251870,0,-1,0
1451,251880,0,-1,0
1452,251890,0,-1,0
1453,251900,0,-1,0
1454,251910,0,-1,0
1455,251920,0,-1,0
1456,251930,0,-1,0
1457,251940,0,-1,0
1458,251950,0,-1,0
1459,251960,-1,-1,0
1460,251970,-1,-1,0
1461,251980,-1,-1,0
1462,251990,0,-1,0
1463,252000,-1,-1,0
1464,252010,-1,-2,0
1465,252020,0,-2,0
1466,252030,-1,-1,0
1467,252040,-1,-1,0
1468,252050,0,-1,0
1469,252060,-1,-1,0
1470,252070,-1,-1,0
1471,252080,-1,-2,0
1472,252090,-1,-1,0
1473,252100,0,-1,0
1474,252110,-1,-1,0
1475,252120,0,-1,0
1476,252130,-1,-1,0
1477,252140,-1,-1,0
1478,252150,-1,-1,0
1479,252160,-1,-1,0
1480,252170,0,-1,0
1481,252180,0,-1,0
1482,252190,-1,-1,0
1483,252200,-1,-1,0
1484,252210,-1,-1,0
1485,252220,-1,0,0
1486,252230,-1,0,0
1487,252240,-1,0,0
1488,252250,-1,0,0
1489,252260,-1,0,0
1490,252270,-1,0,0
1491,252280,-1,0,0
1492,252290,-1,0,0
1493,252300,-1,0,0
1494,252310,-1,0,0
1495,252320,-1,1,0
1496,252330,-1,0,0
1497,252340,-1,1,0
1498,252350,-1,1,0
1499,252360,-1,1,0
1500,252370,-1,1,0
1501,252380,-1,1,0
1502,252390,-1,1,0
1503,252400,-1,1,0
1504,252410,-1,2,0
1505,252420,-1,3,0
1506,252430,-1,3,0
1507,252440,-1,2,0
1508,252450,-1,2,0
1509,252460,-1,1,0
1510,252470,-1,1,0
1511,252480,-1,1,0
1512,252490,-1,1,0
1513,252500,-1,1,0
1514,252510,-1,1,0
1515,252520,-2,1,0
1516,252530,-1,1,0
1517,252540,-1,1,0
1518,252550,-1,1,0
1519,252560,-1,1,0
1520,252570,-1,1,0
1521,252580,-1,1,0
1522,252590,-1,1,0
1523,252600,-1,1,0
1524,252610,-1,0,0
1525,252620,-1,0,0
1526,252630,-1,0,0
1527,252640,-1,0,0
1528,252650,-1,0,0
1529,252660,-1,-1,0
1530,252670,-1,0,0
1531,252680,-1,0,0
1532,252690,-1,0,0
1533,252700,-1,0,0
1534,252710,-2,0,0
1535,252720,-2,0,0
1536,252730,-2,0,0
1537,252740,-1,0,0
1538,252750,-1,0,0
1539,252760,-1,0,0
1540,252770,-1,0,0
1541,252780,-1,0,0
1542,252790,-1,0,0
1543,252800,-1,0,0
1544,252810,-1,0,0
1545,252820,-1,0,0
1546,252830,-1,0,0
1547,252840,-1,1,0
1548,252850,-1,1,0
1549,252860,-2,1,0
1550,252870,-1,1,0
1551,252880,-1,1,0
1552,252890,-1,1,0
1553,252900,-1,1,0
1554,252910,-1,1,0
1555,252920,-1,1,0
1556,252930,-1,1,0
1557,252940,-1,1,0
1558,252950,-1,1,0
1559,252960,-1,1,0
1560,252970,-1,1,0
1561,252980,-1,0,0
1562,252990,-1,1,0
1563,253000,-1,0,0
1564,253010,-1,0,0
1565,253020,-1,0,0
1566,253030,-1,0,0
1567,253040,-1,0,0
1568,253050,-1,0,0
1569,253060,-1,0,0
1570,253070,-1,0,0
1571,253080,-1,0,0
1572,253090,-1,0,0
1573,253100,-1,0,0
1574,253110,-1,-1,0
1575,253120,-1,-1,0
1576,253130,-1,-1,0
1577,253140,-1,-1,0
1578,253150,-1,-1,0
1579,253160,-2,-1,0
1580,253170,-2,-1,0
1581,253180,-1,-1,0
1582,253190,-2,-1,0
1583,253200,-2,-1,0
1584,253210,-2,-1,0
1585,253220,-2,-1,0
1586,253230,-2,-1,0
1587,253240,-2,-1,0
1588,253250,-2,-1,0
1589,253260,-2,-1,0
1590,253270,-2,0,0
1591,253280,-2,0,0
1592,253290,-2,0,0
1593,253300,-2,0,0
1594,253310,-2,1,0
1595,253320,-2,0,0
1596,253330,-2,0,0
1597,253340,-2,0,0
1598,253350,-2,0,0
1599,253360,-1,0,0
1600,253370,-1,0,0
1601,253380,-1,0,0
1602,253390,-1,-1,0
1603,253400,-1,-1,0
1604,253410,-1,-1,0
1605,253420,-1,-1,0
1606,253430,-1,-1,0
1607,253440,-1,-1,0
1608,253450,-1,-1,0
1609,253460,-1,-1,0
1610,253470,-1,-1,0
1611,253480,-1,-1,0
1612,253490,-1,-1,0
1613,253500,-1,-1,0
1614,253510,-1,-1,0
1615,253520,-1,-1,0
1616,253530,-1,-1,0
1617,253540,-1,-1,0
1618,253550,-1,-1,0
1619,253560,-1,-1,0
1620,253570,-1,-1,0
1621,253580,-1,-1,0
1622,253590,-1,-1,0
1623,253600,-1,-2,0
1624,253610,-1,-1,0
1625,253620,-1,-2,0
1626,253630,-1,-1,0
1627,253640,-1,-1,0
1628,253650,-1,-1,0
1629,253660,-1,-1,0
1630,253670,-1,-1,0
1631,253680,-1,-1,0
1632,253690,-1,-1,0
1633,253700,-1,-1,0
1634,253710,-1,-2,0
1635,253720,-1,-1,0
1636,253730,-1,-1,0
1637,253740,-1,-1,0
1638,253750,-1,-2,0
1639,253760,-1,-1,0
1640,253770,-1,-2,0
1641,253780,-1,-2,0
1642,253790,-1,-2,0
1643,253800,0,-2,0
1644,253810,-1,-2,0
1645,253820,-1,-1,0
1646,253830,-1,-2,0
1647,253840,-1,-1,0
1648,253850,-1,-1,0
1649,253860,-1,-1,0
1650,253870,-1,-1,0
1651,253880,0,-1,0
1652,253890,0,-2,0
1653,253900,0,-1,0
1654,253910,-1,-1,0
1655,253920,-1,-1,0
1656,253930,-1,-1,0
1657,253940,-1,-2,0
1658,253950,-1,-1,0
1659,253960,0,-2,0
1660,253970,-1,-1,0
1661,253980,-1,-1,0
1662,253990,-1,-1,0
1663,254000,-1,-1,0
1664,254010,-1,-1,0
1665,254020,0,-1,0
1666,254030,0,-1,0
1667,254040,-1,-1,0
1668,254050,0,-1,0
1669,254060,-1,-1,0
1670,254070,-1,-1,0
1671,254080,0,-1,0
1672,254090,0,-1,0
1673,254100,-1,-1,0
1674,254110,-1,-1,0
1675,254120,-1,-1,0
1676,254130,-1,-1,0
1677,254140,-1,-1,0
1678,254150,0,-1,0
1679,254160,-1,-1,0
1680,254170,-1,-1,0
1681,254180,0,-1,0
1682,254190,-1,-1,0
1683,254200,0,-1,0
1684,254210,-1,-1,0
1685,254220,0,-1,0
1686,254230,-1,-1,0
1687,254240,-1,-1,0
1688,254250,-1,-1,0
1689,254260,-1,-1,0
1690,254270,-1,-1,0
1691,254280,-1,-1,0
1692,254290,-1,-1,0
1693,254300,-1,-1,0
1694,254310,-1,-1,0
1695,254320,-1,-1,0
1696,254330,-1,-2,0
1697,254340,-1,-2,0
1698,254350,-1,-2,0
1699,254360,-1,-2,0
1700,254370,-1,-2,0
1701,254380,-1,-2,0
1702,254390,-1,-2,0
1703,254400,-1,-1,0
1704,254410,-1,-1,0
1705,254420,-1,-1,0
1706,254430,-1,-1,0
1707,254440,-1,-1,0
1708,254450,-1,-1,0
1709,254460,-1,-1,0
1710,254470,-1,-1,0
1711,254480,-1,-1,0
1712,254490,-1,-1,0
1713,254500,-1,0,0
1714,254510,-1,0,0
1715,254520,-1,0,0
1716,254530,-1,0,0
1717,254540,-1,0,0
1718,254550,-1,0,0
1719,254560,-1,0,0
1720,254570,-1,0,0
1721,254580,-1,0,0
1722,254590,-1,0,0
1723,254600,-1,0,0
1724,254610,-1,0,0
1725,254620,-1,0,0
1726,254630,-1,0,0
1727,254640,-1,0,0
1728,254650,-1,0,0
1729,254660,-2,0,0
1730,254670,-2,1,0
1731,254680,-1,1,0
1732,254690,-2,1,0
1733,254700,-2,1,0
1734,254710,-1,1,0
1735,254720,-1,0,0
1736,254730,-1,0,0
1737,254740,-1,1,0
1738,254750,-1,0,0
1739,254760,-2,0,0
1740,254770,-2,1,0
1741,254780,-2,1,0
1742,254790,-2,1,0
1743,254800,-2,0,0
1744,254810,-1,0,0
1745,254820,-1,0,0
1746,254830,-2,0,0
1747,254840,-1,0,0
1748,254850,-1,0,0
1749,254860,-1,0,0
1750,254870,-2,0,0
1751,254880,-2,0,0
1752,254890,-2,0,0
1753,254900,-2,1,0
1754,254910,-2,0,0
1755,254920,-2,1,0
1756,254930,-2,0,0
1757,254940,-2,1,0
1758,254950,-2,1,0
1759,254960,-2,0,0
1760,254970,-2,0,0
1761,254980,-2,0,0
1762,254990,-2,0,0
1763,255000,-2,0,0
1764,255010,-2,0,0
1765,255020,-2,0,0
1766,255030,-2,0,0
1767,255040,-2,0,0
1768,255050,-2,0,0
1769,255060,-1,0,0
1770,255070,-1,0,0
1771,255080,-2,0,0
1772,255090,-2,0,0
1773,255100,-2,0,0
1774,255110,-1,1,0
1775,255120,-2,1,0
1776,255130,-2,1,0
1777,255140,-2,1,0
1778,255150,-2,1,0
1779,255160,-2,1,0
1780,255170,-2,1,0
1781,255180,-2,1,0
1782,255190,-2,1,0
1783,255200,-2,1,0
1784,255210,-2,1,0
1785,255220,-2,1,0
1786,255230,-2,0,0
1787,255240,-1,0,0
1788,255250,-2,0,0
1789,255260,-1,0,0
1790,255270,-1,0,0
1791,255280,-1,0,0
1792,255290,-1,0,0
1793,255300,-1,0,0
1794,255310,-1,0,0
1795,255320,-1,0,0
1796,255330,-1,0,0
1797,255340,-1,0,0
1798,255350,-1,-1,0
1799,255360,-1,0,0
1800,255370,-1,-1,0
1801,255380,-1,-1,0
1802,255390,-1,-1,0
1803,255400,-1,-1,0
1804,255410,-1,-1,0
1805,255420,-1,-1,0
1806,255430,-1,-1,0
1807,255440,-1,-1,0
1808,255450,-1,-1,0
1809,255460,-2,-1,0
1810,255470,-1,-1,0
1811,255480,-1,0,0
1812,255490,-1,-1,0
1813,255500,-1,0,0
1814,255510,-1,-1,0
1815,255520,-1,-1,0
1816,255530,-1,-1,0
1817,255540,-2,-1,0
1818,255550,-1,-1,0
1819,255560,-1,-1,0
1820,255570,-1,-1,0
1821,255580,-1,-1,0
1822,255590,-1,-1,0
1823,255600,-1,-1,0
1824,255610,-1,-2,0
1825,255620,-1,-2,0
1826,255630,-1,-2,0
1827,255640,-1,-2,0
1828,255650,-1,-2,0
1829,255660,-1,-2,0
1830,255670,-1,-2,0
1831,255680,-1,-2,0
1832,255690,-1,-2,0
1833,255700,-1,-2,0
1834,255710,-1,-2,0
1835,255720,-1,-2,0
1836,255730,-1,-2,0
1837,255740,-1,-2,0
1838,255750,-1,-2,0
1839,255760,-1,-2,0
1840,255770,-1,-2,0
1841,255780,-1,-2,0
1842,255790,-1,-2,0
1843,255800,-1,-1,0
1844,255810,-1,-2,0
1845,255820,-1,-2,0
1846,255830,-1,-2,0
1847,255840,-1,-2,0
1848,255850,-1,-2,0
1849,255860,-1,-2,0
1850,255870,-1,-2,0
1851,255880,-1,-1,0
1852,255890,-1,-1,0
1853,255900,-1,-1,0
1854,255910,-1,-1,0
1855,255920,-1,-1,0
1856,255930,-1,-1,0
1857,255940,-1,-1,0
1858,255950,-1,-1,0
1859,255960,-1,0,0
1860,255970,-1,-1,0
1861,255980,-1,0,0
1862,255990,-1,0,0
1863,256000,-1,0,0
1864,256010,-1,0,0
1865,256020,-1,0,0
1866,256030,-1,0,0
1867,256040,-1,0,0
1868,256050,-1,0,0
1869,256060,-1,0,0
1870,256070,-1,0,0
1871,256080,-1,0,0
1872,256090,-1,0,0
1873,256100,-1,0,0
1874,256110,-1,0,0
1875,256120,-1,1,0
1876,256130,-1,0,0
1877,256140,-1,1,0
1878,256150,-1,0,0
1879,256160,-1,0,0
1880,256170,-1,0,0
1881,256180,-1,0,0
1882,256190,-1,0,0
1883,256200,-1,1,0
1884,256210,-1,1,0
1885,256220,-1,1,0
1886,256230,-1,1,0
1887,256240,-1,1,0
1888,256250,-1,1,0
1889,256260,-1,1,0
1890,256270,-1,1,0
1891,256280,-1,1,0
1892,256290,-1,1,0
1893,256300,-1,1,0
1894,256310,-1,1,0
1895,256320,-1,1,0
1896,256330,-1,1,0
1897,256340,-1,1,0
1898,256350,-1,1,0
1899,256360,-1,1,0
1900,256370,-1,1,0
1901,256380,-1,1,0
1902,256390,-1,1,0
1903,256400,-1,1,0
1904,256410,-1,1,0
1905,256420,-1,1,0
1906,256430,-1,1,0
1907,256440,-1,0,0
1908,256450,-1,0,0
1909,256460,-1,0,0
1910,256470,-1,1,0
1911,256480,-1,0,0
1912,256490,-1,1,0
1913,256500,-1,0,0
1914,256510,-1,1,0
1915,256520,-1,1,0
1916,256530,-2,0,0
1917,256540,-1,0,0
1918,256550,-1,0,0
1919,256560,-2,1,0
1920,256570,-1,0,0
1921,256580,-1,0,0
1922,256590,-2,0,0
1923,256600,-2,0,0
1924,256610,-2,1,0
1925,256620,-2,1,0
1926,256630,-2,1,0
1927,256640,-2,1,0
1928,256650,-2,1,0
1929,256660,-2,0,0
1930,256670,-2,0,0
1931,256680,-2,0,0
1932,256690,-2,0,0
1933,256700,-2,0,0
1934,256710,-2,0,0
1935,256720,-2,0,0
1936,256730,-2,0,0
1937,256740,-2,0,0
1938,256750,-2,0,0
1939,256760,-2,0,0
1940,256770,-2,0,0
1941,256780,-2,0,0
1942,256790,-2,0,0
1943,256800,-2,0,0
1944,256810,-2,0,0
1945,256820,-2,0,0
1946,256830,-2,0,0
1947,256840,-2,0,0
1948,256850,-2,0,0
1949,256860,-1,0,0
1950,256870,-2,0,0
1951,256880,-2,0,0
1952,256890,-2,0,0
1953,256900,-2,0,0
1954,256910,-2,-1,0
1955,256920,-2,-1,0
1956,256930,-2,-1,0
1957,256940,-2,0,0
1958,256950,-2,0,0
1959,256960,-2,-1,0
1960,256970,-2,0,0
1961,256980,-1,-1,0
1962,256990,-2,-1,0
1963,257000,-2,-1,0
1964,257010,-2,-1,0
1965,257020,-2,-1,0
1966,257030,-2,-1,0
1967,257040,-2,-1,0
1968,257050,-2,-1,0
1969,257060,-2,-1,0
1970,257070,-2,0,0
1971,257080,-2,-1,0
1972,257090,-2,0,0
1973,257100,-2,0,0
1974,257110,-2,0,0
1975,257120,-2,0,0
1976,257130,-2,0,0
1977,257140,-2,0,0
1978,257150,-2,-1,0
1979,257160,-2,-1,0
1980,257170,-2,0,0
1981,257180,-2,0,0
1982,257190,-2,0,0
1983,257200,-2,0,0
1984,257210,-2,0,0
1985,257220,-2,0,0
1986,257230,-2,0,0
1987,257240,-2,0,0
1988,257250,-2,0,0
1989,257260,-2,-1,0
1990,257270,-2,0,0
1991,257280,-2,-1,0
1992,257290,-2,0,0
1993,257300,-2,0,0
1994,257310,-2,-1,0
1995,257320,-2,0,0
1996,257330,-2,-1,0
1997,257340,-2,-1,0
1998,257350,-2,-1,0
1999,257360,-2,-1,0
2000,257370,-2,-1,0
2001,257380,-2,-1,0
2002,257390,-2,-1,0
2003,257400,-2,-1,0
2004,257410,-2,-1,0
2005,257420,-2,-1,0
2006,257430,-2,-1,0
2007,257440,-2,-1,0
2008,257450,-2,-1,0
2009,257460,-2,-1,0
2010,257470,-2,-1,0
2011,257480,-2,-1,0
2012,257490,-2,-1,0
2013,257500,-2,-1,0
2014,257510,-2,-1,0
2015,257520,-2,-1,0
2016,257530,-2,-1,0
2017,257540,-2,-1,0
2018,257550,-2,-1,0
2019,257560,-2,-1,0
2020,257570,-2,0,0
2021,257580,-2,-1,0
2022,257590,-2,-1,0
2023,257600,-2,-1,0
2024,257610,-2,-1,0
2025,257620,-2,-1,0
2026,257630,-2,-1,0
2027,257640,-2,-1,0
2028,257650,-2,-1,0
2029,257660,-2,-1,0
2030,257670,-2,-1,0
2031,257680,-2,-1,0
2032,257690,-2,-1,0
2033,257700,-1,-1,0
2034,257710,-2,-1,0
2035,257720,-2,-1,0
2036,257730,-2,-1,0
2037,257740,-2,-1,0
2038,257750,-2,-1,0
2039,257760,-2,-1,0
2040,257770,-2,-1,0
2041,257780,-2,-1,0
2042,257790,-2,-1,0
2043,257800,-2,-1,0
2044,257810,-2,-1,0
2045,257820,-2,-1,0
2046,257830,-2,-1,0
2047,257840,-2,-1,0
2048,257850,-2,-1,0
2049,257860,-2,-1,0
2050,257870,-2,-1,0
2051,257880,-2,-1,0
2052,257890,-2,-1,0
2053,257900,-2,-1,0
2054,257910,-2,-1,0
2055,257920,-2,-1,0
2056,257930,-2,-1,0
2057,257940,-2,-1,0
2058,257950,-2,-1,0
2059,257960,-2,-1,0
2060,257970,-2,-1,0
2061,257980,-2,-1,0
2062,257990,-2,-1,0
2063,258000,-2,-1,0
2064,258010,-2,-1,0
2065,258020,-2,-1,0
2066,258030,-2,-1,0
2067,258040,-1,-1,0
2068,258050,-1,-1,0
2069,258060,-1,-1,0
2070,258070,-1,-1,0
2071,258080,-2,-1,0
2072,258090,-2,-1,0
2073,258100,-2,-1,0
2074,258110,-2,-1,0
2075,258120,-2,-1,0
2076,258130,-2,-1,0
2077,258140,-2,-1,0
2078,258150,-2,-1,0
2079,258160,-2,-1,0
2080,258170,-1,-1,0
2081,258180,-2,-1,0
2082,258190,-2,-1,0
2083,258200,-2,-1,0
2084,258210,-1,-1,0
2085,258220,-1,-1,0
2086,258230,-2,-1,0
2087,258240,-2,-1,0
2088,258250,-2,-1,0
2089,258260,-2,-1,0
2090,258270,-2,-1,0
2091,258280,-2,-1,0
2092,258290,-2,-1,0
2093,258300,-2,-1,0
2094,258310,-2,-1,0
2095,258320,-2,-1,0
2096,258330,-2,-1,0
2097,258340,-2,-1,0
2098,258350,-2,-1,0
2099,258360,-2,-1,0
2100,258370,-2,-1,0
2101,258380,-2,-1,0
2102,258390,-2,-1,0
2103,258400,-2,-1,0
2104,258410,-2,0,0
2105,258420,-2,-1,0
2106,258430,-2,-1,0
2107,258440,-2,-1,0
2108,258450,-2,0,0
2109,258460,-2,-1,0
2110,258470,-1,-1,0
2111,258480,-1,-1,0
2112,258490,-2,0,0
2113,258500,-1,0,0
2114,258510,-2,0,0
2115,258520,-1,0,0
2116,258530,-1,0,0
2117,258540,-2,0,0
2118,258550,-1,0,0
2119,258560,-1,0,0
2120,258570,-1,0,0
2121,258580,-1,0,0
2122,258590,-1,0,0
2123,258600,-1,0,0
2124,258610,-1,0,0
2125,258620,-1,0,0
2126,258630,-1,0,0
2127,258640,-1,0,0
2128,258650,-1,0,0
2129,258660,-1,0,0
2130,258670,-1,0,0
2131,258680,-1,0,0
2132,258690,-1,0,0
2133,258700,-1,0,0
2134,258710,-1,0,0
2135,258720,-1,0,0
2136,258730,-1,0,0
2137,258740,-1,0,0
2138,258750,-1,1,0
2139,258760,-1,0,0
2140,258770,-1,1,0
2141,258780,-1,0,0
2142,258790,-1,0,0
2143,258800,-1,1,0
2144,258810,-1,1,0
2145,258820,-1,0,0
2146,258830,-1,0,0
2147,258840,-1,0,0
2148,258850,-1,0,0
2149,258860,-1,0,0
2150,258870,-1,0,0
2151,258880,-1,0,0
2152,258890,-1,1,0
2153,258900,-1,0,0
2154,258910,-1,0,0
2155,258920,-1,0,0
2156,258930,-1,1,0
2157,258940,-1,0,0
2158,258950,-1,1,0
2159,258960,-1,0,0
2160,258970,-1,0,0
2161,258980,-1,0,0
2162,258990,-1,0,0
2163,259000,-1,0,0
2164,259010,-1,1,0
2165,259020,-1,0,0
2166,259030,-1,1,0
2167,259040,-1,1,0
2168,259050,-1,1,0
2169,259060,-1,1,0
2170,259070,-2,1,0
2171,259080,-2,1,0
2172,259090,-1,1,0
2173,259100,-1,0,0
2174,259110,-1,0,0
2175,259120,-1,0,0
2176,259130,-1,0,0
2177,259140,-1,0,0
2178,259150,-1,0,0
2179,259160,-2,0,0
2180,259170,-1,0,0
2181,259180,-1,0,0
2182,259190,-1,0,0
2183,259200,-1,0,0
2184,259210,-1,0,0
2185,259220,-1,-1,0
2186,259230,-1,-1,0
2187,259240,-1,-1,0
2188,259250,-2,-1,0
2189,259260,-1,-1,0
2190,259270,-1,-1,0
2191,259280,-2,-1,0
2192,259290,-2,-1,0
2193,259300,-2,-1,0
2194,259310,-2,-1,0
2195,259320,-2,-1,0
2196,259330,-2,-1,0
2197,259340,-2,-1,0
2198,259350,-1,-1,0
2199,259360,-2,-1,0
2200,259370,-1,-1,0
2201,259380,-1,-1,0
2202,259390,-1,-1,0
2203,259400,-1,-1,0
2204,259410,-1,-1,0
2205,259420,-1,-1,0
2206,259430,-1,-1,0
2207,259440,-1,-1,0
2208,259450,-1,-1,0
2209,259460,-1,-1,0
2210,259470,-1,0,0
2211,259480,-1,0,0
2212,259490,-1,0,0
2213,259500,-1,0,0
2214,259510,-1,0,0
2215,259520,-1,0,0
2216,259530,-1,0,0
2217,259540,-1,0,0
2218,259550,-1,0,0
2219,259560,-1,0,0
2220,259570,-1,0,0
2221,259580,-1,0,0
2222,259590,-1,0,0
2223,259600,-1,0,0
2224,259610,-1,0,0
2225,259620,-1,0,0
2226,259630,-1,0,0
2227,259640,-1,0,0
2228,259650,-1,0,0
2229,259660,-1,0,0
2230,259670,-1,0,0
2231,259680,-1,0,0
2232,259690,-2,0,0
2233,259700,-2,1,0
2234,259710,-1,0,0
2235,259720,-1,0,0
2236,259730,-2,0,0
2237,259740,-1,0,0
2238,259750,-1,0,0
2239,259760,-1,0,0
2240,259770,-1,0,0
2241,259780,-1,0,0
2242,259790,-1,0,0
2243,259800,-1,0,0
2244,259810,-1,0,0
2245,259820,-1,0,0
2246,259830,-1,0,0
2247,259840,-1,0,0
2248,259850,-1,0,0
2249,259860,-1,0,0
2250,259870,-1,0,0
2251,259880,-1,0,0
2252,259890,-1,0,0
2253,259900,-1,0,0
2254,259910,-1,0,0
2255,259920,-2,0,0
2256,259930,-1,0,0
2257,259940,-1,0,0
2258,259950,-2,0,0
2259,259960,-1,0,0
2260,259970,-1,0,0
2261,259980,-1,0,0
2262,259990,-1,0,0
2263,260000,-1,0,0
2264,260010,-1,0,0
2265,260020,-2,0,0
2266,260030,-1,0,0
2267,260040,-1,-1,0
2268,260050,-1,0,0
2269,260060,-1,0,0
2270,260070,-1,0,0
2271,260080,-1,0,0
2272,260090,-1,0,0
2273,260100,-1,0,0
2274,260110,-1,0,0
2275,260120,-1,0,0
2276,260130,-1,0,0
2277,260140,-1,0,0
2278,260150,-1,1,0
2279,260160,-1,1,0
2280,260170,-1,1,0
2281,260180,-1,0,0
2282,260190,-1,1,0
2283,260200,-1,1,0
2284,260210,-1,0,0
2285,260220,-1,1,0
2286,260230,-1,0,0
2287,260240,-1,1,0
2288,260250,-1,1,0
2289,260260,-1,1,0
2290,260270,-1,1,0
2291,260280,-1,1,0
2292,260290,-1,0,0
2293,260300,-1,1,0
2294,260310,-1,1,0
2295,260320,-1,1,0
2296,260330,-1,1,0
2297,260340,-1,1,0
2298,260350,-1,1,0
2299,260360,-1,1,0
2300,260370,-1,1,0
2301,260380,-1,1,0
2302,260390,-1,1,0
2303,260400,-1,1,0
2304,260410,-1,1,0
2305,260420,-1,1,0
2306,260430,-1,1,0
2307,260440,-1,0,0
2308,260450,-1,0,0
2309,260460,-1,0,0
2310,260470,-1,1,0
2311,260480,-1,0,0
2312,260490,-1,1,0
2313,260500,-1,0,0
2314,260510,-1,0,0
2315,260520,-1,0,0
2316,260530,-1,0,0
2317,260540,-1,0,0
2318,260550,-1,0,0
2319,260560,-1,1,0
2320,260570,-1,0,0
2321,260580,-1,1,0
2322,260590,-1,0,0
2323,260600,-1,0,0
2324,260610,-1,1,0
2325,260620,-1,0,0
2326,260630,-1,0,0
2327,260640,-1,0,0
2328,260650,-1,0,0
2329,260660,-1,0,0
2330,260670,-1,0,0
2331,260680,-1,0,0
2332,260690,-1,0,0
2333,260700,-1,0,0
2334,260710,-1,0,0
2335,260720,-1,0,0
2336,260730,-1,0,0
2337,260740,-1,0,0
2338,260750,-1,0,0
2339,260760,-2,0,0
2340,260770,-1,0,0
2341,260780,-2,0,0
2342,260790,-1,0,0
2343,260800,-1,0,0
2344,260810,-1,0,0
2345,260820,-1,0,0
2346,260830,-2,-1,0
2347,260840,-2,0,0
2348,260850,-1,0,0
2349,260860,-1,0,0
2350,260870,-1,0,0
2351,260880,-1,0,0
2352,260890,-2,0,0
2353,260900,-2,0,0
2354,260910,-2,-1,0
2355,260920,-2,-1,0
2356,260930,-2,0,0
2357,260940,-2,-1,0
2358,260950,-2,-1,0
2359,260960,-2,-1,0
2360,260970,-2,-1,0
2361,260980,-2,-1,0
2362,260990,-2,-1,0
2363,261000,-1,-1,0
2364,261010,-2,-1,0
2365,261020,-2,-1,0
2366,261030,-2,-1,0
2367,261040,-2,0,0
2368,261050,-1,-1,0
2369,261060,-2,-1,0
2370,261070,-2,-1,0
2371,261080,-2,-1,0
2372,261090,-2,-1,0
2373,261100,-2,-1,0
2374,261110,-2,-1,0
2375,261120,-2,-1,0
2376,261130,-2,-1,0
2377,261140,-2,-1,0
2378,261150,-2,-1,0
2379,261160,-3,0,0
2380,261170,-3,0,0
2381,261180,-2,-1,0
2382,261190,-2,-1,0
2383,261200,-2,0,0
2384,261210,-2,-1,0
2385,261220,-3,0,0
2386,261230,-2,-1,0
2387,261240,-2,-1,0
2388,261250,-2,-1,0
2389,261260,-3,-1,0
2390,261270,-2,-1,0
2391,261280,-2,-1,0
2392,261290,-3,-1,0
2393,261300,-3,-1,0
2394,261310,-2,-1,0
2395,261320,-2,-1,0
2396,261330,-2,-1,0
2397,261340,-2,-1,0
2398,261350,-2,-1,0
2399,261360,-2,-1,0
2400,261370,-2,0,0
2401,261380,-2,0,0
2402,261390,-2,0,0
2403,261400,-2,0,0
2404,261410,-2,1,0
2405,261420,-2,0,0
2406,261430,-2,0,0
2407,261440,-2,0,0
2408,261450,-2,0,0
2409,261460,-2,0,0
2410,261470,-2,0,0
2411,261480,-2,0,0
2412,261490,-2,0,0
2413,261500,-2,0,0
2414,261510,-2,1,0
2415,261520,-2,1,0
2416,261530,-2,0,0
2417,261540,-2,0,0
2418,261550,-2,0,0
2419,261560,-2,0,0
2420,261570,-2,0,0
2421,261580,-2,0,0
2422,261590,-2,-1,0
2423,261600,-2,-1,0
2424,261610,-2,-1,0
2425,261620,-2,-1,0
2426,261630,-1,-1,0
2427,261640,-1,-1,0
2428,261650,-1,-1,0
2429,261660,-1,-1,0
2430,261670,-1,-1,0
2431,261680,-1,-1,0
2432,261690,-1,-1,0
2433,261700,-1,-1,0
2434,261710,-1,-1,0
2435,261720,-1,-1,0
2436,261730,-1,-1,0
2437,261740,-1,-1,0
2438,261750,-1,0,0
2439,261760,-1,0,0
2440,261770,-1,0,0
2441,261780,-1,0,0
2442,261790,-1,0,0
2443,261800,-1,0,0
2444,261810,-1,0,0
2445,261820,-1,0,0
2446,261830,-1,0,0
2447,261840,-1,0,0
2448,261850,-1,0,0
2449,261860,-2,0,0
2450,261870,-2,0,0
2451,261880,-2,-1,0
2452,261890,-2,-1,0
2453,261900,-2,-1,0
2454,261910,-2,0,0
2455,261920,-2,0,0
2456,261930,-2,0,0
2457,261940,-2,0,0
2458,261950,-2,0,0
2459,261960,-2,0,0
2460,261970,-2,-1,0
2461,261980,-2,-1,0
2462,261990,-2,-1,0
2463,262000,-2,-1,0
2464,262010,-2,-1,0
2465,262020,-2,-1,0
2466,262030,-2,-1,0
2467,262040,-2,-1,0
2468,262050,-2,-1,0
2469,262060,-2,-1,0
2470,262070,-2,-1,0
2471,262080,-2,-1,0
2472,262090,-2,-1,0
2473,262100,-2,-1,0
2474,262110,-1,-1,0
2475,262120,-2,0,0
2476,262130,-2,-1,0
2477,262140,-2,0,0
2478,262150,-2,0,0
2479,262160,-1,0,0
2480,262170,-2,0,0
2481,262180,-2,0,0
2482,262190,-2,0,0
2483,262200,-1,1,0
2484,262210,-1,1,0
2485,262220,-1,1,0
2486,262230,-1,0,0
2487,262240,-1,0,0
2488,262250,-1,1,0
2489,262260,-1,0,0
2490,262270,-1,0,0
2491,262280,-1,0,0
2492,262290,-1,0,0
2493,262300,-1,0,0
2494,262310,-1,0,0
2495,262320,-1,0,0
2496,262330,-1,0,0
2497,262340,-1,0,0
2498,262350,-1,0,0
2499,262360,-1,0,0
2500,262370,-1,0,0
2501,262380,-1,0,0
2502,262390,-1,0,0
2503,262400,-1,0,0
2504,262410,-1,0,0
2505,262420,-1,0,0
2506,262430,-1,0,0
2507,262440,-1,-1,0
2508,262450,-1,-1,0
2509,262460,-1,-1,0
2510,262470,-1,-1,0
2511,262480,-1,-1,0
2512,262490,-1,-1,0
2513,262500,-1,-1,0
2514,262510,-1,-1,0
2515,262520,-1,-1,0
2516,262530,-1,-1,0
2517,262540,-1,-2,0
2518,262550,-1,-2,0
2519,262560,-1,-2,0
2520,262570,-1,-2,0
2521,262580,-1,-2,0
2522,262590,-1,-2,0
2523,262600,-1,-2,0
2524,262610,-1,-2,0
2525,262620,-1,-2,0
2526,262630,-1,-2,0
2527,262640,-1,-2,0
2528,262650,-1,-2,0
2529,262660,-1,-2,0
2530,262670,-1,-2,0
2531,262680,-1,-2,0
2532,262690,-1,-2,0
2533,262700,0,-2,0
2534,262710,0,-1,0
2535,262720,-1,-1,0
2536,262730,-1,-2,0
2537,262740,-1,-1,0
2538,262750,0,-1,0
2539,262760,-1,-1,0
2540,262770,0,-2,0
2541,262780,-1,-2,0
2542,262790,0,-2,0
2543,262800,-1,-2,0
2544,262810,-1,-2,0
2545,262820,-1,-2,0
2546,262830,-1,-2,0
2547,262840,-1,-1,0
2548,262850,0,-2,0
2549,262860,-1,-2,0
2550,262870,-1,-1,0
2551,262880,0,-1,0
2552,262890,-1,-1,0
2553,262900,-1,-1,0
2554,262910,-1,-1,0
2555,262920,0,-1,0
2556,262930,0,-1,0
2557,262940,0,-1,0
2558,262950,-1,-1,0
2559,262960,-1,-1,0
2560,262970,0,-1,0
2561,262980,-1,-1,0
2562,262990,0,-1,0
2563,263000,-1,0,0
2564,263010,0,0,0
2565,263020,-1,0,0
2566,263030,-1,0,0
2567,263040,-1,-1,0
2568,263050,0,0,0
2569,263060,-1,-1,0
2570,263070,-1,0,0
2571,263080,-1,0,0
2572,263090,-1,0,0
2573,263100,-1,0,0
2574,263110,-1,0,0
2575,263120,-1,0,0
2576,263130,-1,1,0
2577,263140,-1,1,0
2578,263150,-1,1,0
2579,263160,-1,1,0
2580,263170,-1,1,0
2581,263180,-1,1,0
2582,263190,-1,1,0
2583,263200,-1,1,0
2584,263210,-1,1,0
2585,263220,-1,1,0
2586,263230,-1,1,0
2587,263240,-1,1,0
2588,263250,-1,1,0
2589,263260,-1,1,0
2590,263270,-1,1,0
2591,263280,-1,1,0
2592,263290,-1,1,0
2593,263300,-1,1,0
2594,263310,-1,1,0
2595,263320,-1,1,0
2596,263330,-1,1,0
2597,263340,-1,1,0
2598,263350,-1,1,0
2599,263360,-1,0,0
2600,263370,-1,0,0
2601,263380,-1,0,0
2602,263390,-1,0,0
2603,263400,-1,0,0
2604,263410,-1,0,0
2605,263420,-1,0,0
2606,263430,-1,0,0
2607,263440,-1,-1,0
2608,263450,-1,-1,0
2609,263460,-1,-1,0
2610,263470,-1,-1,0
2611,263480,-1,-1,0
2612,263490,-1,-1,0
2613,263500,-1,-1,0
2614,263510,-1,-1,0
2615,263520,-1,-1,0
2616,263530,-1,-2,0
2617,263540,-1,-1,0
2618,263550,-1,-1,0
2619,263560,-1,-2,0
2620,263570,-1,-2,0
2621,263580,-1,-2,0
2622,263590,-1,-2,0
2623,263600,-1,-2,0
2624,263610,-1,-2,0
2625,263620,-1,-2,0
2626,263630,-1,-2,0
2627,263640,-1,-2,0
2628,263650,-1,-2,0
2629,263660,-1,-2,0
2630,263670,-2,-2,0
2631,263680,-2,-2,0
2632,263690,-2,-2,0
2633,263700,-1,-2,0
2634,263710,-2,-2,0
2635,263720,-1,-2,0
2636,263730,-1,-2,0
2637,263740,-2,-2,0
2638,263750,-1,-2,0
2639,263760,-1,-2,0
2640,263770,-2,-2,0
2641,263780,-1,-1,0
2642,263790,-2,-1,0
2643,263800,-2,-1,0
2644,263810,-1,-2,0
2645,263820,-1,-2,0
2646,263830,-2,-1,0
2647,263840,-2,-1,0
2648,263850,-2,-1,0
2649,263860,-2,-1,0
2650,263870,-2,-1,0
2651,263880,-2,-1,0
2652,263890,-2,-1,0
2653,263900,-2,0,0
2654,263910,-2,0,0
2655,263920,-2,0,0
2656,263930,-1,0,0
2657,263940,-2,0,0
2658,263950,-2,0,0
2659,263960,-2,0,0
2660,263970,-2,0,0
2661,263980,-1,0,0
2662,263990,-2,0,0
2663,264000,-2,0,0
2664,264010,-2,0,0
2665,264020,-1,0,0
2666,264030,-2,0,0
2667,264040,-2,0,0
2668,264050,-2,0,0
2669,264060,-2,0,0
2670,264070,-2,0,0
2671,264080,-2,0,0
2672,264090,-1,-1,0
2673,264100,-2,-1,0
2674,264110,-2,-1,0
2675,264120,-2,-1,0
2676,264130,-2,-1,0
2677,264140,-2,-1,0
2678,264150,-2,-1,0
2679,264160,-1,-1,0
2680,264170,-1,-1,0
2681,264180,-2,-1,0
2682,264190,-2,-1,0
2683,264200,-1,-1,0
2684,264210,-2,-1,0
2685,264220,-1,-1,0
2686,264230,-2,-1,0
2687,264240,-2,-1,0
2688,264250,-2,-1,0
2689,264260,-2,-1,0
2690,264270,-2,-1,0
2691,264280,-2,-1,0
2692,264290,-2,-1,0
2693,264300,-2,-1,0
2694,264310,-2,-1,0
2695,264320,-2,0,0
2696,264330,-2,0,0
2697,264340,-2,0,0
2698,264350,-2,0,0
2699,264360,-2,0,0
2700,264370,-2,0,0
2701,264380,-2,0,0
2702,264390,-2,-1,0
2703,264400,-2,0,0
2704,264410,-2,-1,0
2705,264420,-2,0,0
2706,264430,-2,0,0
2707,264440,-2,0,0
2708,264450,-2,0,0
2709,264460,-2,0,0
2710,264470,-2,0,0
2711,264480,-2,0,0
2712,264490,-2,-1,0
2713,264500,-2,-1,0
2714,264510,-2,-1,0
2715,264520,-2,-1,0
2716,264530,-1,-1,0
2717,264540,-2,-1,0
2718,264550,-2,-1,0
2719,264560,-1,-1,0
2720,264570,-2,-1,0
2721,264580,-1,-2,0
2722,264590,-1,-1,0
2723,264600,-1,-1,0
2724,264610,-1,-1,0
2725,264620,-1,-1,0
2726,264630,-1,-1,0
2727,264640,-1,-1,0
2728,264650,-1,-1,0
2729,264660,-1,-1,0
2730,264670,-1,-1,0
2731,264680,-1,-1,0
2732,264690,-1,-1,0
2733,264700,-2,0,0
2734,264710,-1,0,0
2735,264720,-1,0,0
2736,264730,-1,1,0
2737,264740,-1,1,0
2738,264750,-1,1,0
2739,264760,-1,1,0
2740,264770,-1,0,0
2741,264780,-1,0,0
2742,264790,-1,0,0
2743,264800,-1,0,0
2744,264810,-1,0,0
2745,264820,-1,-1,0
2746,264830,-1,-1,0
2747,264840,-1,-1,0
2748,264850,-1,-1,0
2749,264860,-1,-1,0
2750,264870,-1,-1,0
2751,264880,-1,-2,0
2752,264890,-1,-1,0
2753,264900,-1,-2,0
2754,264910,-1,-2,0
2755,264920,-1,-2,0
2756,264930,-1,-2,0
2757,264940,-1,-1,0
2758,264950,-1,-1,0
2759,264960,-1,-1,0
2760,264970,-1,-1,0
2761,264980,-1,-1,0
2762,264990,-1,-1,0
2763,265000,-1,0,0
2764,265010,-1,0,0
2765,265020,-1,0,0
2766,265030,-1,1,0
2767,265040,-1,1,0
2768,265050,-1,1,0
2769,265060,-1,1,0
2770,265070,-1,0,0
2771,265080,-1,0,0
2772,265090,-1,0,0
2773,265100,-1,0,0
2774,265110,0,0,0
2775,265120,-1,0,0
2776,265130,-1,-1,0
2777,265140,-1,-1,0
2778,265150,-1,-1,0
2779,265160,-1,-1,0
2780,265170,-1,-1,0
2781,265180,-1,-2,0
2782,265190,-1,-2,0
2783,265200,-1,-2,0
2784,265210,-1,-2,0
2785,265220,0,-2,0
2786,265230,-1,-2,0
2787,265240,-1,-2,0
2788,265250,0,-1,0
2789,265260,-1,-1,0
2790,265270,-1,-1,0
2791,265280,-1,-1,0
2792,265290,-1,0,0
2793,265300,-1,0,0
2794,265310,-1,1,0
2795,265320,-1,1,0
2796,265330,-1,1,0
2797,265340,-1,1,0
2798,265350,-1,1,0
2799,265360,-1,1,0
2800,265370,-1,1,0
2801,265380,0,1,0
2802,265390,-1,0,0
2803,265400,-1,0,0
2804,265410,-1,0,0
2805,265420,-1,0,0
2806,265430,-1,0,0
2807,265440,-1,0,0
2808,265450,-1,-1,0
2809,265460,-1,-1,0
2810,265470,-1,-1,0
2811,265480,-1,-1,0
2812,265490,-1,-1,0
2813,265500,-1,-1,0
2814,265510,-1,-2,0
2815,265520,-1,-2,0
2816,265530,-1,-1,0
2817,265540,-1,-1,0
2818,265550,-1,-2,0
2819,265560,-1,-1,0
2820,265570,-1,-1,0
2821,265580,-1,-1,0
2822,265590,-1,-1,0
2823,265600,-1,-1,0
2824,265610,-1,-1,0
2825,265620,-1,0,0
2826,265630,-1,0,0
2827,265640,-1,0,0
2828,265650,-1,0,0
2829,265660,-1,0,0
2830,265670,-1,0,0
2831,265680,-1,0,0
2832,265690,-1,0,0
2833,265700,-1,0,0
2834,265710,-1,0,0
2835,265720,-1,0,0
2836,265730,-1,0,0
2837,265740,-2,0,0
2838,265750,-2,0,0
2839,265760,-1,-1,0
2840,265770,-1,-1,0
2841,265780,-1,-1,0
2842,265790,-1,-1,0
2843,265800,-2,-2,0
2844,265810,-2,-1,0
2845,265820,-1,-2,0
2846,265830,-2,-2,0
2847,265840,-2,-2,0
2848,265850,-1,-2,0
2849,265860,-2,-2,0
2850,265870,-1,-2,0
2851,265880,-2,-1,0
2852,265890,-2,-1,0
2853,265900,-2,-1,0
2854,265910,-2,-1,0
2855,265920,-1,-1,0
2856,265930,-2,-1,0
2857,265940,-2,0,0
2858,265950,-2,0,0
2859,265960,-1,0,0
2860,265970,-2,0,0
2861,265980,-2,0,0
2862,265990,-2,1,0
2863,266000,-1,1,0
2864,266010,-1,1,0
2865,266020,-1,1,0
2866,266030,-1,0,0
2867,266040,-1,0,0
2868,266050,-1,0,0
2869,266060,-1,0,0
2870,266070,-1,0,0
2871,266080,-1,0,0
2872,266090,-2,0,0
2873,266100,-2,-1,0
2874,266110,-1,0,0
2875,266120,-1,-1,0
2876,266130,-1,-1,0
2877,266140,-1,-1,0
2878,266150,-1,-1,0
2879,266160,-1,-1,0
2880,266170,-1,-1,0
2881,266180,-1,-1,0
2882,266190,-1,-1,0
2883,266200,-1,-1,0
2884,266210,-1,-1,0
2885,266220,-1,-2,0
2886,266230,-1,-2,0
2887,266240,-1,-2,0
2888,266250,-1,-2,0
2889,266260,-1,-2,0
2890,266270,-1,-2,0
2891,266280,-1,-2,0
2892,266290,-1,-2,0
2893,266300,-1,-3,0
2894,266310,-1,-3,0
2895,266320,-1,-3,0
2896,266330,-1,-3,0
2897,266340,-1,-3,0
2898,266350,-1,-3,0
2899,266360,-1,-2,0
2900,266370,-1,-2,0
2901,266380,-1,-2,0
2902,266390,-1,-2,0
2903,266400,-1,-2,0
2904,266410,-1,-2,0
2905,266420,-1,-2,0
2906,266430,-1,-1,0
2907,266440,-1,-1,0
2908,266450,-1,-1,0
2909,266460,-1,-1,0
2910,266470,-1,-1,0
2911,266480,-1,-1,0
2912,266490,-1,-1,0
2913,266500,-1,-1,0
2914,266510,-1,-1,0
2915,266520,-1,-1,0
2916,266530,-1,-1,0
2917,266540,-1,-1,0
2918,266550,-1,-1,0
2919,266560,-1,-1,0
2920,266570,-1,-1,0
2921,266580,-1,-1,0
2922,266590,-2,-1,0
2923,266600,-2,-2,0
2924,266610,-2,-1,0
2925,266620,-2,-1,0
2926,266630,-2,-1,0
2927,266640,-2,-1,0
2928,266650,-2,-1,0
2929,266660,-2,-1,0
2930,266670,-2,-1,0
2931,266680,-2,-1,0
2932,266690,-2,-1,0
2933,266700,-2,-1,0
2934,266710,-2,-1,0
2935,266720,-2,-2,0
2936,266730,-2,-2,0
2937,266740,-2,-1,0
2938,266750,-2,-2,0
2939,266760,-2,-1,0
2940,266770,-2,-1,0
2941,266780,-2,-1,0
2942,266790,-2,-1,0
2943,266800,-2,-1,0
2944,266810,-2,-1,0
2945,266820,-2,-1,0
2946,266830,-2,-2,0
2947,266840,-1,-1,0
2948,266850,-2,-1,0
2949,266860,-1,-1,0
2950,266870,-1,-1,0
2951,266880,-2,-1,0
2952,266890,-1,-1,0
2953,266900,-2,-2,0
2954,266910,-1,-1,0
2955,266920,-1,-1,0
2956,266930,-1,-1,0
2957,266940,-1,-1,0
2958,266950,-1,-1,0
2959,266960,-1,-1,0
2960,266970,-1,-1,0
2961,266980,-1,-1,0
2962,266990,-1,-1,0
2963,267000,-1,-1,0
2964,267010,-1,-1,0
2965,267020,-1,-1,0
2966,267030,-1,-1,0
2967,267040,-1,-1,0
2968,267050,-1,-1,0
2969,267060,-1,0,0
2970,267070,-2,0,0
2971,267080,-1,0,0
2972,267090,-2,0,0
2973,267100,-1,0,0
2974,267110,-1,0,0
2975,267120,-1,0,0
2976,267130,-1,0,0
2977,267140,-1,0,0
2978,267150,-1,0,0
2979,267160,-1,0,0
2980,267170,-1,1,0
2981,267180,-1,1,0
2982,267190,-1,0,0
2983,267200,-1,1,0
2984,267210,-2,0,0
2985,267220,-2,1,0
2986,267230,-2,1,0
2987,267240,-2,1,0
2988,267250,-2,1,0
2989,267260,-1,1,0
2990,267270,-2,1,0
2991,267280,-1,0,0
2992,267290,-2,1,0
2993,267300,-2,1,0
2994,267310,-1,1,0
2995,267320,-2,1,0
2996,267330,-1,1,0
2997,267340,-2,1,0
2998,267350,-2,1,0
2999,267360,-1,1,0
3000,267370,-1,1,0
3001,267380,-1,0,0
3002,267390,-2,0,0
3003,267400,-2,0,0
3004,267410,-2,0,0
3005,267420,-2,0,0
3006,267430,-2,0,0
3007,267440,-2,0,0
3008,267450,-2,0,0
3009,267460,-2,0,0
3010,267470,-2,0,0
3011,267480,-2,0,0
3012,267490,-2,0,0
3013,267500,-2,0,0
3014,267510,-2,0,0
3015,267520,-2,0,0
3016,267530,-2,0,0
3017,267540,-2,0,0
3018,267550,-2,0,0
3019,267560,-2,0,0
3020,267570,-2,0,0
3021,267580,-2,0,0
3022,267590,-2,1,0
3023,267600,-2,1,0
3024,267610,-2,1,0
3025,267620,-1,1,0
3026,267630,-2,1,0
3027,267640,-2,0,0
3028,267650,-2,1,0
3029,267660,-2,0,0
3030,267670,-2,0,0
3031,267680,-2,0,0
3032,267690,-2,0,0
3033,267700,-2,0,0
3034,267710,-2,0,0
3035,267720,-2,0,0
3036,267730,-2,0,0
3037,267740,-2,0,0
3038,267750,-1,0,0
3039,267760,-1,0,0
3040,267770,-1,-1,0
3041,267780,-2,-1,0
3042,267790,-2,0,0
3043,267800,-2,-1,0
3044,267810,-2,-1,0
3045,267820,-1,-1,0
3046,267830,-2,-1,0
3047,267840,-2,0,0
3048,267850,-2,-1,0
3049,267860,-2,-1,0
3050,267870,-1,-1,0
3051,267880,-1,-1,0
3052,267890,-2,-1,0
3053,267900,-1,-1,0
3054,267910,-1,-1,0
3055,267920,-1,-1,0
3056,267930,-2,-1,0
3057,267940,-1,-1,0
3058,267950,-1,-1,0
3059,267960,-1,-1,0
3060,267970,-1,-2,0
3061,267980,-2,-1,0
3062,267990,-1,-1,0
3063,268000,-1,-1,0
3064,268010,-2,-2,0
3065,268020,-2,-1,0
3066,268030,-2,-2,0
3067,268040,-2,-1,0
3068,268050,-1,-1,0
3069,268060,-1,-1,0
3070,268070,-2,-1,0
3071,268080,-2,-2,0
3072,268090,-2,-2,0
3073,268100,-2,-1,0
3074,268110,-1,-2,0
3075,268120,-1,-2,0
3076,268130,-2,-2,0
3077,268140,-2,-2,0
3078,268150,-2,-2,0
3079,268160,-1,-2,0
3080,268170,-1,-1,0
3081,268180,-2,-1,0
3082,268190,-2,-1,0
3083,268200,-1,-1,0
3084,268210,-2,-1,0
3085,268220,-2,-1,0
3086,268230,-1,-1,0
3087,268240,-1,-1,0
3088,268250,-2,-1,0
3089,268260,-1,-1,0
3090,268270,-1,-1,0
3091,268280,-2,-1,0
3092,268290,-1,-2,0
3093,268300,-1,-2,0
3094,268310,-1,-2,0
3095,268320,-1,-2,0
3096,268330,-1,-2,0
3097,268340,-1,-2,0
3098,268350,-1,-2,0
3099,268360,-1,-2,0
3100,268370,-1,-2,0
3101,268380,-1,-2,0
3102,268390,-1,-2,0
3103,268400,-1,-2,0
3104,268410,-1,-2,0
3105,268420,-1,-2,0
3106,268430,-1,-2,0
3107,268440,-1,-2,0
3108,268450,-1,-2,0
3109,268460,-1,-2,0
3110,268470,-1,-2,0
3111,268480,-1,-2,0
3112,268490,-1,-2,0
3113,268500,-1,-2,0
3114,268510,-1,-2,0
3115,268520,-1,-2,0
3116,268530,-1,-2,0
3117,268540,-1,-2,0
3118,268550,-1,-2,0
3119,268560,-1,-2,0
3120,268570,-1,-2,0
3121,268580,-1,-2,0
3122,268590,-1,-2,0
3123,268600,-1,-2,0
3124,268610,-1,-1,0
3125,268620,-1,-2,0
3126,268630,-1,-1,0
3127,268640,-1,-1,0
3128,268650,-1,-1,0
3129,268660,-1,-1,0
3130,268670,-1,-1,0
3131,268680,-1,-1,0
3132,268690,-1,-1,0
3133,268700,-1,-1,0
3134,268710,-1,-1,0
3135,268720,-1,-1,0
3136,268730,-1,-1,0
3137,268740,-1,-1,0
3138,268750,-1,-1,0
3139,268760,-1,-1,0
3140,268770,-1,-1,0
3141,268780,-1,-1,0
3142,268790,-1,-1,0
3143,268800,-1,-1,0
3144,268810,-1,-1,0
3145,268820,-1,-1,0
3146,268830,-1,-1,0
3147,268840,-1,-1,0
3148,268850,-1,-1,0
3149,268860,-1,-1,0
3150,268870,-1,-1,0
3151,268880,-1,-1,0
3152,268890,-1,-1,0
3153,268900,-1,-1,0
3154,268910,-1,-1,0
3155,268920,-1,-1,0
3156,268930,-1,-1,0
3157,268940,-1,-1,0
3158,268950,-1,-1,0
3159,268960,-1,-2,0
3160,268970,-1,-1,0
3161,268980,-1,-1,0
3162,268990,-1,-1,0
3163,269000,-1,-1,0
3164,269010,-1,-1,0
3165,269020,-1,-1,0
3166,269030,-1,-1,0
3167,269040,-1,-2,0
3168,269050,-1,-1,0
3169,269060,-1,-1,0
3170,269070,-1,-1,0
3171,269080,-1,-1,0
3172,269090,-1,-1,0
3173,269100,-1,-1,0
3174,269110,-1,-1,0
3175,269120,-1,-1,0
3176,269130,-1,-1,0
3177,269140,-1,-1,0
3178,269150,-1,-1,0
3179,269160,-1,-1,0
3180,269170,-1,-1,0
3181,269180,-1,-1,0
3182,269190,-1,-1,0
3183,269200,-1,-1,0
3184,269210,-1,-1,0
3185,269220,-1,-1,0
3186,269230,-1,-1,0
3187,269240,-1,-1,0
3188,269250,-1,-1,0
3189,269260,-1,-1,0
3190,269270,-1,-1,0
3191,269280,-1,-1,0
3192,269290,-1,-1,0
3193,269300,-1,-1,0
3194,269310,-1,0,0
3195,269320,-1,-1,0
3196,269330,-1,-1,0
3197,269340,-1,-1,0
3198,269350,-1,0,0
3199,269360,-1,0,0
3200,269370,-1,0,0
3201,269380,-1,-1,0
3202,269390,-1,0,0
3203,269400,-1,0,0
3204,269410,-1,0,0
3205,269420,-1,0,0
3206,269430,-1,0,0
3207,269440,-1,0,0
3208,269450,-1,0,0
3209,269460,-1,0,0
3210,269470,-1,-1,0
3211,269480,-1,0,0
3212,269490,-1,0,0
3213,269500,-1,0,0
3214,269510,-1,0,0
3215,269520,-1,0,0
3216,269530,-1,0,0
3217,269540,-1,0,0
3218,269550,-1,0,0
3219,269560,-1,0,0
3220,269570,-1,0,0
3221,269580,-1,0,0
3222,269590,-2,0,0
3223,269600,-1,0,0
3224,269610,-2,0,0
3225,269620,-2,0,0
3226,269630,-2,0,0
3227,269640,-1,0,0
3228,269650,-1,0,0
3229,269660,-2,0,0
3230,269670,-1,0,0
3231,269680,-1,1,0
3232,269690,-1,1,0
3233,269700,-1,0,0
3234,269710,-1,0,0
3235,269720,-1,0,0
3236,269730,-1,1,0
3237,269740,-1,0,0
3238,269750,-1,0,0
3239,269760,-1,0,0
3240,269770,-1,0,0
3241,269780,-2,0,0
3242,269790,-1,0,0
3243,269800,-1,0,0
3244,269810,-1,0,0
3245,269820,-1,0,0
3246,269830,-1,0,0
3247,269840,-1,0,0
3248,269850,-1,-1,0
3249,269860,-1,0,0
3250,269870,-1,-1,0
3251,269880,-1,0,0
3252,269890,-2,-1,0
3253,269900,-1,-1,0
3254,269910,-2,0,0
3255,269920,-2,-1,0
3256,269930,-1,-1,0
3257,269940,-2,-1,0
3258,269950,-2,-1,0
3259,269960,-1,-1,0
3260,269970,-2,-1,0
3261,269980,-2,-1,0
3262,269990,-1,-1,0
3263,270000,-2,-1,0
3264,270010,-2,-1,0
3265,270020,-2,-1,0
3266,270030,-2,-1,0
3267,270040,-2,-1,0
3268,270050,-2,-1,0
3269,270060,-2,-1,0
3270,270070,-2,-1,0
3271,270080,-2,-1,0
3272,270090,-2,-1,0
3273,270100,-2,-1,0
3274,270110,-2,-1,0
3275,270120,-2,-1,0
3276,270130,-2,-1,0
3277,270140,-2,-1,0
3278,270150,-2,-1,0
3279,270160,-2,-1,0
3280,270170,-2,-1,0
3281,270180,-2,-1,0
3282,270190,-2,-1,0
3283,270200,-2,-1,0
3284,270210,-2,-1,0
3285,270220,-2,-1,0
3286,270230,-2,-1,0
3287,270240,-2,-1,0
3288,270250,-2,-1,0
3289,270260,-2,-1,0
3290,270270,-1,-1,0
3291,270280,-1,-1,0
3292,270290,-2,-1,0
3293,270300,-1,-1,0
3294,270310,-1,-1,0
3295,270320,-2,-1,0
3296,270330,-2,-1,0
3297,270340,-2,-1,0
3298,270350,-1,-1,0
3299,270360,-2,-1,0
3300,270370,-2,-1,0
3301,270380,-2,-1,0
3302,270390,-2,-1,0
3303,270400,-2,-2,0
3304,270410,-1,-2,0
3305,270420,-2,-1,0
3306,270430,-2,-1,0
3307,270440,-2,-2,0
3308,270450,-1,-1,0
3309,270460,-1,-2,0
3310,270470,-1,-1,0
3311,270480,-1,-1,0
3312,270490,-1,-1,0
3313,270500,-1,-1,0
3314,270510,-1,-1,0
3315,270520,-1,-1,0
3316,270530,-1,-2,0
3317,270540,-1,-2,0
3318,270550,-1,-1,0
3319,270560,-1,-2,0
3320,270570,-1,-1,0
3321,270580,-1,-2,0
3322,270590,-1,-2,0
3323,270600,-1,-2,0
3324,270610,-1,-2,0
3325,270620,-1,-1,0
3326,270630,-1,-2,0
3327,270640,-1,-2,0
3328,270650,-1,-2,0
3329,270660,-1,-2,0
3330,270670,-1,-1,0
3331,270680,-1,-2,0
3332,270690,-1,-2,0
3333,270700,-1,-1,0
3334,270710,-1,-2,0
3335,270720,-1,-2,0
3336,270730,-1,-2,0
3337,270740,-1,-2,0
3338,270750,-1,-2,0
3339,270760,-1,-2,0
3340,270770,-1,-2,0
3341,270780,-1,-2,0
3342,270790,-1,-2,0
3343,270800,-1,-2,0
3344,270810,-1,-2,0
3345,270820,-1,-2,0
3346,270830,-1,-2,0
3347,270840,-1,-2,0
3348,270850,-1,-2,0
3349,270860,-1,-2,0
3350,270870,-1,-2,0
3351,270880,-1,-2,0
3352,270890,-1,-2,0
3353,270900,-1,-2,0
3354,270910,-1,-2,0
3355,270920,-1,-2,0
3356,270930,-1,-2,0
3357,270940,-1,-2,0
3358,270950,-1,-2,0
3359,270960,-1,-2,0
3360,270970,-1,-1,0
3361,270980,-1,-2,0
3362,270990,-1,-2,0
3363,271000,-1,-2,0
3364,271010,-1,-2,0
3365,271020,-1,-1,0
3366,271030,-1,-1,0
3367,271040,-1,-1,0
3368,271050,-1,-2,0
3369,271060,-1,-1,0
3370,271070,-1,-2,0
3371,271080,-1,-1,0
3372,271090,-1,-2,0
3373,271100,-1,-2,0
3374,271110,-1,-2,0
3375,271120,-1,-1,0
3376,271130,-1,-1,0
3377,271140,-1,-1,0
3378,271150,-1,-2,0
3379,271160,-1,-1,0
3380,271170,-1,-1,0
3381,271180,-1,-1,0
3382,271190,-2,-1,0
3383,271200,-1,-1,0
3384,271210,-2,-1,0
3385,271220,-1,-1,0
3386,271230,-1,-1,0
3387,271240,-1,-1,0
3388,271250,-2,-1,0
3389,271260,-1,-1,0
3390,271270,-2,0,0
3391,271280,-1,-1,0
3392,271290,-1,-1,0
3393,271300,-1,-1,0
3394,271310,-1,0,0
3395,271320,-1,-1,0
3396,271330,-1,-1,0
3397,271340,-1,0,0
3398,271350,-1,0,0
3399,271360,-1,0,0
3400,271370,-2,0,0
3401,271380,-1,0,0
3402,271390,-1,0,0
3403,271400,-1,-1,0
3404,271410,-1,-1,0
3405,271420,-1,-1,0
3406,271430,-1,0,0
3407,271440,-1,0,0
3408,271450,-1,0,0
3409,271460,-1,0,0
3410,271470,-1,-1,0
3411,271480,-1,0,0
3412,271490,-1,-1,0
3413,271500,-1,-1,0
3414,271510,-1,-1,0
3415,271520,-1,-1,0
3416,271530,-1,-1,0
3417,271540,-1,-1,0
3418,271550,-1,-1,0
3419,271560,-1,-1,0
3420,271570,-1,-1,0
3421,271580,-1,-1,0
3422,271590,-1,-1,0
3423,271600,-1,-1,0
3424,271610,-1,-1,0
3425,271620,-1,0,0
3426,271630,-1,0,0
3427,271640,-1,0,0
3428,271650,-1,0,0
3429,271660,-1,0,0
3430,271670,-1,0,0
3431,271680,-1,0,0
3432,271690,-1,0,0
3433,271700,-1,0,0
3434,271710,-1,0,0
3435,271720,-1,0,0
3436,271730,-1,0,0
3437,271740,-1,0,0
3438,271750,-1,0,0
3439,271760,-1,1,0
3440,271770,-1,1,0
3441,271780,-1,1,0
3442,271790,-1,1,0
3443,271800,-1,1,0
3444,271810,-1,1,0
3445,271820,-1,1,0
3446,271830,-1,1,0
3447,271840,-1,1,0
3448,271850,-1,1,0
3449,271860,-1,1,0
3450,271870,-1,1,0
3451,271880,-1,1,0
3452,271890,-1,1,0
3453,271900,-1,1,0
3454,271910,-1,1,0
3455,271920,-1,0,0
3456,271930,-1,0,0
3457,271940,-1,1,0
3458,271950,-1,0,0
3459,271960,-1,0,0
3460,271970,-1,0,0
3461,271980,-1,0,0
3462,271990,-1,0,0
3463,272000,-1,1,0
3464,272010,-1,0,0
3465,272020,-1,0,0
3466,272030,-1,0,0
3467,272040,-1,0,0
3468,272050,-1,0,0
3469,272060,-1,0,0
3470,272070,-1,0,0
3471,272080,-1,0,0
3472,272090,-1,0,0
3473,272100,-1,0,0
3474,272110,-1,0,0
3475,272120,-1,0,0
3476,272130,-1,0,0
3477,272140,-1,0,0
3478,272150,-1,0,0
3479,272160,-1,0,0
3480,272170,-2,0,0
3481,272180,-2,0,0
3482,272190,-1,0,0
3483,272200,-2,0,0
3484,272210,-2,0,0
3485,272220,-2,0,0
3486,272230,-1,0,0
3487,272240,-2,0,0
3488,272250,-2,0,0
3489,272260,-2,0,0
3490,272270,-2,0,0
3491,272280,-2,0,0
3492,272290,-2,0,0
3493,272300,-2,0,0
3494,272310,-2,0,0
3495,272320,-1,0,0
3496,272330,-2,0,0
3497,272340,-2,0,0
3498,272350,-2,0,0
3499,272360,-1,0,0
3500,272370,-2,0,0
3501,272380,-2,0,0
3502,272390,-2,0,0
3503,272400,-2,0,0
3504,272410,-1,0,0
3505,272420,-2,0,0
3506,272430,-2,1,0
3507,272440,-2,0,0
3508,272450,-2,1,0
3509,272460,-1,0,0
3510,272470,-1,0,0
3511,272480,-2,0,0
3512,272490,-1,0,0
3513,272500,-1,1,0
3514,272510,-1,0,0
3515,272520,-1,1,0
3516,272530,-1,0,0
3517,272540,-1,1,0
3518,272550,-1,1,0
3519,272560,-1,0,0
3520,272570,-1,0,0
3521,272580,-1,0,0
3522,272590,-1,0,0
3523,272600,-1,0,0
3524,272610,-1,0,0
3525,272620,-1,0,0
3526,272630,-1,0,0
3527,272640,-1,0,0
3528,272650,-1,0,0
3529,272660,-1,0,0
3530,272670,-1,0,0
3531,272680,-1,0,0
3532,272690,-1,0,0
3533,272700,-1,0,0
3534,272710,-1,0,0
3535,272720,-1,0,0
3536,272730,-1,0,0
3537,272740,-1,0,0
3538,272750,-1,0,0
3539,272760,-2,-1,0
3540,272770,-2,-1,0
3541,272780,-2,-1,0
3542,272790,-2,-1,0
3543,272800,-2,-1,0
3544,272810,-2,-1,0
3545,272820,-2,-1,0
3546,272830,-1,-1,0
3547,272840,-2,-1,0
3548,272850,-2,-1,0
3549,272860,-2,0,0
3550,272870,-2,-1,0
3551,272880,-2,-1,0
3552,272890,-2,0,0
3553,272900,-2,0,0
3554,272910,-2,0,0
3555,272920,-2,0,0
3556,272930,-1,0,0
3557,272940,-1,-1,0
3558,272950,-1,-1,0
3559,272960,-1,0,0
3560,272970,-1,0,0
3561,272980,-1,0,0
3562,272990,-1,0,0
3563,273000,-1,-1,0
3564,273010,-1,0,0
3565,273020,-1,0,0
3566,273030,-1,0,0
3567,273040,-1,0,0
3568,273050,-1,0,0
3569,273060,-2,0,0
3570,273070,-1,0,0
3571,273080,-1,0,0
3572,273090,-1,0,0
3573,273100,-1,0,0
3574,273110,-1,0,0
3575,273120,-1,0,0
3576,273130,-1,0,0
3577,273140,-1,0,0
3578,273150,-1,0,0
3579,273160,-1,0,0
3580,273170,-2,0,0
3581,273180,-1,0,0
3582,273190,-2,0,0
3583,273200,-2,0,0
3584,273210,-1,0,0
3585,273220,-2,-1,0
3586,273230,-2,-1,0
3587,273240,-2,-1,0
3588,273250,-2,-1,0
3589,273260,-2,-1,0
3590,273270,-2,-1,0
3591,273280,-2,-1,0
3592,273290,-2,-1,0
3593,273300,-2,-1,0
3594,273310,-2,-1,0
3595,273320,-2,-1,0
3596,273330,-2,-1,0
3597,273340,-2,-2,0
3598,273350,-2,-1,0
3599,273360,-2,-1,0
3600,273370,-2,-1,0
3601,273380,-2,-1,0
3602,273390,-2,-1,0
3603,273400,-2,-1,0
3604,273410,-2,-1,0
3605,273420,-2,-1,0
3606,273430,-2,-1,0
3607,273440,-2,-1,0
3608,273450,-2,-1,0
3609,273460,-2,0,0
3610,273470,-2,0,0
3611,273480,-2,0,0
3612,273490,-2,0,0
3613,273500,-2,0,0
3614,273510,-2,0,0
3615,273520,-2,0,0
3616,273530,-2,0,0
3617,273540,-2,0,0
3618,273550,-2,0,0
3619,273560,-2,0,0
3620,273570,-2,0,0
3621,273580,-1,0,0
3622,273590,-2,0,0
3623,273600,-2,0,0
3624,273610,-2,0,0
3625,273620,-2,0,0
3626,273630,-2,0,0
3627,273640,-1,0,0
3628,273650,-1,0,0
3629,273660,-1,0,0
3630,273670,-2,0,0
3631,273680,-1,0,0
3632,273690,-1,0,0
3633,273700,-1,0,0
3634,273710,-1,0,0
3635,273720,-2,0,0
3636,273730,-1,-1,0
3637,273740,-1,0,0
3638,273750,-1,0,0
3639,273760,-1,0,0
3640,273770,-1,0,0
3641,273780,-1,0,0
3642,273790,-1,0,0
3643,273800,-1,0,0
3644,273810,-1,0,0
3645,273820,-1,0,0
3646,273830,-1,0,0
3647,273840,-2,0,0
3648,273850,-1,0,0
3649,273860,-1,0,0
3650,273870,-1,0,0
3651,273880,-1,0,0
3652,273890,-2,0,0
3653,273900,-1,0,0
3654,273910,-1,0,0
3655,273920,-2,0,0
3656,273930,-1,0,0
3657,273940,-2,0,0
3658,273950,-1,0,0
3659,273960,-2,0,0
3660,273970,-2,0,0
3661,273980,-1,0,0
3662,273990,-1,0,0
3663,274000,-1,0,0
3664,274010,-1,1,0
3665,274020,-1,1,0
3666,274030,-1,1,0
3667,274040,-1,1,0
3668,274050,-2,1,0
3669,274060,-1,0,0
3670,274070,-2,0,0
3671,274080,-2,0,0
3672,274090,-1,0,0
3673,274100,-1,0,0
3674,274110,-1,0,0
3675,274120,-1,0,0
3676,274130,-1,0,0
3677,274140,-1,0,0
3678,274150,-1,0,0
3679,274160,-1,0,0
3680,274170,-1,0,0
3681,274180,-1,0,0
3682,274190,-1,0,0
3683,274200,-1,0,0
3684,274210,-1,0,0
3685,274220,-1,0,0
3686,274230,-1,0,0
3687,274240,-1,0,0
3688,274250,-1,0,0
3689,274260,-1,0,0
3690,274270,-1,0,0
3691,274280,-1,0,0
3692,274290,-1,0,0
3693,274300,-1,0,0
3694,274310,-1,0,0
3695,274320,-1,0,0
3696,274330,-1,0,0
3697,274340,-1,0,0
3698,274350,-1,0,0
3699,274360,-1,0,0
3700,274370,-1,0,0
3701,274380,-1,0,0
3702,274390,-1,0,0
3703,274400,-1,1,0
3704,274410,-1,0,0
3705,274420,-1,1,0
3706,274430,-1,1,0
3707,274440,-1,1,0
3708,274450,-1,0,0
3709,274460,-1,0,0
3710,274470,-1,0,0
3711,274480,-1,0,0
3712,274490,-1,0,0
3713,274500,-1,0,0
3714,274510,-1,0,0
3715,274520,-1,0,0
3716,274530,-1,0,0
3717,274540,-1,0,0
3718,274550,-1,0,0
3719,274560,-1,1,0
3720,274570,-1,1,0
3721,274580,-1,0,0
3722,274590,-1,0,0
3723,274600,-1,0,0
3724,274610,-1,0,0
3725,274620,0,0,0
3726,274630,-1,0,0
3727,274640,-1,0,0
3728,274650,-1,0,0
3729,274660,-1,0,0
3730,274670,0,0,0
3731,274680,0,0,0
3732,274690,-1,0,0
3733,274700,-1,0,0
3734,274710,-1,0,0
3735,274720,-1,0,0
3736,274730,-1,0,0
3737,274740,-1,0,0
3738,274750,-1,0,0
3739,274760,-1,0,0
3740,274770,-1,1,0
3741,274780,-1,0,0
3742,274790,-1,1,0
3743,274800,-1,1,0
3744,274810,-1,1,0
3745,274820,-1,1,0
3746,274830,-1,1,0
3747,274840,-1,1,0
3748,274850,-1,1,0
3749,274860,-1,1,0
3750,274870,-1,1,0
3751,274880,-1,1,0
3752,274890,0,1,0
3753,274900,-1,1,0
3754,274910,-1,0,0
3755,274920,-1,1,0
3756,274930,0,1,0
3757,274940,-1,1,0
3758,274950,-1,1,0
3759,274960,0,1,0
3760,274970,0,1,0
3761,274980,0,1,0
3762,274990,0,1,0
3763,275000,0,1,0
3764,275010,-1,1,0
3765,275020,0,1,0
3766,275030,0,1,0
3767,275040,0,1,0
3768,275050,-1,1,0
3769,275060,-1,1,0
3770,275070,-1,1,0
3771,275080,-1,1,0
3772,275090,0,1,0
3773,275100,0,1,0
3774,275110,0,1,0
3775,275120,0,1,0
3776,275130,0,1,0
3777,275140,0,1,0
3778,275150,0,0,0
3779,275160,-1,0,0
3780,275170,-1,0,0
3781,275180,-1,1,0
3782,275190,-1,1,0
3783,275200,-1,1,0
3784,275210,-1,1,0
3785,275220,-1,0,0
3786,275230,-1,1,0
3787,275240,-1,1,0
3788,275250,-1,1,0
3789,275260,-1,1,0
3790,275270,-1,1,0
3791,275280,-1,1,0
3792,275290,-1,1,0
3793,275300,-1,1,0
3794,275310,-1,0,0
3795,275320,-1,1,0
3796,275330,-1,1,0
3797,275340,-1,1,0
3798,275350,-1,1,0
3799,275360,-1,1,0
3800,275370,-1,1,0
3801,275380,-1,1,0
3802,275390,-1,0,0
3803,275400,-1,0,0
3804,275410,-1,0,0
3805,275420,-1,0,0
3806,275430,-1,0,0
3807,275440,-1,0,0
3808,275450,-2,0,0
3809,275460,-2,0,0
3810,275470,-2,0,0
3811,275480,-2,0,0
3812,275490,-2,0,0
3813,275500,-2,0,0
3814,275510,-2,0,0
3815,275520,-2,0,0
3816,275530,-2,0,0
3817,275540,-2,0,0
3818,275550,-1,0,0
3819,275560,-1,0,0
3820,275570,-1,0,0
3821,275580,-1,0,0
3822,275590,-2,0,0
3823,275600,-2,0,0
3824,275610,-1,0,0
3825,275620,-2,0,0
3826,275630,-1,0,0
3827,275640,-2,0,0
3828,275650,-2,0,0
3829,275660,-2,0,0
3830,275670,-2,0,0
3831,275680,-2,0,0
3832,275690,-1,1,0
3833,275700,-2,1,0
3834,275710,-1,1,0
3835,275720,-1,1,0
3836,275730,-1,1,0
3837,275740,-1,1,0
3838,275750,-1,1,0
3839,275760,-1,1,0
3840,275770,-1,1,0
3841,275780,-1,1,0
3842,275790,-1,1,0
3843,275800,-1,1,0
3844,275810,-1,1,0
3845,275820,-1,1,0
3846,275830,-1,1,0
3847,275840,-1,1,0
3848,275850,-1,1,0
3849,275860,-1,1,0
3850,275870,-1,1,0
3851,275880,-1,1,0
3852,275890,-1,1,0
3853,275900,-1,1,0
3854,275910,-1,1,0
3855,275920,-1,1,0
3856,275930,-1,0,0
3857,275940,-1,1,0
3858,275950,-1,1,0
3859,275960,-1,1,0
3860,275970,-1,1,0
3861,275980,-1,1,0
3862,275990,-1,0,0
3863,276000,-1,1,0
3864,276010,-1,1,0
3865,276020,-1,0,0
3866,276030,-1,0,0
3867,276040,-1,0,0
3868,276050,-1,0,0
3869,276060,-1,0,0
3870,276070,-1,0,0
3871,276080,-1,0,0
3872,276090,-1,0,0
3873,276100,-1,0,0
3874,276110,-1,0,0
3875,276120,-1,0,0
3876,276130,-1,0,0
3877,276140,-1,0,0
3878,276150,-1,0,0
3879,276160,-1,0,0
3880,276170,-1,0,0
3881,276180,-1,0,0
3882,276190,0,0,0
3883,276200,-1,0,0
3884,276210,-1,0,0
3885,276220,-1,0,0
3886,276230,-1,0,0
3887,276240,-1,0,0
3888,276250,-1,0,0
3889,276260,-1,0,0
3890,276270,-1,0,0
3891,276280,-1,1,0
3892,276290,-1,1,0
3893,276300,-1,1,0
3894,276310,-1,1,0
3895,276320,-1,1,0
3896,276330,-1,1,0
3897,276340,-1,1,0
3898,276350,-1,1,0
3899,276360,-1,1,0
3900,276370,-1,2,0
3901,276380,-1,1,0
3902,276390,-1,1,0
3903,276400,-1,1,0
3904,276410,-1,1,0
3905,276420,-1,1,0
3906,276430,-1,1,0
3907,276440,-1,1,0
3908,276450,-1,1,0
3909,276460,-1,1,0
3910,276470,-1,1,0
3911,276480,-1,1,0
3912,276490,-1,1,0
3913,276500,-1,1,0
3914,276510,-1,1,0
3915,276520,-1,1,0
3916,276530,-1,0,0
3917,276540,-1,1,0
3918,276550,-1,1,0
3919,276560,-1,0,0
3920,276570,-1,0,0
3921,276580,-1,0,0
3922,276590,-1,0,0
3923,276600,-1,1,0
3924,276610,-1,1,0
3925,276620,-1,1,0
3926,276630,-1,0,0
3927,276640,-1,0,0
3928,276650,-1,0,0
3929,276660,-1,0,0
3930,276670,-1,0,0
3931,276680,-1,0,0
3932,276690,-1,0,0
3933,276700,-1,0,0
3934,276710,-1,0,0
3935,276720,-1,0,0
3936,276730,-1,0,0
3937,276740,-1,0,0
3938,276750,-2,0,0
3939,276760,-2,0,0
3940,276770,-1,0,0
3941,276780,-1,1,0
3942,276790,-2,0,0
3943,276800,-2,0,0
3944,276810,-2,0,0
3945,276820,-2,0,0
3946,276830,-2,0,0
3947,276840,-2,0,0
3948,276850,-2,0,0
3949,276860,-2,0,0
3950,276870,-2,0,0
3951,276880,-2,0,0
3952,276890,-2,0,0
3953,276900,-2,0,0
3954,276910,-2,0,0
3955,276920,-2,0,0
3956,276930,-2,0,0
3957,276940,-2,0,0
3958,276950,-2,0,0
3959,276960,-2,0,0
3960,276970,-2,0,0
3961,276980,-2,0,0
3962,276990,-2,0,0
3963,277000,-1,0,0
3964,277010,-1,0,0
3965,277020,-1,0,0
3966,277030,-1,0,0
3967,277040,-1,0,0
3968,277050,-1,0,0
3969,277060,-1,0,0
3970,277070,-1,0,0
3971,277080,-1,0,0
3972,277090,-1,0,0
3973,277100,-1,0,0
3974,277110,-1,0,0
3975,277120,-1,0,0
3976,277130,-1,0,0
3977,277140,-1,0,0
3978,277150,-1,0,0
3979,277160,-1,0,0
3980,277170,-1,1,0
3981,277180,-1,0,0
3982,277190,-1,1,0
3983,277200,-1,0,0
3984,277210,-1,1,0
3985,277220,-1,1,0
3986,277230,-1,1,0
3987,277240,-1,1,0
3988,277250,-1,1,0
3989,277260,-1,1,0
3990,277270,-1,0,0
3991,277280,-1,1,0
3992,277290,-1,0,0
3993,277300,-1,1,0
3994,277310,-1,1,0
3995,277320,-1,1,0
3996,277330,-1,1,0
3997,277340,-1,1,0
3998,277350,-1,1,0
3999,277360,-1,1,0
4000,277370,-1,1,0
4001,277380,-1,0,0
4002,277390,-1,1,0
4003,277400,-1,1,0
4004,277410,-1,0,0
4005,277420,-1,0,0
4006,277430,-1,0,0
4007,277440,-1,0,0
4008,277450,-1,0,0
4009,277460,-1,0,0
4010,277470,-1,0,0
4011,277480,-1,0,0
4012,277490,-1,0,0
4013,277500,-1,0,0
4014,277510,-1,0,0
4015,277520,-1,-1,0
4016,277530,-1,-1,0
4017,277540,-1,-1,0
4018,277550,-1,-1,0
4019,277560,-1,-1,0
4020,277570,-1,-1,0
4021,277580,-1,-1,0
4022,277590,-1,-1,0
4023,277600,-1,-1,0
4024,277610,-1,-1,0
4025,277620,-1,-1,0
4026,277630,-1,-1,0
4027,277640,-1,-1,0
4028,277650,-1,-1,0
4029,277660,-1,-1,0
4030,277670,-1,-1,0
4031,277680,-1,-1,0
4032,277690,-1,-1,0
4033,277700,-1,-1,0
4034,277710,-1,-1,0
4035,277720,-1,-1,0
4036,277730,-1,-1,0
4037,277740,-1,-1,0
4038,277750,-2,-1,0
4039,277760,-2,-2,0
4040,277770,-2,-1,0
4041,277780,-2,-2,0
4042,277790,-2,-2,0
4043,277800,-2,-1,0
4044,277810,-2,-1,0
4045,277820,-2,-1,0
4046,277830,-2,-1,0
4047,277840,-2,-2,0
4048,277850,-2,-2,0
4049,277860,-2,-2,0
4050,277870,-2,-1,0
4051,277880,-2,-1,0
4052,277890,-2,-1,0
4053,277900,-2,-2,0
4054,277910,-2,-1,0
4055,277920,-2,-1,0
4056,277930,-2,-1,0
4057,277940,-2,-1,0
4058,277950,-2,-1,0
4059,277960,-2,-2,0
4060,277970,-1,-2,0
4061,277980,-2,-2,0
4062,277990,-2,-2,0
4063,278000,-2,-2,0
4064,278010,-1,-2,0
4065,278020,-1,-2,0
4066,278030,-1,-2,0
4067,278040,-2,-2,0
4068,278050,-2,-2,0
4069,278060,-2,-2,0
4070,278070,-2,-1,0
4071,278080,-1,-1,0
4072,278090,-2,-1,0
4073,278100,-1,-1,0
4074,278110,-1,-1,0
4075,278120,-1,-1,0
4076,278130,-2,-1,0
4077,278140,-1,-1,0
4078,278150,-2,0,0
4079,278160,-2,0,0
4080,278170,-1,0,0
4081,278180,-2,0,0
4082,278190,-2,0,0
4083,278200,-1,0,0
4084,278210,-2,0,0
4085,278220,-2,0,0
4086,278230,-1,0,0
4087,278240,-2,0,0
4088,278250,-1,0,0
4089,278260,-2,0,0
4090,278270,-1,0,0
4091,278280,-2,0,0
4092,278290,-1,0,0
4093,278300,-1,0,0
4094,278310,-1,0,0
4095,278320,-1,-1,0
4096,278330,-2,-1,0
4097,278340,-1,-1,0
4098,278350,-2,-1,0
4099,278360,-1,-1,0
4100,278370,-2,-1,0
4101,278380,-2,-2,0
4102,278390,-1,-1,0
4103,278400,-1,-2,0
4104,278410,-1,-2,0
4105,278420,-2,-2,0
4106,278430,-2,-2,0
4107,278440,-2,-2,0
4108,278450,-2,-2,0
4109,278460,-2,-2,0
4110,278470,-2,-2,0
4111,278480,-2,-2,0
4112,278490,-2,-2,0
4113,278500,-2,-2,0
4114,278510,-2,-1,0
4115,278520,-2,-2,0
4116,278530,-2,-1,0
4117,278540,-2,-1,0
4118,278550,-2,-1,0
4119,278560,-1,-1,0
4120,278570,-2,-1,0
4121,278580,-1,-1,0
4122,278590,-1,-1,0
4123,278600,-1,-1,0
4124,278610,-2,-1,0
4125,278620,-1,-1,0
4126,278630,-2,-1,0
4127,278640,-1,-1,0
4128,278650,-1,-1,0
4129,278660,-1,-1,0
4130,278670,-1,-1,0
4131,278680,-2,-1,0
4132,278690,-1,-1,0
4133,278700,-2,-1,0
4134,278710,-1,-1,0
4135,278720,-1,-1,0
4136,278730,-1,-1,0
4137,278740,-1,-1,0
4138,278750,-1,-1,0
4139,278760,-1,-1,0
4140,278770,-1,-2,0
4141,278780,-2,-1,0
4142,278790,-1,-1,0
4143,278800,-1,-2,0
4144,278810,-2,-1,0
4145,278820,-1,-1,0
4146,278830,-1,-2,0
4147,278840,-1,-1,0
4148,278850,-1,-1,0
4149,278860,-1,-2,0
4150,278870,-1,-2,0
4151,278880,-1,-2,0
4152,278890,-1,-2,0
4153,278900,-1,-2,0
4154,278910,-1,-2,0
4155,278920,-1,-2,0
4156,278930,-1,-2,0
4157,278940,-1,-2,0
4158,278950,-1,-2,0
4159,278960,-1,-2,0
4160,278970,-1,-2,0
4161,278980,-1,-2,0
4162,278990,-1,-2,0
4163,279000,-1,-2,0
4164,279010,-1,-2,0
4165,279020,-1,-2,0
4166,279030,-1,-2,0
4167,279040,-1,-2,0
4168,279050,-1,-2,0
4169,279060,-1,-2,0
4170,279070,-1,-2,0
4171,279080,-1,-2,0
4172,279090,-1,-2,0
4173,279100,-1,-1,0
4174,279110,-1,-2,0
4175,279120,-1,-1,0
4176,279130,-1,-1,0
4177,279140,-1,-1,0
4178,279150,-1,-1,0
4179,279160,-1,-1,0
4180,279170,-1,-1,0
4181,279180,-1,-1,0
4182,279190,-1,-1,0
4183,279200,-1,-2,0
4184,279210,-2,-1,0
4185,279220,-2,-1,0
4186,279230,-2,-1,0
4187,279240,-2,-1,0
4188,279250,-2,-1,0
4189,279260,-2,-2,0
4190,279270,-2,-1,0
4191,279280,-2,-1,0
4192,279290,-2,-1,0
4193,279300,-2,-1,0
4194,279310,-2,-1,0
4195,279320,-2,-2,0
4196,279330,-2,-1,0
4197,279340,-2,-1,0
4198,279350,-2,-1,0
4199,279360,-2,-1,0
4200,279370,-2,-1,0
4201,279380,-2,-1,0
4202,279390,-2,-1,0
4203,279400,-2,-1,0
4204,279410,-2,-1,0
4205,279420,-2,-1,0
4206,279430,-1,-1,0
4207,279440,-2,-1,0
4208,279450,-2,-1,0
4209,279460,-1,-1,0
4210,279470,-1,-1,0
4211,279480,-2,-1,0
4212,279490,-1,-1,0
4213,279500,-1,-1,0
4214,279510,-1,-1,0
4215,279520,-1,-1,0
4216,279530,-2,0,0
4217,279540,-2,-1,0
4218,279550,-1,-1,0
4219,279560,-1,-1,0
4220,279570,-2,-1,0
4221,279580,-1,-1,0
4222,279590,-2,-1,0
4223,279600,-1,-1,0
4224,279610,-2,-1,0
4225,279620,-1,-1,0
4226,279630,-2,-1,0
4227,279640,-1,-1,0
4228,279650,-1,-1,0
4229,279660,-2,-1,0
4230,279670,-2,-1,0
4231,279680,-2,-1,0
4232,279690,-2,-1,0
4233,279700,-2,-2,0
4234,279710,-2,-2,0
4235,279720,-2,-1,0
4236,279730,-2,-2,0
4237,279740,-2,-2,0
4238,279750,-2,-1,0
4239,279760,-2,-1,0
4240,279770,-2,-1,0
4241,279780,-2,-1,0
4242,279790,-2,-1,0
4243,279800,-2,-1,0
4244,279810,-2,-1,0
4245,279820,-2,-1,0
4246,279830,-2,-1,0
4247,279840,-2,-2,0
4248,279850,-2,-1,0
4249,279860,-2,-1,0
4250,279870,-2,-1,0
4251,279880,-2,-1,0
4252,279890,-2,-2,0
4253,279900,-2,-2,0
4254,279910,-2,-1,0
4255,279920,-2,-2,0
4256,279930,-2,-1,0
4257,279940,-2,-1,0
4258,279950,-2,-1,0
4259,279960,-2,-1,0
4260,279970,-2,-1,0
4261,279980,-2,-1,0
4262,279990,-2,-1,0
4263,280000,-1,-1,0
4264,280010,-1,-1,0
4265,280020,-1,-1,0
4266,280030,-2,-1,0
4267,280040,-1,-1,0
4268,280050,-1,-1,0
4269,280060,-2,-1,0
4270,280070,-2,-1,0
4271,280080,-2,-1,0
4272,280090,-2,-1,0
4273,280100,-2,0,0
4274,280110,-2,0,0
4275,280120,-1,-1,0
4276,280130,-1,0,0
4277,280140,-1,0,0
4278,280150,-1,0,0
4279,280160,-1,0,0
4280,280170,-1,0,0
4281,280180,-1,0,0
4282,280190,-1,0,0
4283,280200,-1,0,0
4284,280210,-1,0,0
4285,280220,-1,0,0
4286,280230,-1,-1,0
4287,280240,-1,0,0
4288,280250,-1,0,0
4289,280260,-1,0,0
4290,280270,-1,0,0
4291,280280,-1,0,0
4292,280290,-1,0,0
4293,280300,-1,0,0
4294,280310,-1,0,0
4295,280320,-1,0,0
4296,280330,-1,0,0
4297,280340,-1,0,0
4298,280350,-1,0,0
4299,280360,-1,0,0
4300,280370,-1,0,0
4301,280380,-1,0,0
4302,280390,-1,0,0
4303,280400,-1,0,0
4304,280410,-1,0,0
4305,280420,-1,1,0
4306,280430,-1,1,0
4307,280440,-1,1,0
4308,280450,-1,1,0
4309,280460,-1,1,0
4310,280470,-1,1,0
4311,280480,-1,1,0
4312,280490,-1,1,0
4313,280500,-1,1,0
4314,280510,-1,2,0
4315,280520,-1,1,0
4316,280530,-1,1,0
4317,280540,-1,1,0
4318,280550,-1,1,0
4319,280560,-1,1,0
4320,280570,-1,1,0
4321,280580,-1,1,0
4322,280590,-1,1,0
4323,280600,-1,0,0
4324,280610,-1,0,0
4325,280620,-1,0,0
4326,280630,-1,0,0
4327,280640,-1,0,0
4328,280650,-1,0,0
4329,280660,-1,0,0
4330,280670,-1,0,0
4331,280680,-1,0,0
4332,280690,-1,0,0
4333,280700,-1,0,0
4334,280710,-1,0,0
4335,280720,-1,-1,0
4336,280730,-1,0,0
4337,280740,-1,0,0
4338,280750,-1,0,0
4339,280760,-1,-1,0
4340,280770,-1,-1,0
4341,280780,-1,-1,0
4342,280790,-2,-1,0
4343,280800,-1,-1,0
4344,280810,-1,-1,0
4345,280820,-1,-1,0
4346,280830,-1,-1,0
4347,280840,-1,-1,0
4348,280850,-2,-1,0
4349,280860,-2,-1,0
4350,280870,-1,-1,0
4351,280880,-1,-1,0
4352,280890,-1,-1,0
4353,280900,-2,-1,0
4354,280910,-1,-1,0
4355,280920,-1,-1,0
4356,280930,-1,-1,0
4357,280940,-1,-1,0
4358,280950,-1,-1,0
4359,280960,-1,-1,0
4360,280970,-2,-1,0
4361,280980,-1,-1,0
4362,280990,-2,-1,0
4363,281000,-2,0,0
4364,281010,-1,-1,0
4365,281020,-2,0,0
4366,281030,-1,0,0
4367,281040,-1,0,0
4368,281050,-2,0,0
4369,281060,-2,0,0
4370,281070,-2,0,0
4371,281080,-2,0,0
4372,281090,-2,0,0
4373,281100,-1,0,0
4374,281110,-2,0,0
4375,281120,-2,0,0
4376,281130,-1,0,0
4377,281140,-1,1,0
4378,281150,-1,1,0
4379,281160,-1,1,0
4380,281170,-1,0,0
4381,281180,-1,0,0
4382,281190,-1,0,0
4383,281200,-1,0,0
4384,281210,-1,0,0
4385,281220,-1,0,0
4386,281230,-1,0,0
4387,281240,-1,0,0
4388,281250,-1,0,0
4389,281260,-1,0,0
4390,281270,-2,0,0
4391,281280,-1,0,0
4392,281290,-1,0,0
4393,281300,-1,0,0
4394,281310,-1,-1,0
4395,281320,-1,-1,0
4396,281330,-1,-1,0
4397,281340,-1,-1,0
4398,281350,-1,-1,0
4399,281360,-1,-1,0
4400,281370,-1,-1,0
4401,281380,-2,-1,0
4402,281390,-1,-1,0
4403,281400,-1,0,0
4404,281410,-1,0,0
4405,281420,-1,0,0
4406,281430,-1,0,0
4407,281440,-1,0,0
4408,281450,-1,0,0
4409,281460,-1,0,0
4410,281470,-1,0,0
4411,281480,-1,0,0
4412,281490,-1,0,0
4413,281500,-1,0,0
4414,281510,-1,0,0
4415,281520,-1,0,0
4416,281530,-1,0,0
4417,281540,-1,0,0
4418,281550,-1,0,0
4419,281560,-1,0,0
4420,281570,-1,0,0
4421,281580,-1,0,0
4422,281590,-1,0,0
4423,281600,-1,0,0
4424,281610,-1,-1,0
4425,281620,-1,0,0
4426,281630,-1,0,0
4427,281640,-1,0,0
4428,281650,-1,0,0
4429,281660,-1,-1,0
4430,281670,-1,-1,0
4431,281680,-1,0,0
4432,281690,-1,-1,0
4433,281700,-1,-1,0
4434,281710,-1,-1,0
4435,281720,-1,-1,0
4436,281730,-1,-1,0
4437,281740,-1,-1,0
4438,281750,0,-1,0
4439,281760,-1,-1,0
4440,281770,-1,-1,0
4441,281780,-1,-1,0
4442,281790,-1,-1,0
4443,281800,-1,-1,0
4444,281810,-1,-1,0
4445,281820,-1,-2,0
4446,281830,-1,-1,0
4447,281840,-1,-2,0
4448,281850,-1,-1,0
4449,281860,-1,-1,0
4450,281870,-1,-1,0
4451,281880,-1,-1,0
4452,281890,-1,-1,0
4453,281900,-1,-1,0
4454,281910,-1,-1,0
4455,281920,-1,-1,0
4456,281930,-1,-1,0
4457,281940,-1,-1,0
4458,281950,-1,-1,0
4459,281960,-1,-1,0
4460,281970,0,-1,0
4461,281980,-1,-1,0
4462,281990,-1,-1,0
4463,282000,-1,0,0
4464,282010,-1,0,0
4465,282020,-1,0,0
4466,282030,-1,0,0
4467,282040,-1,0,0
4468,282050,-1,0,0
4469,282060,-1,0,0
4470,282070,-1,0,0
4471,282080,-1,0,0
4472,282090,-1,0,0
4473,282100,-1,0,0
4474,282110,-1,0,0
4475,282120,0,0,0
4476,282130,-1,0,0
4477,282140,-1,1,0
4478,282150,-1,0,0
4479,282160,-1,0,0
4480,282170,-1,0,0
4481,282180,-1,1,0
4482,282190,-1,1,0
4483,282200,-1,1,0
4484,282210,-1,1,0
4485,282220,-1,0,0
4486,282230,0,0,0
4487,282240,-1,0,0
4488,282250,-1,0,0
4489,282260,-1,0,0
4490,282270,-1,0,0
4491,282280,-1,0,0
4492,282290,-1,0,0
4493,282300,-1,0,0
4494,282310,-1,0,0
4495,282320,-1,0,0
4496,282330,-1,0,0
4497,282340,-1,0,0
4498,282350,-1,0,0
4499,282360,-2,-1,0
4500,282370,-2,-1,0
4501,282380,-1,-1,0
4502,282390,-2,-1,0
4503,282400,-1,-1,0
4504,282410,-2,-1,0
4505,282420,-2,-1,0
4506,282430,-2,-1,0
4507,282440,-2,-1,0
4508,282450,-2,-1,0
4509,282460,-2,-1,0
4510,282470,-2,-2,0
4511,282480,-2,-2,0
4512,282490,-2,-2,0
4513,282500,-2,-2,0
4514,282510,-2,-2,0
4515,282520,-2,-2,0
4516,282530,-2,-2,0
4517,282540,-2,-2,0
4518,282550,-2,-2,0
4519,282560,-2,-1,0
4520,282570,-1,-1,0
4521,282580,-2,-1,0
4522,282590,-1,-1,0
4523,282600,-1,-1,0
4524,282610,-1,-1,0
4525,282620,-1,-1,0
4526,282630,-1,-1,0
4527,282640,-1,-1,0
4528,282650,-1,0,0
4529,282660,-1,0,0
4530,282670,-1,0,0
4531,282680,-1,0,0
4532,282690,-1,0,0
4533,282700,-1,0,0
4534,282710,-1,0,0
4535,282720,-1,0,0
4536,282730,-2,0,0
4537,282740,-1,0,0
4538,282750,-1,0,0
4539,282760,-1,1,0
4540,282770,-1,1,0
4541,282780,-1,0,0
4542,282790,-1,1,0
4543,282800,-1,1,0
4544,282810,-1,0,0
4545,282820,-2,0,0
4546,282830,-2,0,0
4547,282840,-1,0,0
4548,282850,-1,0,0
4549,282860,-1,0,0
4550,282870,-2,0,0
4551,282880,-1,0,0
4552,282890,-2,-1,0
4553,282900,-2,0,0
4554,282910,-2,-1,0
4555,282920,-1,-1,0
4556,282930,-1,-1,0
4557,282940,-1,-1,0
4558,282950,-1,-1,0
4559,282960,-1,-1,0
4560,282970,-1,-1,0
4561,282980,-2,-1,0
4562,282990,-1,-1,0
4563,283000,-1,-1,0
4564,283010,-1,-1,0
4565,283020,-1,-1,0
4566,283030,-1,-1,0
4567,283040,-1,-1,0
4568,283050,-1,-1,0
4569,283060,-1,-1,0
4570,283070,-1,-1,0
4571,283080,-1,-1,0
4572,283090,-1,-1,0
4573,283100,-1,-1,0
4574,283110,-1,-1,0
4575,283120,-1,-1,0
4576,283130,-1,0,0
4577,283140,-1,-1,0
4578,283150,-1,-1,0
4579,283160,-1,-1,0
4580,283170,-1,0,0
4581,283180,-1,0,0
4582,283190,-1,0,0
4583,283200,-1,0,0
4584,283210,-1,0,0
4585,283220,-1,0,0
4586,283230,-1,0,0
4587,283240,-1,0,0
4588,283250,-1,0,0
4589,283260,-1,0,0
4590,283270,-1,0,0
4591,283280,-1,1,0
4592,283290,-1,0,0
4593,283300,-1,0,0
4594,283310,-1,1,0
4595,283320,-1,0,0
4596,283330,-1,1,0
4597,283340,-1,1,0
4598,283350,-2,1,0
4599,283360,-2,1,0
4600,283370,-1,1,0
4601,283380,-1,1,0
4602,283390,-2,1,0
4603,283400,-2,1,0
4604,283410,-1,1,0
4605,283420,-1,1,0
4606,283430,-1,1,0
4607,283440,-1,1,0
4608,283450,-2,1,0
4609,283460,-1,1,0
4610,283470,-2,1,0
4611,283480,-1,1,0
4612,283490,-1,1,0
4613,283500,-1,0,0
4614,283510,-1,0,0
4615,283520,-1,0,0
4616,283530,-1,0,0
4617,283540,-1,0,0
4618,283550,-1,0,0
4619,283560,-1,0,0
4620,283570,-1,0,0
4621,283580,-1,0,0
4622,283590,-1,0,0
4623,283600,-1,0,0
4624,283610,-2,0,0
4625,283620,-1,0,0
4626,283630,-1,0,0
4627,283640,-1,0,0
4628,283650,-1,0,0
4629,283660,-1,0,0
4630,283670,-1,0,0
4631,283680,-1,0,0
4632,283690,-1,0,0
4633,283700,-1,0,0
4634,283710,-1,0,0
4635,283720,-1,0,0
4636,283730,-1,0,0
4637,283740,-1,0,0
4638,283750,-1,0,0
4639,283760,-1,0,0
4640,283770,-1,0,0
4641,283780,-1,1,0
4642,283790,-1,1,0
4643,283800,-1,1,0
4644,283810,-1,1,0
4645,283820,-1,0,0
4646,283830,-1,0,0
4647,283840,-1,0,0
4648,283850,-1,0,0
4649,283860,-1,0,0
4650,283870,-1,0,0
4651,283880,-1,0,0
4652,283890,-1,0,0
4653,283900,-1,0,0
4654,283910,-1,0,0
4655,283920,-1,0,0
4656,283930,-1,0,0
4657,283940,-1,0,0
4658,283950,-1,0,0
4659,283960,-1,1,0
4660,283970,-1,0,0
4661,283980,-1,0,0
4662,283990,-1,0,0
4663,284000,-1,1,0
4664,284010,-1,0,0
4665,284020,-1,1,0
4666,284030,-1,1,0
4667,284040,-1,1,0
4668,284050,-1,1,0
4669,284060,-1,1,0
4670,284070,-1,1,0
4671,284080,-1,1,0
4672,284090,-1,1,0
4673,284100,-1,1,0
4674,284110,-1,1,0
4675,284120,-1,1,0
4676,284130,-1,1,0
4677,284140,-1,1,0
4678,284150,-1,1,0
4679,284160,-1,0,0
4680,284170,-1,0,0
4681,284180,-1,1,0
4682,284190,-1,0,0
4683,284200,-1,0,0
4684,284210,-1,0,0
4685,284220,-1,0,0
4686,284230,-1,0,0
4687,284240,-1,0,0
4688,284250,-1,0,0
4689,284260,-1,0,0
4690,284270,-1,0,0
4691,284280,-1,0,0
4692,284290,-1,0,0
4693,284300,-1,0,0
4694,284310,-1,-1,0
4695,284320,-1,0,0
4696,284330,-1,-1,0
4697,284340,-1,-1,0
4698,284350,-1,-1,0
4699,284360,-1,-1,0
4700,284370,-1,-1,0
4701,284380,-1,-1,0
4702,284390,-1,-1,0
4703,284400,-2,-1,0
4704,284410,-1,-1,0
4705,284420,-2,-1,0
4706,284430,-1,-1,0
4707,284440,-2,-1,0
4708,284450,-1,-1,0
4709,284460,-2,0,0
4710,284470,-2,-1,0
4711,284480,-1,0,0
4712,284490,-1,0,0
4713,284500,-2,0,0
4714,284510,-1,-1,0
4715,284520,-1,0,0
4716,284530,-1,0,0
4717,284540,-1,0,0
4718,284550,-1,0,0
4719,284560,-1,0,0
4720,284570,-1,0,0
4721,284580,-1,0,0
4722,284590,-1,0,0
4723,284600,-1,0,0
4724,284610,-1,0,0
4725,284620,-1,1,0
4726,284630,-1,0,0
4727,284640,-1,0,0
4728,284650,-1,0,0
4729,284660,-1,0,0
4730,284670,-1,0,0
4731,284680,-1,0,0
4732,284690,-1,0,0
4733,284700,-1,0,0
4734,284710,-1,0,0
4735,284720,-1,0,0
4736,284730,-1,0,0
4737,284740,-1,0,0
4738,284750,-1,0,0
4739,284760,-1,0,0
4740,284770,-1,0,0
4741,284780,-1,0,0
4742,284790,-1,0,0
4743,284800,-1,0,0
4744,284810,-1,0,0
4745,284820,-1,0,0
4746,284830,-1,0,0
4747,284840,-1,-1,0
4748,284850,-1,-1,0
4749,284860,-1,-1,0
4750,284870,-1,-1,0
4751,284880,-1,-1,0
4752,284890,-1,-1,0
4753,284900,-1,-1,0
4754,284910,-1,-1,0
4755,284920,-1,-1,0
4756,284930,-1,-1,0
4757,284940,-1,-1,0
4758,284950,-1,-1,0
4759,284960,-1,-1,0
4760,284970,-1,-1,0
4761,284980,-1,-1,0
4762,284990,-1,-1,0
4763,285000,-1,-1,0
4764,285010,-1,-1,0
4765,285020,-1,-1,0
4766,285030,-1,-1,0
4767,285040,-1,-1,0
4768,285050,-1,-1,0
4769,285060,-1,-1,0
4770,285070,-1,-1,0
4771,285080,-1,-1,0
4772,285090,-1,-1,0
4773,285100,-1,-1,0
4774,285110,-1,-1,0
4775,285120,-1,-1,0
4776,285130,-1,-1,0
4777,285140,-1,0,0
4778,285150,-1,-1,0
4779,285160,-1,-1,0
4780,285170,-1,-1,0
4781,285180,-1,-1,0
4782,285190,-1,0,0
4783,285200,-1,-1,0
4784,285210,-1,-1,0
4785,285220,-1,-1,0
4786,285230,-1,-1,0
4787,285240,-1,-1,0
4788,285250,-1,-1,0
4789,285260,-1,-1,0
4790,285270,-1,0,0
4791,285280,-1,-1,0
4792,285290,-1,-1,0
4793,285300,-1,-1,0
4794,285310,-1,-1,0
4795,285320,-1,-1,0
4796,285330,-1,-1,0
4797,285340,-1,-1,0
4798,285350,-1,-1,0
4799,285360,0,-1,0
4800,285370,-1,-1,0
4801,285380,0,-1,0
4802,285390,-1,-1,0
4803,285400,-1,-1,0
4804,285410,-1,-1,0
4805,285420,-1,-1,0
4806,285430,-1,-1,0
4807,285440,-1,-1,0
4808,285450,0,-1,0
4809,285460,-1,-1,0
4810,285470,-1,-1,0
4811,285480,-1,-1,0
4812,285490,-1,-1,0
4813,285500,-1,-1,0
4814,285510,-1,-1,0
4815,285520,-1,-1,0
4816,285530,-1,-2,0
4817,285540,-1,-1,0
4818,285550,-1,-2,0
4819,285560,-1,-2,0
4820,285570,-1,-2,0
4821,285580,-1,-2,0
4822,285590,-1,-2,0
4823,285600,-1,-3,0
4824,285610,-1,-2,0
4825,285620,-1,-3,0
4826,285630,-1,-3,0
4827,285640,-1,-3,0
4828,285650,-1,-2,0
4829,285660,-1,-3,0
4830,285670,-1,-3,0
4831,285680,-1,-3,0
4832,285690,-1,-2,0
4833,285700,-1,-2,0
4834,285710,-1,-2,0
4835,285720,-1,-2,0
4836,285730,-1,-2,0
4837,285740,-1,-1,0
4838,285750,-1,-1,0
4839,285760,0,-1,0
4840,285770,0,-1,0
4841,285780,-1,-1,0
4842,285790,-1,-2,0
4843,285800,-1,-1,0
4844,285810,-1,-2,0
4845,285820,-1,-2,0
4846,285830,-1,-2,0
4847,285840,-1,-2,0
4848,285850,-1,-2,0
4849,285860,-1,-2,0
4850,285870,-1,-2,0
4851,285880,-1,-2,0
4852,285890,-1,-2,0
4853,285900,-1,-2,0
4854,285910,-1,-3,0
4855,285920,-1,-3,0
4856,285930,-1,-3,0
4857,285940,-1,-3,0
4858,285950,-1,-3,0
4859,285960,-1,-3,0
4860,285970,-1,-3,0
4861,285980,-1,-3,0
4862,285990,-1,-2,0
4863,286000,-1,-3,0
4864,286010,-1,-3,0
4865,286020,-1,-2,0
4866,286030,-1,-2,0
4867,286040,-1,-2,0
4868,286050,-1,-2,0
4869,286060,-1,-2,0
4870,286070,-1,-2,0
4871,286080,-1,-2,0
4872,286090,-1,-2,0
4873,286100,-1,-1,0
4874,286110,-1,-1,0
4875,286120,-1,-1,0
4876,286130,-1,-1,0
4877,286140,-1,-1,0
4878,286150,-1,0,0
4879,286160,-1,0,0
4880,286170,-1,1,0
4881,286180,-2,1,0
4882,286190,-1,1,0
4883,286200,-1,1,0
4884,286210,-1,1,0
4885,286220,-1,2,0
4886,286230,-2,2,0
4887,286240,-1,2,0
4888,286250,-1,2,0
4889,286260,-1,2,0
4890,286270,-1,2,0
4891,286280,-2,1,0
4892,286290,-1,1,0
4893,286300,-1,1,0
4894,286310,-1,1,0
4895,286320,-1,1,0
4896,286330,-1,1,0
4897,286340,-1,0,0
4898,286350,-1,0,0
4899,286360,-1,0,0
4900,286370,-1,0,0
4901,286380,-1,0,0
4902,286390,-1,0,0
4903,286400,-1,0,0
4904,286410,-1,0,0
4905,286420,-1,0,0
4906,286430,0,0,0
4907,286440,0,0,0
4908,286450,0,0,0
4909,286460,0,0,0
4910,286470,-1,0,0
4911,286480,-1,0,0
4912,286490,0,0,0
4913,286500,0,0,0
4914,286510,0,0,0
4915,286520,0,0,0
4916,286530,0,0,0
4917,286540,0,0,0
4918,286550,0,1,0
4919,286560,0,1,0
4920,286570,0,1,0
4921,286580,0,0,0
4922,286590,0,0,0
4923,286600,0,1,0
4924,286610,0,0,0
4925,286620,0,0,0
4926,286630,0,0,0
4927,286640,0,0,0
4928,286650,0,0,0
4929,286660,0,0,0
4930,286670,0,0,0
4931,286680,0,0,0
4932,286690,0,0,0
4933,286700,0,0,0
4934,286710,0,0,0
4935,286720,0,0,0
4936,286730,0,0,0
4937,286740,0,0,0
4938,286750,0,1,0
4939,286760,0,1,0
4940,286770,0,1,0
4941,286780,0,1,0
4942,286790,0,2,0
4943,286800,0,1,0
4944,286810,0,2,0
4945,286820,0,2,0
4946,286830,0,1,0
4947,286840,1,2,0
4948,286850,1,2,0
4949,286860,1,2,0
4950,286870,1,2,0
4951,286880,0,1,0
4952,286890,0,1,0
4953,286900,1,1,0
4954,286910,0,1,0
4955,286920,0,1,0
4956,286930,1,1,0
4957,286940,0,1,0
4958,286950,0,1,0
4959,286960,0,1,0
4960,286970,0,1,0
4961,286980,0,1,0
4962,286990,0,0,0
4963,287000,1,1,0
4964,287010,0,1,0
4965,287020,1,0,0
4966,287030,0,0,0
4967,287040,0,0,0
4968,287050,0,0,0
4969,287060,0,0,0
4970,287070,0,0,0
4971,287080,0,0,0
4972,287090,0,1,0
4973,287100,0,1,0
4974,287110,0,1,0
4975,287120,0,1,0
4976,287130,0,1,0
4977,287140,0,1,0
4978,287150,0,0,0
4979,287160,0,0,0
4980,287170,0,0,0
4981,287180,0,0,0
4982,287190,0,0,0
4983,287200,0,0,0
4984,287210,0,0,0
4985,287220,0,0,0
4986,287230,0,0,0
4987,287240,0,1,0
4988,287250,0,1,0
4989,287260,0,0,0
4990,287270,0,1,0
4991,287280,-1,1,0
4992,287290,-1,1,0
4993,287300,-1,1,0
4994,287310,-1,0,0
4995,287320,-1,0,0
4996,287330,-1,-1,0
4997,287340,-1,-1,0
4998,287350,-1,-1,0
4999,287360,-2,-2,0
5000,287370,-2,-3,0
5001,287380,-2,-3,0
5002,287390,-2,-3,0
5003,287400,-2,-3,0
5004,287410,-2,-3,0
5005,287420,-2,-3,0
5006,287430,-2,-3,0
5007,287440,-2,-4,0
5008,287450,-2,-4,0
5009,287460,-2,-3,0
5010,287470,-2,-4,0
5011,287480,-2,-4,0
5012,287490,-2,-4,0
5013,287500,-2,-3,0
5014,287510,-2,-3,0
5015,287520,-2,-3,0
5016,287530,-2,-3,0
5017,287540,-1,-3,0
5018,287550,-2,-3,0
5019,287560,-1,-2,0
5020,287570,-1,-2,0
5021,287580,-1,-2,0
5022,287590,-1,-2,0
5023,287600,-1,-1,0
5024,287610,-1,-2,0
5025,287620,-1,-1,0
5026,287630,-1,-1,0
5027,287640,-1,-1,0
5028,287650,-1,-2,0
5029,287660,-1,-1,0
5030,287670,-1,-1,0
5031,287680,0,-1,0
5032,287690,0,-1,0
5033,287700,-1,-1,0
5034,287710,-1,-1,0
5035,287720,-1,-1,0
5036,287730,-1,-1,0
5037,287740,-1,-1,0
5038,287750,-1,-1,0
5039,287760,-1,-1,0
5040,287770,-1,-1,0
5041,287780,-1,-1,0
5042,287790,-1,0,0
5043,287800,-1,0,0
5044,287810,-1,0,0
5045,287820,-1,0,0
5046,287830,-1,1,0
5047,287840,-1,1,0
5048,287850,-1,1,0
5049,287860,-1,1,0
5050,287870,-1,0,0
5051,287880,-1,1,0
5052,287890,-1,1,0
5053,287900,-1,1,0
5054,287910,-1,1,0
5055,287920,-1,1,0
5056,287930,-1,1,0
5057,287940,-1,1,0
5058,287950,-1,1,0
5059,287960,-1,1,0
5060,287970,-1,1,0
5061,287980,-1,1,0
5062,287990,-1,1,0
5063,288000,-1,1,0
5064,288010,-1,1,0
5065,288020,-1,1,0
5066,288030,-1,1,0
5067,288040,-1,1,0
5068,288050,-1,0,0
5069,288060,-1,0,0
5070,288070,-1,0,0
5071,288080,-1,0,0
5072,288090,-1,0,0
5073,288100,-1,0,0
5074,288110,-1,0,0
5075,288120,-1,0,0
5076,288130,-1,0,0
5077,288140,-1,0,0
5078,288150,-1,0,0
5079,288160,-1,0,0
5080,288170,-1,0,0
5081,288180,-1,0,0
5082,288190,-1,0,0
5083,288200,-1,0,0
5084,288210,-1,0,0
5085,288220,-1,0,0
5086,288230,-1,0,0
5087,288240,-1,0,0
5088,288250,-1,0,0
5089,288260,-1,0,0
5090,288270,-1,0,0
5091,288280,-1,0,0
5092,288290,-1,0,0
5093,288300,-1,0,0
5094,288310,-1,0,0
5095,288320,-1,0,0
5096,288330,-1,0,0
5097,288340,-1,0,0
5098,288350,-1,0,0
5099,288360,-1,0,0
5100,288370,-1,0,0
5101,288380,-1,0,0
5102,288390,-1,0,0
5103,288400,-1,0,0
5104,288410,-1,0,0
5105,288420,-1,0,0
5106,288430,-1,0,0
5107,288440,-1,0,0
5108,288450,-1,0,0
5109,288460,-1,0,0
5110,288470,-1,0,0
5111,288480,-1,0,0
5112,288490,-1,0,0
5113,288500,-1,0,0
5114,288510,-1,0,0
5115,288520,-1,0,0
5116,288530,-1,0,0
5117,288540,-1,0,0
5118,288550,-1,0,0
5119,288560,-1,0,0
5120,288570,-1,0,0
5121,288580,-1,0,0
5122,288590,-1,0,0
5123,288600,-1,0,0
5124,288610,-2,0,0
5125,288620,-1,0,0
5126,288630,-1,0,0
5127,288640,-1,0,0
5128,288650,-1,0,0
5129,288660,-1,0,0
5130,288670,-1,0,0
5131,288680,-1,0,0
5132,288690,-1,1,0
5133,288700,-1,0,0
5134,288710,-1,1,0
5135,288720,-1,1,0
5136,288730,-1,1,0
5137,288740,-1,1,0
5138,288750,-1,1,0
5139,288760,-1,1,0
5140,288770,-1,1,0
5141,288780,-2,2,0
5142,288790,-1,1,0
5143,288800,-1,2,0
5144,288810,-1,1,0
5145,288820,-1,1,0
5146,288830,-1,1,0
5147,288840,-1,1,0
5148,288850,-1,1,0
5149,288860,-1,1,0
5150,288870,-1,1,0
5151,288880,-1,1,0
5152,288890,-1,1,0
5153,288900,-1,0,0
5154,288910,-1,0,0
5155,288920,-1,1,0
5156,288930,-1,1,0
5157,288940,-1,0,0
5158,288950,-1,0,0
5159,288960,-1,0,0
5160,288970,-1,0,0
5161,288980,-1,0,0
5162,288990,-1,0,0
5163,289000,-1,0,0
5164,289010,-1,0,0
5165,289020,-1,-1,0
5166,289030,-1,0,0
5167,289040,-2,0,0
5168,289050,-1,-1,0
5169,289060,-1,0,0
5170,289070,-2,-1,0
5171,289080,-1,0,0
5172,289090,-1,-1,0
5173,289100,-1,-1,0
5174,289110,-2,-1,0
5175,289120,-2,-1,0
5176,289130,-2,-1,0
5177,289140,-2,-1,0
5178,289150,-2,-1,0
5179,289160,-1,-1,0
5180,289170,-2,-1,0
5181,289180,-2,-1,0
5182,289190,-2,-1,0
5183,289200,-2,-1,0
5184,289210,-2,-1,0
5185,289220,-2,-1,0
5186,289230,-2,-1,0
5187,289240,-2,-1,0
5188,289250,-2,-1,0
5189,289260,-2,-1,0
5190,289270,-2,-1,0
5191,289280,-2,0,0
5192,289290,-2,-1,0
5193,289300,-2,-1,0
5194,289310,-2,-1,0
5195,289320,-2,-1,0
5196,289330,-2,-1,0
5197,289340,-2,-1,0
5198,289350,-2,-1,0
5199,289360,-2,-1,0
5200,289370,-2,0,0
5201,289380,-2,-1,0
5202,289390,-2,-1,0
5203,289400,-2,-1,0
5204,289410,-2,-1,0
5205,289420,-2,-1,0
5206,289430,-2,-1,0
5207,289440,-2,-1,0
5208,289450,-2,-1,0
5209,289460,-2,-1,0
5210,289470,-2,-1,0
5211,289480,-2,-1,0
5212,289490,-2,-1,0
5213,289500,-2,-1,0
5214,289510,-2,-1,0
5215,289520,-2,-1,0
5216,289530,-2,-1,0
5217,289540,-2,-1,0
5218,289550,-2,-1,0
5219,289560,-2,-1,0
5220,289570,-2,-1,0
5221,289580,-2,-1,0
5222,289590,-2,-1,0
5223,289600,-2,-1,0
5224,289610,-2,-1,0
5225,289620,-2,-1,0
5226,289630,-1,-1,0
5227,289640,-2,-1,0
5228,289650,-2,-1,0
5229,289660,-2,-1,0
5230,289670,-2,-1,0
5231,289680,-2,-1,0
5232,289690,-2,-1,0
5233,289700,-2,-1,0
5234,289710,-2,-1,0
5235,289720,-2,-1,0
5236,289730,-2,-1,0
5237,289740,-2,-1,0
5238,289750,-2,-1,0
5239,289760,-2,-1,0
5240,289770,-2,-1,0
5241,289780,-2,-1,0
5242,289790,-2,-1,0
5243,289800,-2,-1,0
5244,289810,-2,-1,0
5245,289820,-2,-1,0
5246,289830,-2,-1,0
5247,289840,-2,-1,0
5248,289850,-2,0,0
5249,289860,-1,-1,0
5250,289870,-2,-1,0
5251,289880,-1,-1,0
5252,289890,-2,-1,0
5253,289900,-2,-1,0
5254,289910,-2,0,0
5255,289920,-2,-1,0
5256,289930,-2,-1,0
5257,289940,-2,0,0
5258,289950,-2,0,0
5259,289960,-2,0,0
5260,289970,-2,-1,0
5261,289980,-2,0,0
5262,289990,-2,-1,0
5263,290000,-2,-1,0
5264,290010,-2,-1,0
5265,290020,-2,-1,0
5266,290030,-2,-1,0
5267,290040,-2,-1,0
5268,290050,-2,-1,0
5269,290060,-2,-1,0
5270,290070,-2,-1,0
5271,290080,-2,-1,0
5272,290090,-2,-1,0
5273,290100,-2,-1,0
5274,290110,-2,-1,0
5275,290120,-2,-1,0
5276,290130,-2,-1,0
5277,290140,-1,-1,0
5278,290150,-2,-1,0
5279,290160,-1,-1,0
5280,290170,-2,-1,0
5281,290180,-2,-1,0
5282,290190,-2,-1,0
5283,290200,-2,-1,0
5284,290210,-2,-1,0
5285,290220,-2,-1,0
5286,290230,-2,-1,0
5287,290240,-2,-1,0
5288,290250,-2,-1,0
5289,290260,-2,-1,0
5290,290270,-2,-1,0
5291,290280,-2,0,0
5292,290290,-2,-1,0
5293,290300,-2,-1,0
5294,290310,-2,0,0
5295,290320,-2,0,0
5296,290330,-2,0,0
5297,290340,-2,0,0
5298,290350,-2,0,0
5299,290360,-2,0,0
5300,290370,-2,0,0
5301,290380,-2,-1,0
5302,290390,-2,0,0
5303,290400,-1,0,0
5304,290410,-2,0,0
5305,290420,-1,0,0
5306,290430,-1,0,0
5307,290440,-1,0,0
5308,290450,-1,0,0
5309,290460,-1,0,0
5310,290470,-2,0,0
5311,290480,-1,0,0
5312,290490,-2,0,0
5313,290500,-1,0,0
5314,290510,-2,0,0
5315,290520,-1,0,0
5316,290530,-1,0,0
5317,290540,-2,0,0
5318,290550,-2,0,0
5319,290560,-1,0,0
5320,290570,-1,0,0
5321,290580,-1,0,0
5322,290590,-1,0,0
5323,290600,-2,0,0
5324,290610,-1,0,0
5325,290620,-1,0,0
5326,290630,-1,0,0
5327,290640,-1,0,0
5328,290650,-2,0,0
5329,290660,-1,0,0
5330,290670,-1,0,0
5331,290680,-1,0,0
5332,290690,-1,0,0
5333,290700,-1,1,0
5334,290710,-1,0,0
5335,290720,-1,0,0
5336,290730,-1,0,0
5337,290740,-1,0,0
5338,290750,-1,0,0
5339,290760,-1,1,0
5340,290770,-1,0,0
5341,290780,-1,1,0
5342,290790,-1,0,0
5343,290800,-1,0,0
5344,290810,-1,0,0
5345,290820,-1,0,0
5346,290830,-1,0,0
5347,290840,-1,0,0
5348,290850,-1,0,0
5349,290860,-1,0,0
5350,290870,-1,0,0
5351,290880,-1,0,0
5352,290890,-1,0,0
5353,290900,-1,0,0
5354,290910,-1,1,0
5355,290920,-1,1,0
5356,290930,-1,1,0
5357,290940,-1,1,0
5358,290950,-1,1,0
5359,290960,-2,0,0
5360,290970,-1,1,0
5361,290980,-1,0,0
5362,290990,-2,1,0
5363,291000,-2,0,0
5364,291010,-2,0,0
5365,291020,-2,0,0
5366,291030,-1,0,0
5367,291040,-2,0,0
5368,291050,-2,0,0
5369,291060,-2,0,0
5370,291070,-2,0,0
5371,291080,-2,0,0
5372,291090,-2,-1,0
5373,291100,-2,-1,0
5374,291110,-1,0,0
5375,291120,-1,-1,0
5376,291130,-1,-1,0
5377,291140,-2,-1,0
5378,291150,-1,-1,0
5379,291160,-1,-1,0
5380,291170,-1,0,0
5381,291180,-1,-1,0
5382,291190,-1,0,0
5383,291200,-1,0,0
5384,291210,-1,0,0
5385,291220,-1,0,0
5386,291230,-1,0,0
5387,291240,-1,0,0
5388,291250,-1,-1,0
5389,291260,-1,0,0
5390,291270,-1,-1,0
5391,291280,-1,-1,0
5392,291290,-1,0,0
5393,291300,-1,0,0
5394,291310,-2,0,0
5395,291320,-2,0,0
5396,291330,-2,0,0
5397,291340,-2,0,0
5398,291350,-2,0,0
5399,291360,-2,0,0
5400,291370,-2,0,0
5401,291380,-2,0,0
5402,291390,-1,0,0
5403,291400,-1,-1,0
5404,291410,-1,-1,0
5405,291420,0,-1,0
5406,291430,0,-1,0
5407,291440,-1,-1,0
5408,291450,-1,0,0
5409,291460,-2,0,0
5410,291470,-1,0,0
5411,291480,-1,0,0
5412,291490,-1,0,0
5413,291500,-1,0,0
5414,291510,-1,0,0
5415,291520,-1,0,0
5416,291530,-1,0,0
5417,291540,-2,0,0
5418,291550,-2,0,0
5419,291560,-2,0,0
5420,291570,-1,0,0
5421,291580,-1,0,0
5422,291590,-1,0,0
5423,291600,-1,0,0
5424,291610,-1,-1,0
5425,291620,-1,-1,0
5426,291630,-1,0,0
5427,291640,-1,0,0
5428,291650,-1,0,0
5429,291660,-1,0,0
5430,291670,-1,0,0
5431,291680,-1,0,0
5432,291690,-1,1,0
5433,291700,-1,0,0
5434,291710,-1,0,0
5435,291720,-1,0,0
5436,291730,-1,0,0
5437,291740,-1,-1,0
5438,291750,-1,0,0
5439,291760,-1,0,0
5440,291770,-1,0,0
5441,291780,-1,0,0
5442,291790,-1,-1,0
5443,291800,-1,0,0
5444,291810,-1,0,0
5445,291820,-1,0,0
5446,291830,-1,0,0
5447,291840,-1,0,0
5448,291850,-1,0,0
5449,291860,-1,0,0
5450,291870,-1,0,0
5451,291880,-1,0,0
5452,291890,-1,0,0
5453,291900,-1,0,0
5454,291910,-1,0,0
5455,291920,-1,0,0
5456,291930,-1,0,0
5457,291940,-1,-1,0
5458,291950,-1,0,0
5459,291960,-1,-1,0
5460,291970,-1,0,0
5461,291980,-1,-1,0
5462,291990,-1,0,0
5463,292000,-1,0,0
5464,292010,-1,-1,0
5465,292020,-1,0,0
5466,292030,-1,0,0
5467,292040,-1,0,0
5468,292050,-1,0,0
5469,292060,-1,0,0
5470,292070,-1,0,0
5471,292080,-1,0,0
5472,292090,-1,0,0
5473,292100,-1,0,0
5474,292110,-1,0,0
5475,292120,-1,0,0
5476,292130,-1,0,0
5477,292140,-1,0,0
5478,292150,-1,0,0
5479,292160,-1,0,0
5480,292170,-1,0,0
5481,292180,-1,0,0
5482,292190,-1,0,0
5483,292200,-1,0,0
5484,292210,-1,0,0
5485,292220,-1,0,0
5486,292230,-1,0,0
5487,292240,-1,0,0
5488,292250,-1,0,0
5489,292260,-1,0,0
5490,292270,-1,0,0
5491,292280,-1,0,0
5492,292290,-1,0,0
5493,292300,-1,0,0
5494,292310,-1,0,0
5495,292320,-1,1,0
5496,292330,-1,0,0
5497,292340,-1,0,0
5498,292350,-1,1,0
5499,292360,-1,1,0
5500,292370,-1,1,0
5501,292380,-1,0,0
5502,292390,-1,0,0
5503,292400,-1,0,0
5504,292410,-1,0,0
5505,292420,-1,0,0
5506,292430,-1,0,0
5507,292440,-1,0,0
5508,292450,-1,0,0
5509,292460,-1,0,0
5510,292470,-1,0,0
5511,292480,-1,0,0
5512,292490,-1,0,0
5513,292500,-1,0,0
5514,292510,-1,0,0
5515,292520,-1,0,0
5516,292530,-1,0,0
5517,292540,-1,0,0
5518,292550,-1,1,0
5519,292560,-1,0,0
5520,292570,-2,0,0
5521,292580,-1,0,0
5522,292590,-1,0,0
5523,292600,-1,0,0
5524,292610,-1,0,0
5525,292620,-1,0,0
5526,292630,-1,0,0
5527,292640,-1,0,0
5528,292650,-1,0,0
5529,292660,-1,0,0
5530,292670,-1,0,0
5531,292680,-1,0,0
5532,292690,-1,0,0
5533,292700,-1,0,0
5534,292710,-1,0,0
5535,292720,-2,0,0
5536,292730,-2,0,0
5537,292740,-2,1,0
5538,292750,-2,0,0
5539,292760,-2,1,0
5540,292770,-1,1,0
5541,292780,-1,1,0
5542,292790,-1,1,0
5543,292800,-1,1,0
5544,292810,-1,1,0
5545,292820,-1,1,0
5546,292830,-1,1,0
5547,292840,-1,1,0
5548,292850,-1,1,0
5549,292860,-1,1,0
5550,292870,-1,1,0
5551,292880,-1,1,0
5552,292890,-1,1,0
5553,292900,-1,0,0
5554,292910,-1,0,0
5555,292920,-1,0,0
5556,292930,-1,0,0
5557,292940,-1,1,0
5558,292950,-1,1,0
5559,292960,-1,1,0
5560,292970,-1,1,0
5561,292980,-1,1,0
5562,292990,-1,1,0
5563,293000,-2,1,0
5564,293010,-2,1,0
5565,293020,-1,0,0
5566,293030,-1,0,0
5567,293040,-1,0,0
5568,293050,-1,0,0
5569,293060,-1,-1,0
5570,293070,-1,0,0
5571,293080,-1,-1,0
5572,293090,-1,-1,0
5573,293100,-1,-1,0
5574,293110,-1,-1,0
5575,293120,-1,-1,0
5576,293130,-1,-1,0
5577,293140,-1,-1,0
5578,293150,-1,-1,0
5579,293160,-1,-1,0
5580,293170,-1,-1,0
5581,293180,-1,-1,0
5582,293190,-1,-1,0
5583,293200,-1,-1,0
5584,293210,-1,-1,0
5585,293220,-1,-1,0
5586,293230,-1,-2,0
5587,293240,-1,-1,0
5588,293250,-1,-1,0
5589,293260,-1,-1,0
5590,293270,-1,-1,0
5591,293280,-1,-1,0
5592,293290,-1,-1,0
5593,293300,-1,-1,0
5594,293310,-1,-1,0
5595,293320,-1,-1,0
5596,293330,-1,-1,0
5597,293340,-1,0,0
5598,293350,-1,0,0
5599,293360,-1,0,0
5600,293370,-1,0,0
5601,293380,-1,0,0
5602,293390,-1,0,0
5603,293400,-2,0,0
5604,293410,-1,0,0
5605,293420,-1,0,0
5606,293430,-1,0,0
5607,293440,-1,0,0
5608,293450,-1,0,0
5609,293460,-2,0,0
5610,293470,-1,0,0
5611,293480,-1,0,0
5612,293490,-1,0,0
5613,293500,-1,0,0
5614,293510,-1,0,0
5615,293520,-1,0,0
5616,293530,-1,0,0
5617,293540,-1,0,0
5618,293550,-1,0,0
5619,293560,-1,0,0
5620,293570,-1,0,0
5621,293580,-1,0,0
5622,293590,-1,0,0
5623,293600,-1,0,0
5624,293610,-1,0,0
5625,293620,-1,0,0
5626,293630,-1,0,0
5627,293640,-1,1,0
5628,293650,-1,1,0
5629,293660,-1,1,0
5630,293670,-1,1,0
5631,293680,-1,1,0
5632,293690,-1,0,0
5633,293700,-1,1,0
5634,293710,-1,0,0
5635,293720,-1,1,0
5636,293730,-1,1,0
5637,293740,-1,1,0
5638,293750,-1,1,0
5639,293760,-1,1,0
5640,293770,-1,0,0
5641,293780,-1,1,0
5642,293790,-1,1,0
5643,293800,-1,1,0
5644,293810,-1,0,0
5645,293820,-1,0,0
5646,293830,-1,0,0
5647,293840,-1,0,0
5648,293850,-1,0,0
5649,293860,-1,0,0
5650,293870,-1,0,0
5651,293880,-1,0,0
5652,293890,-1,0,0
5653,293900,-1,0,0
5654,293910,-1,0,0
5655,293920,-1,0,0
5656,293930,-1,0,0
5657,293940,-1,0,0
5658,293950,-1,0,0
5659,293960,-1,0,0
5660,293970,-1,0,0
5661,293980,-1,0,0
5662,293990,-1,0,0
5663,294000,-1,0,0
5664,294010,-1,0,0
5665,294020,-1,0,0
5666,294030,-1,0,0
5667,294040,-1,0,0
5668,294050,-1,0,0
5669,294060,-1,0,0
5670,294070,-1,0,0
5671,294080,-1,0,0
5672,294090,-1,0,0
5673,294100,-1,0,0
5674,294110,-1,0,0
5675,294120,-1,0,0
5676,294130,-1,0,0
5677,294140,-1,0,0
5678,294150,-1,0,0
5679,294160,-1,0,0
5680,294170,-1,0,0
5681,294180,-1,0,0
5682,294190,-1,1,0
5683,294200,-1,0,0
5684,294210,-1,0,0
5685,294220,-1,0,0
5686,294230,-1,0,0
5687,294240,-1,0,0
5688,294250,-1,0,0
5689,294260,-1,0,0
5690,294270,-2,0,0
5691,294280,-1,0,0
5692,294290,-2,0,0
5693,294300,-2,0,0
5694,294310,-2,0,0
5695,294320,-1,0,0
5696,294330,-2,0,0
5697,294340,-1,0,0
5698,294350,-2,-1,0
5699,294360,-1,-1,0
5700,294370,-1,-1,0
5701,294380,-1,-1,0
5702,294390,-1,-1,0
5703,294400,-1,-1,0
5704,294410,-1,-1,0
5705,294420,-1,-1,0
5706,294430,-1,-1,0
5707,294440,-1,-1,0
5708,294450,-1,-1,0
5709,294460,-1,-1,0
5710,294470,-1,-1,0
5711,294480,-1,-1,0
5712,294490,-1,-1,0
5713,294500,-1,-1,0
5714,294510,-1,-1,0
5715,294520,-1,-1,0
5716,294530,-1,-1,0
5717,294540,-1,-1,0
5718,294550,-1,-1,0
5719,294560,-1,-1,0
5720,294570,-1,0,0
5721,294580,-1,0,0
5722,294590,-1,0,0
5723,294600,-1,0,0
5724,294610,-1,0,0
5725,294620,-1,0,0
5726,294630,-1,0,0
5727,294640,-1,0,0
5728,294650,-1,0,0
5729,294660,-1,0,0
5730,294670,-1,0,0
5731,294680,-1,1,0
5732,294690,-1,1,0
5733,294700,-1,1,0
5734,294710,-1,1,0
5735,294720,-2,1,0
5736,294730,-1,1,0
5737,294740,-2,1,0
5738,294750,-1,1,0
5739,294760,-2,1,0
5740,294770,-2,1,0
5741,294780,-1,1,0
5742,294790,-1,1,0
5743,294800,-1,1,0
5744,294810,-1,1,0
5745,294820,-1,1,0
5746,294830,-1,1,0
5747,294840,-1,1,0
5748,294850,-1,1,0
5749,294860,-1,1,0
5750,294870,-1,1,0
5751,294880,-1,1,0
5752,294890,-1,1,0
5753,294900,-1,0,0
5754,294910,-1,1,0
5755,294920,-1,1,0
5756,294930,-1,1,0
5757,294940,-1,1,0
5758,294950,-1,1,0
5759,294960,-1,1,0
5760,294970,-1,1,0
5761,294980,-1,0,0
5762,294990,-1,0,0
5763,295000,-1,0,0
5764,295010,0,0,0
5765,295020,-1,-1,0
5766,295030,-1,-1,0
5767,295040,-1,-1,0
5768,295050,-1,-1,0
5769,295060,-1,-1,0
5770,295070,-1,-1,0
5771,295080,-1,-1,0
5772,295090,-1,-1,0
5773,295100,-1,-1,0
5774,295110,-1,-1,0
5775,295120,-1,-1,0
5776,295130,-1,-1,0
5777,295140,-1,0,0
5778,295150,-1,-1,0
5779,295160,-1,-1,0
5780,295170,-1,-1,0
5781,295180,-1,0,0
5782,295190,-1,0,0
5783,295200,-1,-1,0
5784,295210,-1,0,0
5785,295220,-1,0,0
5786,295230,-1,0,0
5787,295240,-1,0,0
5788,295250,-1,0,0
5789,295260,-1,0,0
5790,295270,-1,0,0
5791,295280,-1,0,0
5792,295290,-1,0,0
5793,295300,-1,0,0
5794,295310,-1,0,0
5795,295320,-1,0,0
5796,295330,-1,0,0
5797,295340,-1,1,0
5798,295350,-1,1,0
5799,295360,-1,1,0
5800,295370,-1,1,0
5801,295380,-1,1,0
5802,295390,-1,1,0
5803,295400,-1,1,0
5804,295410,-1,1,0
5805,295420,-1,2,0
5806,295430,-1,1,0
5807,295440,-1,2,0
5808,295450,-1,2,0
5809,295460,-1,2,0
5810,295470,-1,1,0
5811,295480,-1,2,0
5812,295490,-1,1,0
5813,295500,-1,2,0
5814,295510,-1,2,0
5815,295520,-1,2,0
5816,295530,-1,2,0
5817,295540,-1,2,0
5818,295550,-1,1,0
5819,295560,-1,1,0
5820,295570,-1,1,0
5821,295580,0,1,0
5822,295590,-1,1,0
5823,295600,-1,1,0
5824,295610,-1,0,0
5825,295620,0,0,0
5826,295630,0,0,0
5827,295640,-1,0,0
5828,295650,-1,0,0
5829,295660,-1,0,0
5830,295670,-1,0,0
5831,295680,0,0,0
5832,295690,-1,0,0
5833,295700,-1,-1,0
5834,295710,-1,-1,0
5835,295720,-1,0,0
5836,295730,-1,-1,0
5837,295740,-1,0,0
5838,295750,-1,-1,0
5839,295760,-1,-1,0
5840,295770,-1,-1,0
5841,295780,-1,-1,0
5842,295790,-2,-1,0
5843,295800,-2,0,0
5844,295810,-2,0,0
5845,295820,-2,0,0
5846,295830,-2,0,0
5847,295840,-2,0,0
5848,295850,-2,0,0
5849,295860,-2,1,0
5850,295870,-2,1,0
5851,295880,-2,1,0
5852,295890,-2,1,0
5853,295900,-2,1,0
5854,295910,-2,1,0
5855,295920,-2,1,0
5856,295930,-2,1,0
5857,295940,-2,1,0
5858,295950,-2,1,0
5859,295960,-2,1,0
5860,295970,-2,1,0
5861,295980,-1,1,0
5862,295990,-1,1,0
5863,296000,-2,1,0
5864,296010,-1,0,0
5865,296020,-1,1,0
5866,296030,-1,0,0
5867,296040,-1,0,0
5868,296050,-1,0,0
5869,296060,-1,0,0
5870,296070,-1,0,0
5871,296080,-1,0,0
5872,296090,-1,0,0
5873,296100,-1,0,0
5874,296110,-1,0,0
5875,296120,-1,0,0
5876,296130,-1,0,0
5877,296140,-1,0,0
5878,296150,-1,0,0
5879,296160,-1,0,0
5880,296170,-1,0,0
5881,296180,-1,0,0
5882,296190,-1,0,0
5883,296200,-1,0,0
5884,296210,-1,0,0
5885,296220,-1,0,0
5886,296230,-1,0,0
5887,296240,-2,0,0
5888,296250,-2,0,0
5889,296260,-2,0,0
5890,296270,-2,0,0
5891,296280,-2,0,0
5892,296290,-2,0,0
5893,296300,-2,0,0
5894,296310,-2,0,0
5895,296320,-2,0,0
5896,296330,-2,0,0
5897,296340,-2,0,0
5898,296350,-2,0,0
5899,296360,-2,0,0
5900,296370,-2,0,0
5901,296380,-2,-1,0
5902,296390,-2,-1,0
5903,296400,-2,-1,0
5904,296410,-2,-1,0
5905,296420,-1,-1,0
5906,296430,-2,-1,0
5907,296440,-2,-1,0
5908,296450,-1,-1,0
5909,296460,-1,-1,0
5910,296470,-1,0,0
5911,296480,-2,-1,0
5912,296490,-1,0,0
5913,296500,-1,0,0
5914,296510,-1,0,0
5915,296520,-1,0,0
5916,296530,-1,-1,0
5917,296540,-1,-1,0
5918,296550,-1,-1,0
5919,296560,-1,-1,0
5920,296570,-1,-1,0
5921,296580,-1,-1,0
5922,296590,-1,-1,0
5923,296600,-1,-1,0
5924,296610,-1,-1,0
5925,296620,-1,-1,0
5926,296630,-1,-1,0
5927,296640,-1,-1,0
5928,296650,-1,-1,0
5929,296660,-1,-1,0
5930,296670,-1,-1,0
5931,296680,-1,-1,0
5932,296690,-1,-1,0
5933,296700,-1,-1,0
5934,296710,-1,-1,0
5935,296720,-1,-1,0
5936,296730,-1,-1,0
5937,296740,-1,-2,0
5938,296750,-1,-2,0
5939,296760,-1,-2,0
5940,296770,-1,-1,0
5941,296780,-1,-1,0
5942,296790,-1,-1,0
5943,296800,-1,-1,0
5944,296810,-1,-1,0
5945,296820,-1,-1,0
5946,296830,-1,-1,0
5947,296840,-1,-1,0
5948,296850,-2,-1,0
5949,296860,-2,-1,0
5950,296870,-1,-1,0
5951,296880,-2,-1,0
5952,296890,-1,-1,0
5953,296900,-1,-1,0
5954,296910,-2,-1,0
5955,296920,-2,-1,0
5956,296930,-2,-1,0
5957,296940,-2,-1,0
5958,296950,-2,-1,0
5959,296960,-2,-1,0
5960,296970,-2,-1,0
5961,296980,-2,-1,0
5962,296990,-2,0,0
5963,297000,-2,0,0
5964,297010,-2,-1,0
5965,297020,-2,0,0
5966,297030,-2,0,0
5967,297040,-2,-1,0
5968,297050,-2,0,0
5969,297060,-2,0,0
5970,297070,-2,-1,0
5971,297080,-2,-1,0
5972,297090,-2,-1,0
5973,297100,-2,-1,0
5974,297110,-1,-1,0
5975,297120,-2,-1,0
5976,297130,-2,-1,0
5977,297140,-2,-1,0
5978,297150,-2,-1,0
5979,297160,-1,-1,0
5980,297170,-2,-1,0
5981,297180,-2,-1,0
5982,297190,-2,-1,0
5983,297200,-1,-1,0
5984,297210,-2,-1,0
5985,297220,-2,-1,0
5986,297230,-2,-1,0
5987,297240,-2,-1,0
5988,297250,-2,-1,0
5989,297260,-2,-1,0
5990,297270,-2,-1,0
5991,297280,-2,-1,0
5992,297290,-2,-1,0
5993,297300,-2,-1,0
5994,297310,-2,-1,0
5995,297320,-2,-1,0
5996,297330,-2,-1,0
5997,297340,-2,-1,0
5998,297350,-2,-1,0
5999,297360,-2,-1,0
6000,297370,-2,-1,0
6001,297380,-2,-1,0
6002,297390,-2,-1,0
6003,297400,-2,-1,0
6004,297410,-2,-1,0
6005,297420,-2,-1,0
6006,297430,-2,-1,0
6007,297440,-2,-1,0
6008,297450,-2,-1,0
6009,297460,-2,-1,0
6010,297470,-2,-1,0
6011,297480,-2,-1,0
6012,297490,-2,-1,0
6013,297500,-2,-1,0
6014,297510,-2,-1,0
6015,297520,-2,-1,0
6016,297530,-2,-1,0
6017,297540,-2,-1,0
6018,297550,-2,-1,0
6019,297560,-2,-1,0
6020,297570,-2,-1,0
6021,297580,-2,-1,0
6022,297590,-2,-1,0
6023,297600,-2,-1,0
6024,297610,-2,0,0
6025,297620,-2,0,0
6026,297630,-2,0,0
6027,297640,-2,1,0
6028,297650,-2,0,0
6029,297660,-2,1,0
6030,297670,-2,0,0
6031,297680,-2,1,0
6032,297690,-2,1,0
6033,297700,-2,1,0
6034,297710,-2,1,0
6035,297720,-2,1,0
6036,297730,-2,1,0
6037,297740,-2,0,0
6038,297750,-2,1,0
6039,297760,-2,0,0
6040,297770,-2,0,0
6041,297780,-2,0,0
6042,297790,-2,0,0
6043,297800,-2,0,0
6044,297810,-2,0,0
6045,297820,-2,-1,0
6046,297830,-2,-1,0
6047,297840,-2,-1,0
6048,297850,-2,-1,0
6049,297860,-2,-1,0
6050,297870,-2,-1,0
6051,297880,-2,0,0
6052,297890,-2,0,0
6053,297900,-2,-1,0
6054,297910,-2,-1,0
6055,297920,-2,-1,0
6056,297930,-2,0,0
6057,297940,-2,0,0
6058,297950,-2,0,0
6059,297960,-2,0,0
6060,297970,-2,0,0
6061,297980,-2,0,0
6062,297990,-2,0,0
6063,298000,-1,-1,0
6064,298010,-1,-1,0
6065,298020,-2,-1,0
6066,298030,-2,-1,0
6067,298040,-2,-1,0
6068,298050,-1,-1,0
6069,298060,-1,-1,0
6070,298070,-1,-1,0
6071,298080,-1,-1,0
6072,298090,-1,-1,0
6073,298100,-1,-1,0
6074,298110,-1,-1,0
6075,298120,-1,-2,0
6076,298130,-1,-1,0
6077,298140,-1,-2,0
6078,298150,-1,-2,0
6079,298160,-1,-2,0
6080,298170,-1,-2,0
6081,298180,-1,-2,0
6082,298190,-1,-2,0
6083,298200,-1,-2,0
6084,298210,-1,-2,0
6085,298220,-1,-2,0
6086,298230,-1,-2,0
6087,298240,-1,-2,0
6088,298250,-1,-2,0
6089,298260,-1,-2,0
6090,298270,-1,-2,0
6091,298280,-1,-2,0
6092,298290,-1,-2,0
6093,298300,-1,-2,0
6094,298310,-1,-2,0
6095,298320,-1,-2,0
6096,298330,-1,-2,0
6097,298340,-1,-2,0
6098,298350,-1,-2,0
6099,298360,-1,-2,0
6100,298370,-1,-2,0
6101,298380,-1,-2,0
6102,298390,-1,-2,0
6103,298400,-1,-2,0
6104,298410,-1,-2,0
6105,298420,-1,-2,0
6106,298430,-1,-2,0
6107,298440,-1,-2,0
6108,298450,-1,-2,0
6109,298460,-1,-2,0
6110,298470,-1,-2,0
6111,298480,-1,-2,0
6112,298490,-1,-2,0
6113,298500,-1,-2,0
6114,298510,-1,-2,0
6115,298520,-1,-1,0
6116,298530,-1,-1,0
6117,298540,-1,-1,0
6118,298550,-1,-1,0
6119,298560,-1,-1,0
6120,298570,-1,-1,0
6121,298580,-1,-1,0
6122,298590,-1,-1,0
6123,298600,-1,-1,0
6124,298610,0,-1,0
6125,298620,0,-1,0
6126,298630,-1,-1,0
6127,298640,-1,-1,0
6128,298650,-1,-1,0
6129,298660,-1,-1,0
6130,298670,-1,-1,0
6131,298680,-1,-1,0
6132,298690,0,-1,0
6133,298700,-1,-1,0
6134,298710,-1,-1,0
6135,298720,-1,-1,0
6136,298730,-1,-1,0
6137,298740,-1,-1,0
6138,298750,-1,-1,0
6139,298760,-1,-1,0
6140,298770,-1,-1,0
6141,298780,-1,-1,0
6142,298790,-1,-1,0
6143,298800,0,-1,0
6144,298810,-1,-1,0
6145,298820,-1,-1,0
6146,298830,-1,0,0
6147,298840,-1,-1,0
6148,298850,-1,0,0
6149,298860,-1,0,0
6150,298870,-1,0,0
6151,298880,-1,0,0
6152,298890,-1,0,0
6153,298900,-1,0,0
6154,298910,-1,0,0
6155,298920,-1,0,0
6156,298930,-1,0,0
6157,298940,-1,0,0
6158,298950,-1,0,0
6159,298960,-1,0,0
6160,298970,-1,0,0
6161,298980,-1,0,0
6162,298990,-1,0,0
6163,299000,-2,0,0
6164,299010,-2,0,0
6165,299020,-2,0,0
6166,299030,-1,0,0
6167,299040,-2,1,0
6168,299050,-2,1,0
6169,299060,-1,1,0
6170,299070,-1,1,0
6171,299080,-1,1,0
6172,299090,-1,1,0
6173,299100,-1,0,0
6174,299110,-1,1,0
6175,299120,-1,1,0
6176,299130,-2,1,0
6177,299140,-2,1,0
6178,299150,-2,1,0
6179,299160,-2,1,0
6180,299170,-1,1,0
6181,299180,-2,1,0
6182,299190,-1,1,0
6183,299200,-1,1,0
6184,299210,-1,0,0
6185,299220,-1,0,0
6186,299230,-1,0,0
6187,299240,-1,0,0
6188,299250,-1,0,0
6189,299260,-1,0,0
6190,299270,-1,0,0
6191,299280,-1,0,0
6192,299290,-1,0,0
6193,299300,-1,0,0
6194,299310,-1,0,0
6195,299320,-1,0,0
6196,299330,-1,0,0
6197,299340,-1,0,0
6198,299350,-1,0,0
6199,299360,-1,0,0
6200,299370,-1,0,0
6201,299380,-1,0,0
6202,299390,-1,0,0
6203,299400,-1,0,0
6204,299410,-1,0,0
6205,299420,-1,1,0
6206,299430,-1,1,0
6207,299440,-1,1,0
6208,299450,-1,1,0
6209,299460,-1,1,0
6210,299470,-1,1,0
6211,299480,-1,1,0
