,ts,id,Ax,Ay,Az,Gx,Gy,Gz
0,-0.371,IMU0,-0.01953125,-0.03515625,-1.03515625,2.0121951219512195,2.1341463414634148,0.06097560975609757
1,-0.371,IMU1,0.0068359375,-0.0283203125,-1.06640625,0.6707317073170732,1.9512195121951221,-0.30487804878048785
2,-0.361,IMU0,-0.025390625,-0.0556640625,-1.0400390625,1.8902439024390245,2.0121951219512195,0.3658536585365854
3,-0.361,IMU1,-0.0009765625,-0.0498046875,-1.07421875,0.426829268292683,1.9512195121951221,-0.06097560975609757
4,-0.351,IMU0,-0.0263671875,-0.0361328125,-1.0380859375,1.829268292682927,1.707317073170732,0.30487804878048785
5,-0.351,IMU1,-0.00390625,-0.0322265625,-1.072265625,0.426829268292683,1.4634146341463417,0.06097560975609757
6,-0.341,IMU0,-0.021484375,-0.044921875,-1.029296875,1.707317073170732,1.2804878048780488,-0.1829268292682927
7,-0.341,IMU1,0.005859375,-0.0380859375,-1.0634765625,0.48780487804878053,0.9756097560975611,-0.48780487804878053
8,-0.331,IMU0,-0.017578125,-0.041015625,-1.0400390625,1.524390243902439,1.4634146341463417,0.24390243902439027
9,-0.331,IMU1,0.0078125,-0.03515625,-1.07421875,0.12195121951219513,1.0365853658536586,-0.06097560975609757
10,-0.321,IMU0,-0.0205078125,-0.056640625,-1.03515625,1.4634146341463417,0.426829268292683,0.24390243902439027
11,-0.321,IMU1,0.0029296875,-0.0517578125,-1.0693359375,0.06097560975609757,0.0,0.0
12,-0.311,IMU0,-0.0185546875,-0.037109375,-1.0380859375,1.3414634146341464,-0.1829268292682927,0.12195121951219513
13,-0.311,IMU1,0.005859375,-0.033203125,-1.0712890625,-0.12195121951219513,-0.426829268292683,-0.12195121951219513
14,-0.301,IMU0,-0.0205078125,-0.044921875,-1.0400390625,1.3414634146341464,-0.3658536585365854,-0.06097560975609757
15,-0.301,IMU1,0.00390625,-0.0380859375,-1.0712890625,-0.30487804878048785,-0.5487804878048781,-0.30487804878048785
16,-0.291,IMU0,-0.0263671875,-0.046875,-1.0322265625,1.2804878048780488,-0.7317073170731708,0.30487804878048785
17,-0.291,IMU1,-0.001953125,-0.0400390625,-1.0625,-0.1829268292682927,-0.853658536585366,-0.06097560975609757
18,-0.281,IMU0,-0.029296875,-0.0390625,-1.0498046875,1.1585365853658538,-0.9146341463414634,0.12195121951219513
19,-0.281,IMU1,-0.005859375,-0.033203125,-1.08203125,-0.426829268292683,-1.0365853658536586,-0.1829268292682927
20,-0.271,IMU0,-0.0302734375,-0.04296875,-1.0341796875,1.524390243902439,-0.48780487804878053,0.24390243902439027
21,-0.271,IMU1,-0.00390625,-0.03515625,-1.0654296875,0.0,-0.6097560975609757,-0.06097560975609757
22,-0.261,IMU0,-0.0546875,-0.037109375,-1.0498046875,1.0975609756097562,-0.12195121951219513,0.1829268292682927
23,-0.261,IMU1,-0.029296875,-0.03125,-1.08203125,-0.426829268292683,-0.426829268292683,-0.1829268292682927
24,-0.251,IMU0,-0.037109375,-0.037109375,-1.0419921875,2.1341463414634148,1.707317073170732,0.30487804878048785
25,-0.251,IMU1,-0.0107421875,-0.03125,-1.0703125,0.7926829268292683,1.524390243902439,-0.06097560975609757
26,-0.241,IMU0,-0.0341796875,-0.0478515625,-1.0439453125,1.5853658536585367,1.829268292682927,0.0
27,-0.241,IMU1,-0.005859375,-0.041015625,-1.0751953125,0.0,1.6463414634146343,-0.30487804878048785
28,-0.231,IMU0,-0.0263671875,-0.044921875,-1.0390625,2.1951219512195124,2.378048780487805,0.426829268292683
29,-0.231,IMU1,-0.00390625,-0.037109375,-1.0673828125,0.5487804878048781,2.1951219512195124,0.12195121951219513
30,-0.221,IMU0,-0.0244140625,-0.0458984375,-1.0361328125,1.8902439024390245,2.073170731707317,0.12195121951219513
31,-0.221,IMU1,0.0029296875,-0.0390625,-1.0693359375,0.24390243902439027,2.0121951219512195,-0.24390243902439027
32,-0.211,IMU0,-0.0263671875,-0.046875,-1.03515625,1.829268292682927,1.7682926829268295,0.24390243902439027
33,-0.211,IMU1,-0.001953125,-0.0390625,-1.064453125,0.3658536585365854,1.5853658536585367,-0.12195121951219513
34,-0.201,IMU0,-0.02734375,-0.04296875,-1.0380859375,2.073170731707317,1.8902439024390245,0.3658536585365854
35,-0.201,IMU1,0.0,-0.03515625,-1.0703125,0.426829268292683,1.707317073170732,0.06097560975609757
36,-0.191,IMU0,-0.0361328125,-0.056640625,-1.0390625,1.829268292682927,2.1341463414634148,0.6097560975609757
37,-0.191,IMU1,-0.0087890625,-0.0478515625,-1.0712890625,0.3658536585365854,1.8902439024390245,0.30487804878048785
38,-0.181,IMU0,-0.03125,-0.0634765625,-1.0439453125,1.829268292682927,3.658536585365854,1.5853658536585367
39,-0.181,IMU1,-0.0029296875,-0.056640625,-1.0810546875,0.24390243902439027,3.353658536585366,1.2804878048780488
40,-0.171,IMU0,-0.052734375,-0.046875,-1.04296875,1.4634146341463417,5.426829268292684,2.7439024390243905
41,-0.171,IMU1,-0.02734375,-0.0400390625,-1.080078125,0.0,5.060975609756098,2.3170731707317076
42,-0.161,IMU0,-0.056640625,-0.0302734375,-1.044921875,3.414634146341464,6.158536585365854,2.0121951219512195
43,-0.161,IMU1,-0.0341796875,-0.0224609375,-1.078125,2.073170731707317,5.731707317073171,1.707317073170732
44,-0.151,IMU0,-0.0185546875,-0.00390625,-1.0810546875,2.0121951219512195,6.7682926829268295,1.829268292682927
45,-0.151,IMU1,0.00390625,0.0009765625,-1.1171875,0.426829268292683,6.585365853658537,1.402439024390244
46,-0.141,IMU0,0.0517578125,-0.0126953125,-1.078125,5.121951219512195,3.536585365853659,2.7439024390243905
47,-0.141,IMU1,0.0888671875,-0.0048828125,-1.1142578125,3.9024390243902443,3.536585365853659,2.439024390243903
48,-0.131,IMU0,0.033203125,0.0400390625,-1.2451171875,7.01219512195122,0.06097560975609757,4.75609756097561
49,-0.131,IMU1,0.060546875,0.0458984375,-1.2802734375,5.2439024390243905,-0.06097560975609757,4.451219512195122
50,-0.121,IMU0,0.0234375,-0.056640625,-1.373046875,5.609756097560976,-1.9512195121951221,6.951219512195123
51,-0.121,IMU1,0.048828125,-0.0498046875,-1.4091796875,3.780487804878049,-1.9512195121951221,6.646341463414635
52,-0.111,IMU0,0.0302734375,-0.0283203125,-1.5283203125,3.5975609756097566,-2.0121951219512195,12.256097560975611
53,-0.111,IMU1,0.0546875,-0.0234375,-1.5546875,1.8902439024390245,-2.0121951219512195,12.01219512195122
54,-0.101,IMU0,0.0341796875,-0.052734375,-1.6591796875,-1.524390243902439,-1.3414634146341464,16.585365853658537
55,-0.101,IMU1,0.0703125,-0.0439453125,-1.6845703125,-3.231707317073171,-1.3414634146341464,16.28048780487805
56,-0.091,IMU0,0.001953125,0.01171875,-1.8046875,-5.731707317073171,-0.06097560975609757,22.743902439024392
57,-0.091,IMU1,0.0380859375,0.0205078125,-1.8369140625,-7.926829268292684,0.30487804878048785,22.378048780487806
58,-0.081,IMU0,-0.0146484375,0.0791015625,-1.8994140625,-7.682926829268293,1.829268292682927,25.182926829268293
59,-0.081,IMU1,0.0283203125,0.08984375,-1.931640625,-9.634146341463415,1.829268292682927,24.81707317073171
60,-0.071,IMU0,-0.0146484375,0.0791015625,-1.8994140625,-7.682926829268293,1.829268292682927,25.182926829268293
61,-0.071,IMU1,0.033203125,0.095703125,-2.001953125,-10.548780487804878,1.8902439024390245,25.853658536585368
62,-0.061,IMU0,0.0263671875,0.0205078125,-2.015625,-11.402439024390246,1.402439024390244,24.81707317073171
63,-0.061,IMU1,0.0546875,0.0341796875,-2.041015625,-12.500000000000002,1.2195121951219514,24.451219512195124
64,-0.051,IMU0,0.009765625,-0.029296875,-2.048828125,-13.109756097560977,1.2195121951219514,23.170731707317074
65,-0.051,IMU1,0.04296875,-0.0185546875,-2.080078125,-14.02439024390244,0.9756097560975611,22.865853658536587
66,-0.041,IMU0,0.0048828125,0.0556640625,-2.0283203125,-11.52439024390244,3.048780487804878,18.658536585365855
67,-0.041,IMU1,0.0439453125,0.0634765625,-2.0654296875,-13.04878048780488,2.804878048780488,18.29268292682927
68,-0.031,IMU0,-0.0107421875,0.1552734375,-2.109375,-2.073170731707317,3.414634146341464,13.78048780487805
69,-0.031,IMU1,0.025390625,0.16015625,-2.1533203125,-4.085365853658537,3.1097560975609757,13.414634146341465
70,-0.021,IMU0,-0.017578125,0.2060546875,-2.20703125,7.743902439024391,5.426829268292684,9.51219512195122
71,-0.021,IMU1,0.015625,0.21484375,-2.2470703125,6.036585365853659,5.2439024390243905,9.085365853658537
72,-0.011,IMU0,0.0009765625,0.0771484375,-2.2509765625,12.378048780487806,8.658536585365855,7.926829268292684
73,-0.011,IMU1,0.0341796875,0.091796875,-2.2880859375,11.036585365853659,8.78048780487805,7.500000000000001
74,-0.001,IMU0,0.072265625,0.041015625,-2.2666015625,10.30487804878049,8.963414634146343,7.439024390243903
75,-0.001,IMU1,0.1005859375,0.05078125,-2.29296875,9.51219512195122,8.841463414634147,7.01219512195122
76,0.009,IMU0,0.1337890625,-0.0107421875,-2.2392578125,6.646341463414635,2.804878048780488,6.585365853658537
77,0.009,IMU1,0.1591796875,0.005859375,-2.2666015625,5.609756097560976,3.048780487804878,6.219512195121951
78,0.019,IMU0,0.0947265625,-0.01171875,-2.3037109375,2.987804878048781,-2.378048780487805,5.548780487804878
79,0.019,IMU1,0.125,-0.0048828125,-2.33203125,2.0121951219512195,-2.3170731707317076,5.2439024390243905
80,0.029,IMU0,0.083984375,0.0380859375,-2.33984375,3.4756097560975614,-2.6219512195121952,5.731707317073171
81,0.029,IMU1,0.1181640625,0.0439453125,-2.3740234375,1.8902439024390245,-2.439024390243903,5.487804878048781
82,0.039,IMU0,0.048828125,0.173828125,-2.2939453125,5.060975609756098,-1.829268292682927,6.707317073170732
83,0.039,IMU1,0.0888671875,0.1767578125,-2.32421875,2.9268292682926833,-1.707317073170732,6.463414634146342
84,0.049,IMU0,0.03125,0.119140625,-2.30859375,4.878048780487806,-1.2804878048780488,8.414634146341465
85,0.049,IMU1,0.068359375,0.13671875,-2.3388671875,2.9268292682926833,-1.3414634146341464,8.109756097560977
86,0.059,IMU0,0.0400390625,0.064453125,-2.369140625,3.4756097560975614,0.06097560975609757,9.878048780487806
87,0.059,IMU1,0.0732421875,0.0791015625,-2.390625,1.9512195121951221,0.06097560975609757,9.695121951219512
88,0.069,IMU0,0.0322265625,0.091796875,-2.4267578125,2.9268292682926833,2.0121951219512195,10.914634146341465
89,0.069,IMU1,0.0654296875,0.0947265625,-2.4609375,1.4634146341463417,3.658536585365854,10.426829268292684
90,0.079,IMU0,0.0107421875,0.0986328125,-2.4228515625,1.5853658536585367,4.695121951219512,12.01219512195122
91,0.079,IMU1,0.046875,0.1123046875,-2.4501953125,0.06097560975609757,5.060975609756098,12.073170731707318
92,0.089,IMU0,0.033203125,0.1171875,-2.4287109375,2.5609756097560976,4.817073170731708,12.256097560975611
93,0.089,IMU1,0.0751953125,0.12890625,-2.453125,0.5487804878048781,4.878048780487806,12.073170731707318
94,0.099,IMU0,0.0390625,0.1337890625,-2.4091796875,0.853658536585366,4.51219512195122,11.52439024390244
95,0.099,IMU1,0.07421875,0.1357421875,-2.4287109375,-0.3658536585365854,5.0,10.914634146341465
96,0.109,IMU0,0.0283203125,0.08203125,-2.447265625,0.9756097560975611,4.024390243902439,9.329268292682928
97,0.109,IMU1,0.0537109375,0.1328125,-2.458984375,-0.1829268292682927,4.573170731707317,8.353658536585366
98,0.119,IMU0,0.0263671875,0.1416015625,-2.4404296875,1.5853658536585367,3.780487804878049,5.182926829268293
99,0.119,IMU1,0.0576171875,0.1494140625,-2.4697265625,0.3658536585365854,3.780487804878049,4.817073170731708
100,0.129,IMU0,0.0546875,0.15625,-2.3955078125,2.8658536585365857,4.451219512195122,2.8658536585365857
101,0.129,IMU1,0.0703125,0.1328125,-2.4404296875,1.2195121951219514,3.4756097560975614,2.5
102,0.139,IMU0,0.0263671875,0.1083984375,-2.4423828125,3.2926829268292686,2.5609756097560976,1.8902439024390245
103,0.139,IMU1,0.0703125,0.1474609375,-2.455078125,2.073170731707317,2.6219512195121952,1.0975609756097562
104,0.149,IMU0,0.013671875,0.1337890625,-2.4404296875,2.9268292682926833,1.8902439024390245,0.48780487804878053
105,0.149,IMU1,0.0615234375,0.1455078125,-2.4501953125,1.2195121951219514,2.6219512195121952,0.48780487804878053
106,0.159,IMU0,0.0283203125,0.126953125,-2.396484375,2.6219512195121952,2.7439024390243905,-0.12195121951219513
107,0.159,IMU1,0.0419921875,0.115234375,-2.4775390625,0.6097560975609757,1.7682926829268295,-0.06097560975609757
108,0.169,IMU0,0.0234375,0.1337890625,-2.43359375,1.0975609756097562,1.8902439024390245,-0.48780487804878053
109,0.169,IMU1,0.0634765625,0.150390625,-2.4541015625,-0.426829268292683,1.707317073170732,-1.0975609756097562
110,0.179,IMU0,0.017578125,0.1259765625,-2.447265625,0.426829268292683,2.804878048780488,-0.6707317073170732
111,0.179,IMU1,0.0380859375,0.1318359375,-2.46484375,-0.5487804878048781,3.1097560975609757,-1.0365853658536586
112,0.189,IMU0,-0.001953125,0.1103515625,-2.486328125,-0.30487804878048785,3.4756097560975614,-0.6097560975609757
113,0.189,IMU1,0.0341796875,0.1484375,-2.5107421875,-1.2195121951219514,3.7195121951219514,-1.0365853658536586
114,0.199,IMU0,0.017578125,0.1474609375,-2.453125,0.6097560975609757,4.634146341463415,-1.0975609756097562
115,0.199,IMU1,0.0556640625,0.115234375,-2.509765625,-0.6097560975609757,4.51219512195122,-1.0365853658536586
116,0.209,IMU0,0.0087890625,0.1259765625,-2.5126953125,0.9146341463414634,4.024390243902439,-0.9146341463414634
117,0.209,IMU1,0.0380859375,0.1474609375,-2.55859375,-0.6707317073170732,3.536585365853659,-1.402439024390244
118,0.219,IMU0,0.01953125,0.1474609375,-2.517578125,2.1341463414634148,4.207317073170732,-0.9146341463414634
119,0.219,IMU1,0.072265625,0.1484375,-2.54296875,0.6707317073170732,3.963414634146342,-1.707317073170732
120,0.229,IMU0,0.0166015625,0.09375,-2.6142578125,1.402439024390244,2.0121951219512195,-0.1829268292682927
121,0.229,IMU1,0.0556640625,0.146484375,-2.6318359375,0.12195121951219513,1.7682926829268295,-0.9146341463414634
122,0.239,IMU0,0.0205078125,0.1494140625,-2.6044921875,2.1341463414634148,1.4634146341463417,0.06097560975609757
123,0.239,IMU1,0.041015625,0.1328125,-2.6396484375,0.24390243902439027,1.0975609756097562,-0.06097560975609757
124,0.249,IMU0,-0.0078125,0.109375,-2.705078125,2.0121951219512195,1.6463414634146343,0.9146341463414634
125,0.249,IMU1,0.017578125,0.14453125,-2.693359375,0.853658536585366,2.378048780487805,0.6707317073170732
126,0.259,IMU0,-0.01171875,0.138671875,-2.6533203125,2.3170731707317076,2.5609756097560976,1.0365853658536586
127,0.259,IMU1,0.0380859375,0.1181640625,-2.71875,0.3658536585365854,3.963414634146342,1.1585365853658538
128,0.269,IMU0,0.029296875,0.1279296875,-2.6923828125,2.1341463414634148,2.987804878048781,0.9146341463414634
129,0.269,IMU1,0.046875,0.142578125,-2.6953125,0.5487804878048781,3.231707317073171,1.0365853658536586
130,0.279,IMU0,0.0107421875,0.107421875,-2.7314453125,0.48780487804878053,1.524390243902439,0.9756097560975611
131,0.279,IMU1,0.048828125,0.1240234375,-2.7646484375,-0.5487804878048781,1.7682926829268295,0.853658536585366
132,0.289,IMU0,0.0146484375,0.1298828125,-2.728515625,1.3414634146341464,2.804878048780488,1.0975609756097562
133,0.289,IMU1,0.029296875,0.1298828125,-2.775390625,-0.06097560975609757,2.5609756097560976,1.2195121951219514
134,0.299,IMU0,0.0419921875,0.146484375,-2.78125,1.829268292682927,2.5,0.6097560975609757
135,0.299,IMU1,0.07421875,0.1552734375,-2.783203125,0.24390243902439027,2.987804878048781,0.6707317073170732
136,0.309,IMU0,0.009765625,0.125,-2.861328125,1.5853658536585367,3.2926829268292686,1.2804878048780488
137,0.309,IMU1,0.0419921875,0.1513671875,-2.8583984375,-0.1829268292682927,3.048780487804878,0.9146341463414634
138,0.319,IMU0,0.041015625,0.1123046875,-2.8828125,2.7439024390243905,3.231707317073171,1.5853658536585367
139,0.319,IMU1,0.0478515625,0.119140625,-2.9208984375,1.0365853658536586,3.353658536585366,1.2804878048780488
140,0.329,IMU0,0.056640625,0.1435546875,-2.900390625,2.073170731707317,1.3414634146341464,1.707317073170732
141,0.329,IMU1,0.056640625,0.150390625,-2.9306640625,0.30487804878048785,1.4634146341463417,1.2195121951219514
142,0.339,IMU0,0.02734375,0.1337890625,-2.9501953125,2.987804878048781,0.6097560975609757,1.2195121951219514
143,0.339,IMU1,0.048828125,0.15625,-2.9560546875,1.4634146341463417,0.6707317073170732,0.9146341463414634
144,0.349,IMU0,-0.001953125,0.123046875,-2.998046875,2.25609756097561,0.48780487804878053,1.3414634146341464
145,0.349,IMU1,0.033203125,0.150390625,-3.0078125,0.426829268292683,0.48780487804878053,1.2195121951219514
146,0.359,IMU0,-0.0078125,0.1064453125,-2.998046875,1.4634146341463417,1.2804878048780488,1.2195121951219514
147,0.359,IMU1,0.044921875,0.1201171875,-3.04296875,0.0,1.3414634146341464,1.1585365853658538
148,0.369,IMU0,0.0029296875,0.1201171875,-2.9619140625,0.853658536585366,0.30487804878048785,1.5853658536585367
149,0.369,IMU1,0.0537109375,0.1220703125,-3.048828125,-0.9146341463414634,0.30487804878048785,1.524390243902439
150,0.379,IMU0,0.021484375,0.12890625,-2.984375,0.30487804878048785,-0.3658536585365854,1.829268292682927
151,0.379,IMU1,0.0537109375,0.142578125,-3.0068359375,-1.2804878048780488,-0.48780487804878053,1.4634146341463417
152,0.389,IMU0,0.0126953125,0.1318359375,-2.9404296875,1.6463414634146343,2.0121951219512195,2.073170731707317
153,0.389,IMU1,0.05859375,0.1484375,-2.9599609375,0.48780487804878053,1.6463414634146343,1.5853658536585367
154,0.399,IMU0,0.0439453125,0.1494140625,-2.9140625,0.1829268292682927,2.6219512195121952,1.707317073170732
155,0.399,IMU1,0.091796875,0.1640625,-2.9501953125,-1.0365853658536586,2.25609756097561,1.1585365853658538
156,0.409,IMU0,0.025390625,0.138671875,-2.9189453125,1.1585365853658538,3.1707317073170733,2.073170731707317
157,0.409,IMU1,0.06640625,0.1494140625,-2.962890625,0.0,2.7439024390243905,1.6463414634146343
158,0.419,IMU0,0.0361328125,0.134765625,-2.9423828125,0.9756097560975611,1.2804878048780488,2.1951219512195124
159,0.419,IMU1,0.0595703125,0.142578125,-2.9853515625,-0.7926829268292683,1.4634146341463417,2.0121951219512195
160,0.429,IMU0,0.0,0.12890625,-2.98046875,1.9512195121951221,-0.853658536585366,2.1341463414634148
161,0.429,IMU1,0.021484375,0.146484375,-2.9921875,0.6097560975609757,-0.1829268292682927,1.9512195121951221
162,0.439,IMU0,-0.0087890625,0.12890625,-3.009765625,2.25609756097561,-1.7682926829268295,1.5853658536585367
163,0.439,IMU1,0.0224609375,0.150390625,-3.0087890625,0.7317073170731708,-1.0975609756097562,1.3414634146341464
164,0.449,IMU0,-0.01953125,0.125,-3.0009765625,1.524390243902439,0.9146341463414634,0.853658536585366
165,0.449,IMU1,0.01171875,0.1416015625,-3.0107421875,0.1829268292682927,0.7317073170731708,0.48780487804878053
166,0.459,IMU0,0.0107421875,0.1201171875,-2.970703125,1.8902439024390245,3.414634146341464,0.5487804878048781
167,0.459,IMU1,0.0576171875,0.1328125,-3.001953125,0.5487804878048781,2.804878048780488,0.06097560975609757
168,0.469,IMU0,0.0107421875,0.138671875,-2.9248046875,1.524390243902439,2.8658536585365857,0.7317073170731708
169,0.469,IMU1,0.0576171875,0.1513671875,-2.9521484375,0.0,2.5,0.24390243902439027
170,0.479,IMU0,0.0009765625,0.134765625,-2.9111328125,2.1341463414634148,2.3170731707317076,0.426829268292683
171,0.479,IMU1,0.041015625,0.1484375,-2.9287109375,1.0975609756097562,2.439024390243903,0.0
172,0.489,IMU0,-0.00390625,0.13671875,-2.9404296875,1.8902439024390245,1.829268292682927,0.1829268292682927
173,0.489,IMU1,0.0341796875,0.154296875,-2.955078125,0.6097560975609757,2.3170731707317076,-0.06097560975609757
174,0.499,IMU0,0.013671875,0.12890625,-2.966796875,1.2804878048780488,2.25609756097561,0.0
175,0.499,IMU1,0.0478515625,0.1435546875,-2.998046875,0.48780487804878053,2.6219512195121952,-0.3658536585365854
176,0.509,IMU0,0.03515625,0.1376953125,-2.9658203125,2.5,4.939024390243903,0.06097560975609757
177,0.509,IMU1,0.07421875,0.1435546875,-3.03125,0.6097560975609757,4.2682926829268295,-0.3658536585365854
178,0.519,IMU0,0.03515625,0.138671875,-2.9248046875,2.3170731707317076,5.182926829268293,-0.1829268292682927
179,0.519,IMU1,0.0771484375,0.14453125,-2.9833984375,0.7317073170731708,4.451219512195122,-0.48780487804878053
180,0.529,IMU0,0.0283203125,0.1181640625,-2.962890625,2.3170731707317076,3.231707317073171,-0.5487804878048781
181,0.529,IMU1,0.05859375,0.1220703125,-2.9853515625,0.853658536585366,3.536585365853659,-0.6097560975609757
182,0.539,IMU0,0.037109375,0.1044921875,-2.9970703125,-1.829268292682927,0.24390243902439027,-0.6707317073170732
183,0.539,IMU1,0.0576171875,0.115234375,-3.041015625,-3.353658536585366,0.426829268292683,-0.7926829268292683
184,0.549,IMU0,0.0517578125,0.0849609375,-2.98828125,-2.9268292682926833,-0.3658536585365854,-0.9146341463414634
185,0.549,IMU1,0.0771484375,0.0947265625,-3.07421875,-4.51219512195122,-1.2804878048780488,-1.1585365853658538
186,0.559,IMU0,0.0,0.0625,-2.9228515625,-8.719512195121952,0.06097560975609757,-0.30487804878048785
187,0.559,IMU1,0.0283203125,0.0732421875,-2.9775390625,-9.634146341463415,-0.853658536585366,-0.6707317073170732
188,0.569,IMU0,-0.015625,0.0693359375,-2.9599609375,-16.76829268292683,0.1829268292682927,-0.12195121951219513
189,0.569,IMU1,-0.001953125,0.08984375,-2.970703125,-17.682926829268293,0.24390243902439027,-0.426829268292683
190,0.579,IMU0,0.0068359375,0.052734375,-2.9609375,-25.0609756097561,1.3414634146341464,0.1829268292682927
191,0.579,IMU1,0.0244140625,0.0732421875,-3.0068359375,-26.219512195121954,0.853658536585366,-0.1829268292682927
192,0.589,IMU0,-0.015625,0.0751953125,-2.8857421875,-31.463414634146343,2.0121951219512195,0.48780487804878053
193,0.589,IMU1,0.0234375,0.080078125,-2.9267578125,-32.13414634146342,1.524390243902439,-0.1829268292682927
194,0.599,IMU0,-0.025390625,0.1064453125,-2.8984375,-35.79268292682927,3.353658536585366,0.6707317073170732
195,0.599,IMU1,0.0087890625,0.11328125,-2.9130859375,-37.01219512195122,3.8414634146341466,0.1829268292682927
196,0.609,IMU0,0.0185546875,0.1162109375,-2.9140625,-38.53658536585366,2.3170731707317076,0.24390243902439027
197,0.609,IMU1,0.041015625,0.1240234375,-2.955078125,-39.69512195121951,2.25609756097561,-0.30487804878048785
198,0.619,IMU0,0.0224609375,0.11328125,-2.857421875,-37.31707317073171,2.439024390243903,0.12195121951219513
199,0.619,IMU1,0.05859375,0.1162109375,-2.9580078125,-38.78048780487805,1.6463414634146343,-0.48780487804878053
200,0.629,IMU0,-0.0078125,0.1103515625,-2.8046875,-37.5,2.6219512195121952,0.3658536585365854
201,0.629,IMU1,0.0244140625,0.1123046875,-2.8671875,-38.53658536585366,1.829268292682927,-0.1829268292682927
202,0.639,IMU0,0.0,0.1064453125,-2.83203125,-36.82926829268293,0.6707317073170732,0.06097560975609757
203,0.639,IMU1,0.015625,0.115234375,-2.869140625,-38.170731707317074,1.0365853658536586,-0.30487804878048785
204,0.649,IMU0,0.0205078125,0.078125,-2.833984375,-38.59756097560976,-0.7926829268292683,0.6707317073170732
205,0.649,IMU1,0.0400390625,0.09375,-2.9052734375,-40.0,-1.402439024390244,0.12195121951219513
206,0.659,IMU0,-0.013671875,0.0751953125,-2.75390625,-37.5609756097561,-0.7317073170731708,1.4634146341463417
207,0.659,IMU1,0.015625,0.0849609375,-2.8349609375,-39.390243902439025,-1.524390243902439,0.9756097560975611
208,0.669,IMU0,-0.037109375,0.1064453125,-2.76171875,-37.6829268292683,0.06097560975609757,1.5853658536585367
209,0.669,IMU1,-0.0234375,0.12109375,-2.794921875,-39.63414634146342,0.0,1.2804878048780488
210,0.679,IMU0,-0.03125,0.09765625,-2.7880859375,-33.65853658536586,1.0365853658536586,1.5853658536585367
211,0.679,IMU1,-0.0224609375,0.1171875,-2.8271484375,-35.73170731707317,0.7317073170731708,1.2804878048780488
212,0.689,IMU0,0.0087890625,0.0908203125,-2.7333984375,-30.60975609756098,1.9512195121951221,1.5853658536585367
213,0.689,IMU1,0.041015625,0.107421875,-2.83203125,-32.926829268292686,0.6097560975609757,1.2195121951219514
214,0.699,IMU0,-0.0234375,0.0908203125,-2.6630859375,-26.707317073170735,1.9512195121951221,1.2804878048780488
215,0.699,IMU1,0.0126953125,0.1044921875,-2.7138671875,-28.04878048780488,1.2195121951219514,0.7926829268292683
216,0.709,IMU0,-0.03125,0.0859375,-2.6884765625,-23.170731707317074,-0.24390243902439027,0.12195121951219513
217,0.709,IMU1,0.00390625,0.103515625,-2.705078125,-24.634146341463417,0.06097560975609757,-0.1829268292682927
218,0.719,IMU0,-0.0087890625,0.056640625,-2.69921875,-23.353658536585368,-0.9146341463414634,-0.426829268292683
219,0.719,IMU1,0.0244140625,0.08203125,-2.7265625,-24.390243902439025,-1.0975609756097562,-0.853658536585366
220,0.729,IMU0,-0.033203125,0.0732421875,-2.666015625,-20.853658536585368,0.9146341463414634,-0.12195121951219513
221,0.729,IMU1,0.0263671875,0.091796875,-2.7001953125,-21.890243902439025,0.6097560975609757,-0.30487804878048785
222,0.739,IMU0,-0.0390625,0.0732421875,-2.662109375,-18.170731707317074,2.25609756097561,0.30487804878048785
223,0.739,IMU1,0.01171875,0.083984375,-2.6357421875,-19.695121951219512,0.3658536585365854,-0.12195121951219513
224,0.749,IMU0,-0.0244140625,0.064453125,-2.7275390625,-17.5,1.707317073170732,0.6707317073170732
225,0.749,IMU1,-0.001953125,0.0791015625,-2.6787109375,-18.84146341463415,1.0365853658536586,0.30487804878048785
226,0.759,IMU0,-0.01953125,0.099609375,-2.708984375,-15.000000000000002,2.3170731707317076,0.5487804878048781
227,0.759,IMU1,0.02734375,0.1123046875,-2.7431640625,-15.670731707317074,2.1951219512195124,0.30487804878048785
228,0.769,IMU0,-0.029296875,0.0712890625,-2.6630859375,-8.109756097560977,2.8658536585365857,0.48780487804878053
229,0.769,IMU1,0.0009765625,0.0791015625,-2.7197265625,-9.085365853658537,1.9512195121951221,0.0
230,0.779,IMU0,-0.02734375,0.07421875,-2.751953125,-5.121951219512195,0.6097560975609757,-0.48780487804878053
231,0.779,IMU1,0.0322265625,0.0810546875,-2.8076171875,-6.402439024390245,0.1829268292682927,-0.9756097560975611
232,0.789,IMU0,-0.013671875,0.044921875,-2.7587890625,-0.48780487804878053,2.073170731707317,-1.2804878048780488
233,0.789,IMU1,0.009765625,0.056640625,-2.732421875,-1.2195121951219514,2.439024390243903,-1.6463414634146343
234,0.799,IMU0,-0.0126953125,0.0361328125,-2.6875,0.1829268292682927,6.036585365853659,-1.0975609756097562
235,0.799,IMU1,0.021484375,0.0419921875,-2.7333984375,-0.853658536585366,5.914634146341464,-1.6463414634146343
236,0.809,IMU0,0.0322265625,0.01171875,-2.75,0.6097560975609757,3.231707317073171,-1.0975609756097562
237,0.809,IMU1,0.078125,0.0166015625,-2.7890625,-0.853658536585366,3.353658536585366,-1.402439024390244
238,0.819,IMU0,0.0322265625,0.0224609375,-2.716796875,-0.3658536585365854,1.0975609756097562,-1.3414634146341464
239,0.819,IMU1,0.0478515625,0.044921875,-2.75,-1.9512195121951221,1.2804878048780488,-1.6463414634146343
240,0.829,IMU0,-0.005859375,0.033203125,-2.78515625,-0.24390243902439027,-0.1829268292682927,-0.426829268292683
241,0.829,IMU1,0.046875,0.05078125,-2.8466796875,-2.0121951219512195,-1.0365853658536586,-0.9756097560975611
242,0.839,IMU0,0.0439453125,0.048828125,-2.8076171875,1.2804878048780488,-1.2195121951219514,-0.30487804878048785
243,0.839,IMU1,0.0703125,0.0595703125,-2.755859375,-0.48780487804878053,-0.48780487804878053,-0.426829268292683
244,0.849,IMU0,-0.0048828125,0.03125,-2.6708984375,1.524390243902439,1.707317073170732,0.3658536585365854
245,0.849,IMU1,0.0205078125,0.044921875,-2.681640625,0.0,1.8902439024390245,-0.12195121951219513
246,0.859,IMU0,-0.001953125,0.0341796875,-2.7197265625,2.073170731707317,1.524390243902439,0.3658536585365854
247,0.859,IMU1,0.041015625,0.05078125,-2.7587890625,0.30487804878048785,1.829268292682927,0.12195121951219513
248,0.869,IMU0,-0.0361328125,0.0537109375,-2.6640625,0.7926829268292683,3.414634146341464,0.853658536585366
249,0.869,IMU1,-0.017578125,0.0703125,-2.68359375,-1.2804878048780488,3.231707317073171,0.6707317073170732
250,0.879,IMU0,-0.0517578125,0.052734375,-2.697265625,1.7682926829268295,3.2926829268292686,0.5487804878048781
251,0.879,IMU1,0.0029296875,0.0546875,-2.759765625,-0.06097560975609757,2.8658536585365857,0.3658536585365854
252,0.889,IMU0,-0.015625,0.0458984375,-2.673828125,0.0,5.2439024390243905,0.7317073170731708
253,0.889,IMU1,0.0087890625,0.052734375,-2.6494140625,-0.853658536585366,5.853658536585367,0.48780487804878053
254,0.899,IMU0,-0.0390625,0.0361328125,-2.5908203125,1.524390243902439,3.9024390243902443,1.0975609756097562
255,0.899,IMU1,0.00390625,0.04296875,-2.6455078125,0.24390243902439027,3.231707317073171,0.6707317073170732
256,0.909,IMU0,-0.0126953125,0.044921875,-2.646484375,-0.1829268292682927,0.1829268292682927,0.3658536585365854
257,0.909,IMU1,0.0234375,0.0517578125,-2.6640625,-1.6463414634146343,0.30487804878048785,0.24390243902439027
258,0.919,IMU0,-0.0556640625,0.0322265625,-2.5703125,1.0365853658536586,1.524390243902439,0.30487804878048785
259,0.919,IMU1,-0.0283203125,0.04296875,-2.6201171875,-1.0975609756097562,0.9756097560975611,0.0
260,0.929,IMU0,-0.0400390625,0.0361328125,-2.6650390625,0.6707317073170732,0.3658536585365854,0.0
261,0.929,IMU1,0.013671875,0.0478515625,-2.7177734375,-0.48780487804878053,-0.426829268292683,-0.30487804878048785
262,0.939,IMU0,-0.009765625,0.0283203125,-2.5927734375,1.829268292682927,1.0365853658536586,-0.1829268292682927
263,0.939,IMU1,0.01171875,0.046875,-2.5498046875,0.6097560975609757,1.707317073170732,-0.426829268292683
264,0.949,IMU0,-0.0380859375,0.02734375,-2.5302734375,2.5609756097560976,1.0975609756097562,-0.48780487804878053
265,0.949,IMU1,0.0068359375,0.0419921875,-2.56640625,0.7317073170731708,0.7317073170731708,-0.853658536585366
266,0.959,IMU0,-0.0224609375,0.009765625,-2.537109375,1.707317073170732,1.4634146341463417,-0.426829268292683
267,0.959,IMU1,-0.0087890625,0.025390625,-2.541015625,0.24390243902439027,1.9512195121951221,-0.7317073170731708
268,0.969,IMU0,-0.078125,0.03515625,-2.5205078125,0.3658536585365854,3.1097560975609757,-0.06097560975609757
269,0.969,IMU1,-0.04296875,0.0498046875,-2.5830078125,-1.402439024390244,2.5,-0.5487804878048781
270,0.979,IMU0,-0.0146484375,0.0361328125,-2.6103515625,0.48780487804878053,1.8902439024390245,-0.30487804878048785
271,0.979,IMU1,0.0234375,0.046875,-2.609375,-1.0365853658536586,2.073170731707317,-0.7317073170731708
272,0.989,IMU0,-0.056640625,0.0419921875,-2.453125,2.378048780487805,2.439024390243903,-0.1829268292682927
273,0.989,IMU1,-0.0419921875,0.0498046875,-2.4765625,0.0,3.231707317073171,-0.48780487804878053
274,0.999,IMU0,-0.0302734375,0.0400390625,-2.51953125,3.1097560975609757,1.0975609756097562,-0.426829268292683
275,0.999,IMU1,0.013671875,0.046875,-2.5732421875,1.2195121951219514,0.426829268292683,-0.6707317073170732
276,1.009,IMU0,-0.056640625,0.0234375,-2.4755859375,3.1097560975609757,0.6707317073170732,0.24390243902439027
277,1.009,IMU1,-0.0283203125,0.0361328125,-2.51171875,1.8902439024390245,0.12195121951219513,-0.1829268292682927
278,1.019,IMU0,-0.0302734375,0.0244140625,-2.5390625,2.804878048780488,-2.5609756097560976,-0.12195121951219513
279,1.019,IMU1,0.021484375,0.03125,-2.572265625,0.9756097560975611,-3.048780487804878,-0.30487804878048785
280,1.029,IMU0,-0.052734375,0.0166015625,-2.4423828125,3.414634146341464,-0.7926829268292683,0.0
281,1.029,IMU1,-0.0341796875,0.0361328125,-2.4140625,1.402439024390244,0.30487804878048785,-0.1829268292682927
282,1.039,IMU0,-0.03515625,0.037109375,-2.4228515625,1.707317073170732,1.829268292682927,-0.06097560975609757
283,1.039,IMU1,0.009765625,0.052734375,-2.4794921875,-0.48780487804878053,1.2804878048780488,-0.426829268292683
284,1.049,IMU0,-0.025390625,0.03125,-2.400390625,1.8902439024390245,0.9756097560975611,0.24390243902439027
285,1.049,IMU1,-0.001953125,0.0458984375,-2.3955078125,0.1829268292682927,1.0975609756097562,0.12195121951219513
286,1.059,IMU0,-0.0380859375,0.0595703125,-2.39453125,-0.24390243902439027,0.0,0.9146341463414634
287,1.059,IMU1,0.001953125,0.0625,-2.4501953125,-2.1341463414634148,-0.24390243902439027,0.6707317073170732
288,1.069,IMU0,-0.0283203125,0.0419921875,-2.37890625,0.12195121951219513,1.0365853658536586,1.1585365853658538
289,1.069,IMU1,-0.009765625,0.0517578125,-2.3759765625,-0.9756097560975611,0.9146341463414634,0.853658536585366
290,1.079,IMU0,-0.046875,0.0380859375,-2.3466796875,2.378048780487805,1.4634146341463417,1.5853658536585367
291,1.079,IMU1,-0.0029296875,0.0537109375,-2.42578125,1.524390243902439,0.48780487804878053,1.0975609756097562
292,1.089,IMU0,0.00390625,0.0439453125,-2.419921875,2.9268292682926833,-1.2804878048780488,1.3414634146341464
293,1.089,IMU1,0.02734375,0.0595703125,-2.4287109375,1.7682926829268295,-1.4634146341463417,1.0365853658536586
294,1.099,IMU0,-0.0302734375,0.041015625,-2.310546875,4.634146341463415,-1.6463414634146343,1.2804878048780488
295,1.099,IMU1,0.0029296875,0.0537109375,-2.3369140625,3.048780487804878,-1.8902439024390245,0.9756097560975611
296,1.109,IMU0,-0.0185546875,0.0234375,-2.3095703125,2.378048780487805,-0.853658536585366,0.6097560975609757
297,1.109,IMU1,0.005859375,0.0341796875,-2.2998046875,0.9756097560975611,-0.12195121951219513,0.426829268292683
298,1.119,IMU0,-0.06640625,0.02734375,-2.2265625,1.1585365853658538,1.707317073170732,0.9146341463414634
299,1.119,IMU1,-0.037109375,0.041015625,-2.2734375,-0.5487804878048781,1.0975609756097562,0.6097560975609757
300,1.129,IMU0,-0.017578125,0.0625,-2.333984375,-1.0365853658536586,1.3414634146341464,1.2804878048780488
301,1.129,IMU1,0.01953125,0.072265625,-2.3603515625,-2.5,0.7317073170731708,1.1585365853658538
302,1.139,IMU0,-0.0341796875,0.0517578125,-2.189453125,0.9756097560975611,2.7439024390243905,1.6463414634146343
303,1.139,IMU1,-0.0048828125,0.056640625,-2.212890625,-0.9146341463414634,2.682926829268293,1.402439024390244
304,1.149,IMU0,-0.0078125,0.033203125,-2.2763671875,1.7682926829268295,1.0975609756097562,1.0975609756097562
305,1.149,IMU1,0.03125,0.0439453125,-2.3203125,-0.426829268292683,0.9756097560975611,0.9146341463414634
306,1.159,IMU0,-0.015625,0.046875,-2.20703125,2.3170731707317076,0.06097560975609757,1.2804878048780488
307,1.159,IMU1,0.0146484375,0.0615234375,-2.2333984375,0.6097560975609757,0.1829268292682927,0.9756097560975611
308,1.169,IMU0,0.001953125,0.0400390625,-2.2158203125,2.5609756097560976,-1.524390243902439,0.3658536585365854
309,1.169,IMU1,0.0390625,0.0517578125,-2.22265625,1.0365853658536586,-1.1585365853658538,0.06097560975609757
310,1.179,IMU0,-0.060546875,0.056640625,-2.068359375,2.9268292682926833,0.9146341463414634,0.6097560975609757
311,1.179,IMU1,-0.0390625,0.0712890625,-2.0908203125,1.402439024390244,1.3414634146341464,0.3658536585365854
312,1.189,IMU0,-0.033203125,0.048828125,-2.2080078125,2.073170731707317,0.7926829268292683,0.5487804878048781
313,1.189,IMU1,0.0048828125,0.0556640625,-2.259765625,0.426829268292683,0.6097560975609757,0.24390243902439027
314,1.199,IMU0,-0.0400390625,0.0390625,-2.091796875,2.5,2.5,0.06097560975609757
315,1.199,IMU1,-0.017578125,0.046875,-2.1123046875,0.5487804878048781,2.682926829268293,-0.24390243902439027
316,1.209,IMU0,0.015625,0.025390625,-2.140625,1.8902439024390245,0.7926829268292683,-0.5487804878048781
317,1.209,IMU1,0.0537109375,0.037109375,-2.177734375,-0.30487804878048785,0.853658536585366,-0.7926829268292683
318,1.219,IMU0,-0.0400390625,0.048828125,-2.083984375,1.524390243902439,-0.6097560975609757,-0.24390243902439027
319,1.219,IMU1,-0.015625,0.0625,-2.1103515625,0.0,-0.12195121951219513,-0.5487804878048781
320,1.229,IMU0,-0.0234375,0.0625,-2.138671875,1.707317073170732,-0.853658536585366,-0.7926829268292683
321,1.229,IMU1,0.0126953125,0.072265625,-2.1630859375,0.12195121951219513,-0.426829268292683,-1.0365853658536586
322,1.239,IMU0,-0.0791015625,0.064453125,-1.9951171875,2.1341463414634148,4.329268292682928,-0.1829268292682927
323,1.239,IMU1,-0.060546875,0.07421875,-2.009765625,0.24390243902439027,4.695121951219512,-0.426829268292683
324,1.249,IMU0,0.0,0.048828125,-2.1171875,2.5,3.5975609756097566,-0.426829268292683
325,1.249,IMU1,0.0341796875,0.056640625,-2.1640625,0.1829268292682927,3.353658536585366,-0.6097560975609757
326,1.259,IMU0,-0.0390625,0.0576171875,-2.05078125,2.1951219512195124,3.4756097560975614,-0.30487804878048785
327,1.259,IMU1,-0.0146484375,0.068359375,-2.0751953125,0.24390243902439027,3.048780487804878,-0.5487804878048781
328,1.269,IMU0,-0.0087890625,0.0498046875,-2.09765625,2.073170731707317,2.378048780487805,-0.7317073170731708
329,1.269,IMU1,0.0263671875,0.060546875,-2.1240234375,1.0365853658536586,1.7682926829268295,-1.0975609756097562
330,1.279,IMU0,-0.052734375,0.041015625,-1.9892578125,2.987804878048781,4.2682926829268295,-0.12195121951219513
331,1.279,IMU1,-0.0263671875,0.0546875,-2.0126953125,1.6463414634146343,4.2682926829268295,-0.5487804878048781
332,1.289,IMU0,-0.0107421875,0.0400390625,-2.0498046875,0.30487804878048785,2.8658536585365857,0.1829268292682927
333,1.289,IMU1,0.0234375,0.0517578125,-2.0732421875,-0.426829268292683,2.987804878048781,-0.3658536585365854
334,1.299,IMU0,-0.0576171875,0.056640625,-1.8984375,0.853658536585366,4.024390243902439,0.6097560975609757
335,1.299,IMU1,-0.033203125,0.0654296875,-1.919921875,0.12195121951219513,3.5975609756097566,0.1829268292682927
336,1.309,IMU0,-0.0146484375,0.0380859375,-2.0,0.853658536585366,2.378048780487805,0.1829268292682927
337,1.309,IMU1,0.0205078125,0.044921875,-2.037109375,-0.426829268292683,2.073170731707317,-0.1829268292682927
338,1.319,IMU0,-0.0439453125,0.0419921875,-1.9443359375,1.1585365853658538,1.7682926829268295,0.6097560975609757
339,1.319,IMU1,-0.017578125,0.0517578125,-1.9775390625,0.1829268292682927,1.7682926829268295,0.24390243902439027
340,1.329,IMU0,-0.0009765625,0.03125,-1.9619140625,1.707317073170732,-0.6707317073170732,0.24390243902439027
341,1.329,IMU1,0.03125,0.04296875,-1.9794921875,0.853658536585366,-0.7926829268292683,0.0
342,1.339,IMU0,-0.05859375,0.0390625,-1.86328125,3.1097560975609757,1.524390243902439,0.7926829268292683
343,1.339,IMU1,-0.033203125,0.05078125,-1.888671875,1.707317073170732,1.3414634146341464,0.5487804878048781
344,1.349,IMU0,-0.025390625,0.0361328125,-1.9404296875,2.25609756097561,0.7926829268292683,0.48780487804878053
345,1.349,IMU1,0.0029296875,0.046875,-1.966796875,0.3658536585365854,0.7926829268292683,0.24390243902439027
346,1.359,IMU0,-0.048828125,0.033203125,-1.81640625,3.2926829268292686,3.4756097560975614,0.3658536585365854
347,1.359,IMU1,-0.0224609375,0.04296875,-1.8447265625,2.1951219512195124,3.231707317073171,0.0
348,1.369,IMU0,-0.0302734375,0.01953125,-1.90625,1.2195121951219514,0.6097560975609757,0.30487804878048785
349,1.369,IMU1,-0.001953125,0.0302734375,-1.9404296875,0.30487804878048785,0.48780487804878053,0.0
350,1.379,IMU0,-0.0712890625,0.0205078125,-1.8740234375,1.6463414634146343,1.707317073170732,0.7926829268292683
351,1.379,IMU1,-0.0400390625,0.0302734375,-1.904296875,-0.48780487804878053,1.707317073170732,0.6707317073170732
352,1.389,IMU0,-0.013671875,0.0263671875,-1.8505859375,-0.7317073170731708,2.5609756097560976,1.1585365853658538
353,1.389,IMU1,0.013671875,0.037109375,-1.8681640625,-2.8658536585365857,2.682926829268293,0.9146341463414634
354,1.399,IMU0,-0.0517578125,0.046875,-1.8056640625,0.1829268292682927,3.1097560975609757,1.524390243902439
355,1.399,IMU1,-0.0224609375,0.0576171875,-1.837890625,-2.1341463414634148,0.12195121951219513,1.0365853658536586
356,1.409,IMU0,-0.0244140625,0.0517578125,-1.873046875,0.24390243902439027,-0.06097560975609757,1.1585365853658538
357,1.409,IMU1,0.0029296875,0.0615234375,-1.90625,-0.5487804878048781,1.1585365853658538,0.9146341463414634
358,1.419,IMU0,-0.076171875,0.03515625,-1.818359375,2.3170731707317076,0.6097560975609757,0.9756097560975611
359,1.419,IMU1,-0.0458984375,0.044921875,-1.8525390625,0.7926829268292683,-0.30487804878048785,0.48780487804878053
360,1.429,IMU0,-0.0263671875,0.0244140625,-1.8955078125,3.1707317073170733,1.829268292682927,1.0975609756097562
361,1.429,IMU1,-0.025390625,0.0634765625,-1.8134765625,2.1951219512195124,3.8414634146341466,0.9756097560975611
362,1.439,IMU0,-0.0322265625,0.0361328125,-1.8193359375,3.536585365853659,0.7926829268292683,0.9146341463414634
363,1.439,IMU1,0.01171875,0.0419921875,-1.85546875,1.8902439024390245,0.7926829268292683,0.30487804878048785
364,1.449,IMU0,-0.02734375,0.0234375,-1.775390625,2.5609756097560976,0.06097560975609757,0.5487804878048781
365,1.449,IMU1,-0.0263671875,0.0380859375,-1.8408203125,0.426829268292683,0.426829268292683,0.3658536585365854
366,1.459,IMU0,-0.076171875,0.04296875,-1.8271484375,1.1585365853658538,0.12195121951219513,0.24390243902439027
367,1.459,IMU1,0.0166015625,0.029296875,-1.8974609375,-1.4634146341463417,-0.5487804878048781,-0.12195121951219513
368,1.469,IMU0,-0.0263671875,0.0244140625,-1.7939453125,1.707317073170732,1.1585365853658538,-0.12195121951219513
369,1.469,IMU1,-0.0380859375,0.041015625,-1.7255859375,0.1829268292682927,3.414634146341464,-0.3658536585365854
370,1.479,IMU0,-0.03515625,0.0439453125,-1.7392578125,0.426829268292683,2.439024390243903,-0.3658536585365854
371,1.479,IMU1,0.021484375,0.0615234375,-1.8466796875,-1.6463414634146343,1.2195121951219514,-0.7317073170731708
372,1.489,IMU0,-0.0302734375,0.0205078125,-1.736328125,1.4634146341463417,1.8902439024390245,-0.426829268292683
373,1.489,IMU1,-0.0263671875,0.0224609375,-1.69140625,-0.3658536585365854,1.707317073170732,-0.6707317073170732
374,1.499,IMU0,-0.0234375,0.0283203125,-1.716796875,-3.2926829268292686,1.2804878048780488,-0.24390243902439027
375,1.499,IMU1,-0.0009765625,0.015625,-1.759765625,-5.0,0.9146341463414634,-0.6097560975609757
376,1.509,IMU0,-0.0810546875,0.0224609375,-1.6884765625,-3.963414634146342,2.439024390243903,-0.3658536585365854
377,1.509,IMU1,-0.037109375,0.0390625,-1.7919921875,-6.402439024390245,2.3170731707317076,-0.6097560975609757
378,1.519,IMU0,-0.0234375,0.0537109375,-1.78515625,-3.5975609756097566,3.7195121951219514,-0.30487804878048785
379,1.519,IMU1,0.0048828125,0.064453125,-1.7021484375,-5.182926829268293,3.7195121951219514,-0.6707317073170732
380,1.529,IMU0,-0.0498046875,0.037109375,-1.6220703125,-3.414634146341464,2.1951219512195124,0.12195121951219513
381,1.529,IMU1,-0.04296875,0.0556640625,-1.69140625,-4.329268292682928,2.5609756097560976,-0.24390243902439027
382,1.539,IMU0,-0.0517578125,0.0478515625,-1.67578125,-3.048780487804878,0.48780487804878053,0.6097560975609757
383,1.539,IMU1,-0.0244140625,0.0576171875,-1.71484375,-4.451219512195122,0.3658536585365854,0.24390243902439027
384,1.549,IMU0,-0.0556640625,0.03125,-1.6689453125,-2.7439024390243905,-0.1829268292682927,0.7926829268292683
385,1.549,IMU1,-0.025390625,0.0400390625,-1.6982421875,-3.963414634146342,-0.3658536585365854,0.426829268292683
386,1.559,IMU0,-0.0625,0.0625,-1.654296875,-1.9512195121951221,1.7682926829268295,0.5487804878048781
387,1.559,IMU1,-0.0341796875,0.0693359375,-1.68359375,-2.1341463414634148,1.6463414634146343,0.0
388,1.569,IMU0,-0.0625,0.052734375,-1.6650390625,0.24390243902439027,1.707317073170732,0.1829268292682927
389,1.569,IMU1,-0.029296875,0.0625,-1.6982421875,-0.06097560975609757,1.524390243902439,-0.30487804878048785
390,1.579,IMU0,-0.0888671875,0.0380859375,-1.5517578125,1.0365853658536586,5.121951219512195,0.426829268292683
391,1.579,IMU1,-0.0634765625,0.0478515625,-1.56640625,0.06097560975609757,5.426829268292684,0.0
392,1.589,IMU0,-0.03125,0.02734375,-1.6826171875,-1.1585365853658538,2.439024390243903,0.24390243902439027
393,1.589,IMU1,-0.0068359375,0.0380859375,-1.71875,-2.1341463414634148,2.5,-0.06097560975609757
394,1.599,IMU0,-0.048828125,0.0185546875,-1.5419921875,0.30487804878048785,2.073170731707317,0.7317073170731708
395,1.599,IMU1,-0.0244140625,0.0283203125,-1.57421875,-0.9146341463414634,1.829268292682927,0.3658536585365854
396,1.609,IMU0,-0.0419921875,0.041015625,-1.6171875,-1.402439024390244,0.6097560975609757,0.7926829268292683
397,1.609,IMU1,-0.009765625,0.0478515625,-1.6455078125,-2.987804878048781,0.6097560975609757,0.48780487804878053
398,1.619,IMU0,-0.08203125,0.0654296875,-1.546875,0.24390243902439027,2.25609756097561,1.2195121951219514
399,1.619,IMU1,-0.0556640625,0.076171875,-1.572265625,-1.2195121951219514,2.439024390243903,0.7926829268292683
400,1.629,IMU0,-0.0419921875,0.0458984375,-1.580078125,-0.24390243902439027,2.804878048780488,1.402439024390244
401,1.629,IMU1,-0.0146484375,0.05859375,-1.62109375,-1.829268292682927,2.7439024390243905,1.0365853658536586
402,1.639,IMU0,-0.0830078125,0.0361328125,-1.5537109375,1.0975609756097562,2.1951219512195124,1.707317073170732
403,1.639,IMU1,-0.0595703125,0.0478515625,-1.5673828125,-0.1829268292682927,2.439024390243903,1.402439024390244
404,1.649,IMU0,-0.0322265625,0.0419921875,-1.5947265625,0.1829268292682927,0.3658536585365854,1.402439024390244
405,1.649,IMU1,0.00390625,0.05078125,-1.654296875,-0.853658536585366,-0.30487804878048785,1.0365853658536586
406,1.659,IMU0,-0.1015625,0.048828125,-1.4912109375,2.25609756097561,0.48780487804878053,1.402439024390244
407,1.659,IMU1,-0.0732421875,0.0576171875,-1.498046875,0.7926829268292683,0.426829268292683,1.0365853658536586
408,1.669,IMU0,-0.06640625,0.041015625,-1.5869140625,0.5487804878048781,-0.12195121951219513,1.0365853658536586
409,1.669,IMU1,-0.0390625,0.0498046875,-1.625,-0.3658536585365854,-1.0975609756097562,0.7317073170731708
410,1.679,IMU0,-0.08203125,0.0380859375,-1.521484375,1.707317073170732,1.2195121951219514,0.9756097560975611
411,1.679,IMU1,-0.0625,0.05078125,-1.544921875,0.5487804878048781,0.853658536585366,0.6707317073170732
412,1.689,IMU0,-0.07421875,0.0341796875,-1.5146484375,2.1951219512195124,1.7682926829268295,0.48780487804878053
413,1.689,IMU1,-0.041015625,0.0419921875,-1.5478515625,0.9756097560975611,1.4634146341463417,0.1829268292682927
414,1.699,IMU0,-0.0654296875,0.0556640625,-1.5322265625,2.9268292682926833,2.5,0.3658536585365854
415,1.699,IMU1,-0.0439453125,0.064453125,-1.5458984375,1.9512195121951221,2.073170731707317,0.06097560975609757
416,1.709,IMU0,-0.0703125,0.0400390625,-1.4541015625,1.0975609756097562,2.073170731707317,1.0365853658536586
417,1.709,IMU1,-0.04296875,0.0517578125,-1.4931640625,-0.1829268292682927,1.524390243902439,0.7317073170731708
418,1.719,IMU0,-0.0361328125,0.0390625,-1.54296875,1.5853658536585367,-0.6097560975609757,0.7317073170731708
419,1.719,IMU1,-0.01953125,0.0498046875,-1.548828125,0.7317073170731708,-0.3658536585365854,0.426829268292683
420,1.729,IMU0,-0.0654296875,0.048828125,-1.4765625,0.853658536585366,-1.402439024390244,0.853658536585366
421,1.729,IMU1,-0.037109375,0.0546875,-1.52734375,-0.6097560975609757,-2.1341463414634148,0.6707317073170732
422,1.739,IMU0,-0.0595703125,0.0556640625,-1.4931640625,1.2195121951219514,-0.1829268292682927,0.6097560975609757
423,1.739,IMU1,-0.033203125,0.0654296875,-1.505859375,-0.06097560975609757,-0.5487804878048781,0.3658536585365854
424,1.749,IMU0,-0.0771484375,0.056640625,-1.4521484375,2.804878048780488,0.24390243902439027,1.1585365853658538
425,1.749,IMU1,-0.0478515625,0.06640625,-1.4755859375,1.0975609756097562,0.5487804878048781,0.853658536585366
426,1.759,IMU0,-0.044921875,0.0361328125,-1.5126953125,1.2804878048780488,0.6097560975609757,1.5853658536585367
427,1.759,IMU1,-0.0244140625,0.0498046875,-1.552734375,-0.30487804878048785,0.5487804878048781,1.3414634146341464
428,1.769,IMU0,-0.0576171875,0.0322265625,-1.4208984375,2.073170731707317,2.5,1.707317073170732
429,1.769,IMU1,-0.03125,0.0390625,-1.435546875,1.3414634146341464,1.9512195121951221,1.402439024390244
430,1.779,IMU0,-0.0283203125,0.0478515625,-1.5048828125,1.0365853658536586,0.30487804878048785,1.2195121951219514
431,1.779,IMU1,-0.0009765625,0.0556640625,-1.5546875,-0.6707317073170732,-0.24390243902439027,0.9756097560975611
432,1.789,IMU0,-0.0830078125,0.0498046875,-1.3759765625,3.2926829268292686,1.707317073170732,1.5853658536585367
433,1.789,IMU1,-0.052734375,0.0595703125,-1.3837890625,2.25609756097561,1.6463414634146343,1.3414634146341464
434,1.799,IMU0,-0.044921875,0.0419921875,-1.51953125,2.25609756097561,-0.30487804878048785,1.6463414634146343
435,1.799,IMU1,-0.021484375,0.0517578125,-1.5576171875,0.426829268292683,-0.7317073170731708,1.4634146341463417
436,1.809,IMU0,-0.0595703125,0.0283203125,-1.4443359375,2.378048780487805,1.5853658536585367,1.6463414634146343
437,1.809,IMU1,-0.0400390625,0.0361328125,-1.4609375,1.0975609756097562,1.402439024390244,1.4634146341463417
438,1.819,IMU0,-0.0556640625,0.03515625,-1.4580078125,2.804878048780488,1.707317073170732,0.9756097560975611
439,1.819,IMU1,-0.015625,0.0400390625,-1.501953125,0.7317073170731708,1.0365853658536586,0.7317073170731708
440,1.829,IMU0,-0.0556640625,0.03515625,-1.4580078125,2.804878048780488,1.707317073170732,0.9756097560975611
441,1.829,IMU1,-0.046875,0.0537109375,-1.4619140625,0.06097560975609757,1.5853658536585367,0.1829268292682927
442,1.839,IMU0,-0.044921875,0.029296875,-1.43359375,1.6463414634146343,0.3658536585365854,-0.06097560975609757
443,1.839,IMU1,-0.009765625,0.041015625,-1.4912109375,0.6097560975609757,-0.426829268292683,-0.24390243902439027
444,1.849,IMU0,-0.044921875,0.013671875,-1.4638671875,0.7926829268292683,-0.3658536585365854,-0.6707317073170732
445,1.849,IMU1,-0.03125,0.0205078125,-1.4658203125,-0.1829268292682927,-0.5487804878048781,-0.9146341463414634
446,1.859,IMU0,-0.056640625,0.0126953125,-1.38671875,0.12195121951219513,1.2195121951219514,-0.7926829268292683
447,1.859,IMU1,-0.017578125,0.0205078125,-1.4541015625,-1.3414634146341464,0.12195121951219513,-1.0975609756097562
448,1.869,IMU0,-0.0537109375,0.0234375,-1.4052734375,-2.804878048780488,0.9756097560975611,-1.524390243902439
449,1.869,IMU1,-0.033203125,0.033203125,-1.3974609375,-4.2682926829268295,1.7682926829268295,-1.7682926829268295
450,1.879,IMU0,-0.0478515625,0.03125,-1.3896484375,-4.451219512195122,1.1585365853658538,-1.4634146341463417
451,1.879,IMU1,-0.0224609375,0.0400390625,-1.4248046875,-5.853658536585367,0.7926829268292683,-1.8902439024390245
452,1.889,IMU0,-0.0283203125,0.037109375,-1.431640625,-4.817073170731708,0.0,-1.4634146341463417
453,1.889,IMU1,-0.005859375,0.046875,-1.4765625,-5.548780487804878,-0.9146341463414634,-1.829268292682927
454,1.899,IMU0,-0.0849609375,0.037109375,-1.3427734375,-1.3414634146341464,1.8902439024390245,-0.853658536585366
455,1.899,IMU1,-0.048828125,0.04296875,-1.361328125,-2.682926829268293,0.9756097560975611,-1.2195121951219514
456,1.909,IMU0,-0.0400390625,0.029296875,-1.42578125,-2.073170731707317,1.7682926829268295,-0.6707317073170732
457,1.909,IMU1,-0.0205078125,0.041015625,-1.46875,-4.024390243902439,1.5853658536585367,-1.0365853658536586
458,1.919,IMU0,-0.08984375,0.015625,-1.318359375,-1.8902439024390245,2.6219512195121952,-0.3658536585365854
459,1.919,IMU1,-0.060546875,0.0283203125,-1.318359375,-3.353658536585366,2.804878048780488,-0.6097560975609757
460,1.929,IMU0,-0.046875,0.01953125,-1.4287109375,-2.439024390243903,2.25609756097561,-0.24390243902439027
461,1.929,IMU1,-0.0185546875,0.025390625,-1.478515625,-5.060975609756098,2.073170731707317,-0.6097560975609757
462,1.939,IMU0,-0.083984375,0.0390625,-1.31640625,-3.2926829268292686,2.804878048780488,-0.1829268292682927
463,1.939,IMU1,-0.05078125,0.0458984375,-1.3271484375,-5.0,3.048780487804878,-0.426829268292683
464,1.949,IMU0,-0.0791015625,0.037109375,-1.353515625,-2.7439024390243905,1.829268292682927,0.426829268292683
465,1.949,IMU1,-0.0341796875,0.0478515625,-1.396484375,-4.2682926829268295,1.829268292682927,0.06097560975609757
466,1.959,IMU0,-0.0771484375,0.021484375,-1.3876953125,-3.8414634146341466,1.829268292682927,0.6097560975609757
467,1.959,IMU1,-0.072265625,0.03515625,-1.392578125,-4.695121951219512,2.0121951219512195,0.30487804878048785
468,1.969,IMU0,-0.0771484375,0.0146484375,-1.298828125,-2.804878048780488,4.329268292682928,0.7926829268292683
469,1.969,IMU1,-0.0400390625,0.0205078125,-1.3564453125,-4.085365853658537,3.231707317073171,0.24390243902439027
470,1.979,IMU0,-0.0419921875,0.0537109375,-1.376953125,-5.487804878048781,3.536585365853659,0.6707317073170732
471,1.979,IMU1,-0.01953125,0.05859375,-1.392578125,-6.402439024390245,3.353658536585366,0.24390243902439027
472,1.989,IMU0,-0.091796875,0.0654296875,-1.263671875,-2.1951219512195124,3.048780487804878,0.9146341463414634
473,1.989,IMU1,-0.056640625,0.076171875,-1.30078125,-4.573170731707317,2.0121951219512195,0.6097560975609757
474,1.999,IMU0,-0.0478515625,0.0478515625,-1.421875,0.5487804878048781,0.3658536585365854,0.5487804878048781
475,1.999,IMU1,-0.04296875,0.0634765625,-1.4296875,-1.524390243902439,0.24390243902439027,0.30487804878048785
476,2.009,IMU0,-0.083984375,0.03125,-1.29296875,2.378048780487805,1.8902439024390245,0.6097560975609757
477,2.009,IMU1,-0.056640625,0.037109375,-1.3505859375,0.3658536585365854,0.9146341463414634,0.24390243902439027
478,2.019,IMU0,-0.0537109375,0.044921875,-1.353515625,1.6463414634146343,2.682926829268293,0.6707317073170732
479,2.019,IMU1,-0.0263671875,0.048828125,-1.3876953125,-0.30487804878048785,2.25609756097561,0.3658536585365854
480,2.029,IMU0,-0.0888671875,0.0546875,-1.3125,1.9512195121951221,3.658536585365854,1.2195121951219514
481,2.029,IMU1,-0.0654296875,0.0634765625,-1.314453125,0.6707317073170732,3.9024390243902443,0.9756097560975611
482,2.039,IMU0,-0.048828125,0.0283203125,-1.3232421875,0.6707317073170732,2.682926829268293,1.0975609756097562
483,2.039,IMU1,-0.005859375,0.04296875,-1.392578125,-1.0975609756097562,1.524390243902439,0.7317073170731708
484,2.049,IMU0,-0.087890625,0.04296875,-1.341796875,0.7317073170731708,1.7682926829268295,0.853658536585366
485,2.049,IMU1,-0.07421875,0.044921875,-1.32421875,-0.9146341463414634,2.1951219512195124,0.7317073170731708
486,2.059,IMU0,-0.0859375,0.05078125,-1.2626953125,0.426829268292683,2.1951219512195124,1.402439024390244
487,2.059,IMU1,-0.025390625,0.0537109375,-1.3662109375,-0.9146341463414634,2.987804878048781,1.2195121951219514
488,2.069,IMU0,-0.1083984375,0.046875,-1.3173828125,1.2195121951219514,3.2926829268292686,1.707317073170732
489,2.069,IMU1,-0.1015625,0.0615234375,-1.2705078125,-0.06097560975609757,2.1341463414634148,1.3414634146341464
490,2.079,IMU0,-0.09765625,0.0478515625,-1.2890625,0.7926829268292683,3.780487804878049,1.6463414634146343
491,2.079,IMU1,-0.0634765625,0.0546875,-1.35546875,0.1829268292682927,4.146341463414634,1.2804878048780488
492,2.089,IMU0,-0.080078125,0.0439453125,-1.3076171875,2.073170731707317,4.146341463414634,2.0121951219512195
493,2.089,IMU1,-0.06640625,0.056640625,-1.33203125,1.402439024390244,4.451219512195122,1.6463414634146343
494,2.099,IMU0,-0.091796875,0.052734375,-1.248046875,1.8902439024390245,4.573170731707317,2.073170731707317
495,2.099,IMU1,-0.0556640625,0.0595703125,-1.3271484375,0.1829268292682927,2.804878048780488,1.6463414634146343
496,2.109,IMU0,-0.0478515625,0.04296875,-1.31640625,1.4634146341463417,1.524390243902439,2.0121951219512195
497,2.109,IMU1,-0.0458984375,0.0498046875,-1.2802734375,1.0975609756097562,1.829268292682927,1.829268292682927
498,2.119,IMU0,-0.109375,0.0498046875,-1.255859375,1.829268292682927,1.829268292682927,2.073170731707317
499,2.119,IMU1,-0.0537109375,0.0712890625,-1.3583984375,0.3658536585365854,0.30487804878048785,1.7682926829268295
500,2.129,IMU0,-0.0732421875,0.05078125,-1.318359375,1.829268292682927,1.6463414634146343,2.1951219512195124
501,2.129,IMU1,-0.087890625,0.0615234375,-1.244140625,1.4634146341463417,2.682926829268293,2.0121951219512195
502,2.139,IMU0,-0.115234375,0.0615234375,-1.2197265625,0.9146341463414634,3.353658536585366,1.5853658536585367
503,2.139,IMU1,-0.05859375,0.05859375,-1.34765625,-0.853658536585366,1.829268292682927,1.2804878048780488
504,2.149,IMU0,-0.0732421875,0.041015625,-1.2939453125,2.1341463414634148,2.25609756097561,1.524390243902439
505,2.149,IMU1,-0.060546875,0.0517578125,-1.2802734375,0.426829268292683,2.7439024390243905,1.4634146341463417
506,2.159,IMU0,-0.0732421875,0.0458984375,-1.314453125,0.9146341463414634,1.3414634146341464,1.0975609756097562
507,2.159,IMU1,-0.03125,0.060546875,-1.337890625,-0.24390243902439027,1.2195121951219514,0.7926829268292683
508,2.169,IMU0,-0.099609375,0.068359375,-1.248046875,1.4634146341463417,3.353658536585366,1.2804878048780488
509,2.169,IMU1,-0.083984375,0.080078125,-1.2890625,-0.12195121951219513,3.231707317073171,1.0365853658536586
510,2.179,IMU0,-0.072265625,0.0615234375,-1.36328125,2.25609756097561,3.1097560975609757,0.9146341463414634
511,2.179,IMU1,-0.02734375,0.0556640625,-1.37890625,-0.24390243902439027,2.7439024390243905,0.7926829268292683
512,2.189,IMU0,-0.0986328125,0.0478515625,-1.271484375,1.8902439024390245,4.695121951219512,0.9756097560975611
513,2.189,IMU1,-0.068359375,0.0634765625,-1.341796875,-0.6097560975609757,4.207317073170732,0.7317073170731708
514,2.199,IMU0,-0.052734375,0.0498046875,-1.376953125,2.3170731707317076,2.1341463414634148,0.7926829268292683
515,2.199,IMU1,-0.0546875,0.0634765625,-1.3251953125,0.30487804878048785,3.414634146341464,0.7317073170731708
516,2.209,IMU0,-0.1015625,0.064453125,-1.2763671875,1.7682926829268295,3.1707317073170733,0.9146341463414634
517,2.209,IMU1,-0.0439453125,0.0673828125,-1.380859375,0.06097560975609757,1.829268292682927,0.3658536585365854
518,2.219,IMU0,-0.0673828125,0.0517578125,-1.330078125,1.524390243902439,0.7317073170731708,0.9756097560975611
519,2.219,IMU1,-0.056640625,0.0712890625,-1.32421875,0.853658536585366,0.9146341463414634,0.6707317073170732
520,2.229,IMU0,-0.078125,0.0625,-1.3388671875,1.2804878048780488,1.524390243902439,1.2195121951219514
521,2.229,IMU1,-0.0341796875,0.068359375,-1.3623046875,0.6097560975609757,1.5853658536585367,0.853658536585366
522,2.239,IMU0,-0.1044921875,0.068359375,-1.2470703125,1.9512195121951221,3.4756097560975614,1.0365853658536586
523,2.239,IMU1,-0.083984375,0.076171875,-1.3017578125,0.426829268292683,3.1707317073170733,0.7926829268292683
524,2.249,IMU0,-0.0595703125,0.06640625,-1.376953125,2.6219512195121952,0.9146341463414634,0.426829268292683
525,2.249,IMU1,-0.0224609375,0.0673828125,-1.384765625,0.6707317073170732,1.402439024390244,0.24390243902439027
526,2.259,IMU0,-0.0830078125,0.044921875,-1.2470703125,3.4756097560975614,1.524390243902439,-0.06097560975609757
527,2.259,IMU1,-0.056640625,0.064453125,-1.310546875,1.8902439024390245,1.4634146341463417,-0.5487804878048781
528,2.269,IMU0,-0.0625,0.0625,-1.3505859375,2.25609756097561,0.1829268292682927,-0.30487804878048785
529,2.269,IMU1,-0.0634765625,0.072265625,-1.3203125,0.5487804878048781,1.0975609756097562,-0.48780487804878053
530,2.279,IMU0,-0.0986328125,0.0595703125,-1.279296875,2.8658536585365857,1.9512195121951221,-1.0975609756097562
531,2.279,IMU1,-0.046875,0.0625,-1.365234375,-0.12195121951219513,1.2804878048780488,-1.4634146341463417
532,2.289,IMU0,-0.0947265625,0.0634765625,-1.296875,2.25609756097561,3.414634146341464,-0.6707317073170732
533,2.289,IMU1,-0.0703125,0.0810546875,-1.30859375,0.30487804878048785,3.658536585365854,-0.9146341463414634
534,2.299,IMU0,-0.0595703125,0.064453125,-1.3173828125,1.1585365853658538,2.0121951219512195,-0.6097560975609757
535,2.299,IMU1,-0.0244140625,0.06640625,-1.3232421875,0.3658536585365854,1.7682926829268295,-0.9146341463414634
536,2.309,IMU0,-0.107421875,0.0634765625,-1.2314453125,2.987804878048781,0.6707317073170732,-0.5487804878048781
537,2.309,IMU1,-0.076171875,0.080078125,-1.3330078125,0.6097560975609757,-0.6097560975609757,-0.853658536585366
538,2.319,IMU0,-0.0576171875,0.0546875,-1.376953125,2.25609756097561,-2.378048780487805,-0.6707317073170732
539,2.319,IMU1,-0.0546875,0.0673828125,-1.33203125,0.426829268292683,-1.4634146341463417,-0.7317073170731708
540,2.329,IMU0,-0.1240234375,0.0693359375,-1.2451171875,2.1341463414634148,0.7317073170731708,0.24390243902439027
541,2.329,IMU1,-0.0849609375,0.0810546875,-1.3349609375,0.30487804878048785,0.48780487804878053,-0.1829268292682927
542,2.339,IMU0,-0.0888671875,0.064453125,-1.2978515625,1.1585365853658538,1.1585365853658538,0.48780487804878053
543,2.339,IMU1,-0.0712890625,0.0693359375,-1.28515625,0.30487804878048785,1.5853658536585367,0.1829268292682927
544,2.349,IMU0,-0.076171875,0.0576171875,-1.30078125,1.5853658536585367,1.6463414634146343,0.7926829268292683
545,2.349,IMU1,-0.0234375,0.064453125,-1.353515625,-0.3658536585365854,1.7682926829268295,0.426829268292683
546,2.359,IMU0,-0.0810546875,0.0634765625,-1.26171875,1.707317073170732,2.5,1.0365853658536586
547,2.359,IMU1,-0.05859375,0.0859375,-1.287109375,0.1829268292682927,1.9512195121951221,0.6707317073170732
548,2.369,IMU0,-0.04296875,0.0703125,-1.26953125,1.0975609756097562,1.1585365853658538,0.6097560975609757
549,2.369,IMU1,-0.0361328125,0.068359375,-1.2578125,-0.5487804878048781,1.2195121951219514,0.426829268292683
550,2.379,IMU0,-0.1064453125,0.056640625,-1.263671875,2.987804878048781,2.0121951219512195,0.3658536585365854
551,2.379,IMU1,-0.046875,0.06640625,-1.3759765625,0.48780487804878053,1.1585365853658538,0.06097560975609757
552,2.389,IMU0,-0.04296875,0.068359375,-1.275390625,1.8902439024390245,2.0121951219512195,0.1829268292682927
553,2.389,IMU1,-0.05078125,0.080078125,-1.2080078125,0.48780487804878053,3.048780487804878,0.0
554,2.399,IMU0,-0.0673828125,0.0732421875,-1.24609375,3.1097560975609757,1.9512195121951221,0.06097560975609757
555,2.399,IMU1,-0.015625,0.0791015625,-1.3486328125,1.3414634146341464,1.1585365853658538,-0.30487804878048785
556,2.409,IMU0,-0.0556640625,0.064453125,-1.234375,2.804878048780488,1.1585365853658538,-0.06097560975609757
557,2.409,IMU1,-0.0380859375,0.0654296875,-1.2431640625,1.4634146341463417,0.853658536585366,-0.3658536585365854
558,2.419,IMU0,-0.046875,0.0498046875,-1.318359375,2.5609756097560976,0.6707317073170732,-0.3658536585365854
559,2.419,IMU1,-0.029296875,0.0703125,-1.3359375,1.402439024390244,0.6707317073170732,-0.5487804878048781
560,2.429,IMU0,-0.083984375,0.0908203125,-1.275390625,2.804878048780488,1.829268292682927,-0.426829268292683
561,2.429,IMU1,-0.0419921875,0.09375,-1.330078125,1.0975609756097562,1.2804878048780488,-0.7317073170731708
562,2.439,IMU0,-0.0712890625,0.0517578125,-1.24609375,4.024390243902439,3.048780487804878,-0.06097560975609757
563,2.439,IMU1,-0.060546875,0.0615234375,-1.2890625,1.7682926829268295,2.8658536585365857,-0.1829268292682927
564,2.449,IMU0,-0.041015625,0.0576171875,-1.373046875,2.987804878048781,0.6097560975609757,-0.426829268292683
565,2.449,IMU1,0.0029296875,0.068359375,-1.38671875,0.7926829268292683,0.5487804878048781,-0.6097560975609757
566,2.459,IMU0,-0.0791015625,0.0693359375,-1.2021484375,3.1707317073170733,1.8902439024390245,0.12195121951219513
567,2.459,IMU1,-0.0595703125,0.08203125,-1.267578125,0.24390243902439027,2.0121951219512195,0.06097560975609757
568,2.469,IMU0,-0.05859375,0.0654296875,-1.349609375,0.426829268292683,-0.6707317073170732,0.853658536585366
569,2.469,IMU1,-0.05078125,0.0703125,-1.3408203125,-1.829268292682927,-0.426829268292683,0.7926829268292683
570,2.479,IMU0,-0.064453125,0.0576171875,-1.29296875,1.829268292682927,0.7317073170731708,1.402439024390244
571,2.479,IMU1,-0.029296875,0.06640625,-1.3662109375,-0.6097560975609757,0.426829268292683,1.2195121951219514
572,2.489,IMU0,-0.080078125,0.0849609375,-1.271484375,2.0121951219512195,0.853658536585366,1.829268292682927
573,2.489,IMU1,-0.05859375,0.09375,-1.2978515625,-0.5487804878048781,0.48780487804878053,1.524390243902439
574,2.499,IMU0,-0.0390625,0.056640625,-1.2958984375,2.9268292682926833,-1.2195121951219514,1.7682926829268295
575,2.499,IMU1,-0.0380859375,0.0615234375,-1.3017578125,0.7926829268292683,-1.1585365853658538,1.707317073170732
576,2.509,IMU0,-0.0986328125,0.0712890625,-1.3154296875,1.402439024390244,-0.30487804878048785,1.5853658536585367
577,2.509,IMU1,-0.056640625,0.080078125,-1.3759765625,-0.30487804878048785,-1.0975609756097562,1.2195121951219514
578,2.519,IMU0,-0.111328125,0.052734375,-1.1982421875,2.073170731707317,2.6219512195121952,1.8902439024390245
579,2.519,IMU1,-0.1064453125,0.0595703125,-1.2041015625,1.2804878048780488,2.8658536585365857,1.4634146341463417
580,2.529,IMU0,-0.046875,0.07421875,-1.36328125,0.7317073170731708,2.7439024390243905,1.4634146341463417
581,2.529,IMU1,0.0029296875,0.083984375,-1.4140625,-1.2195121951219514,2.1951219512195124,1.1585365853658538
582,2.539,IMU0,-0.064453125,0.06640625,-1.193359375,1.8902439024390245,3.2926829268292686,1.4634146341463417
583,2.539,IMU1,-0.044921875,0.07421875,-1.21484375,0.426829268292683,3.048780487804878,1.0975609756097562
584,2.549,IMU0,-0.0478515625,0.0712890625,-1.2861328125,1.4634146341463417,-0.24390243902439027,1.2195121951219514
585,2.549,IMU1,-0.0341796875,0.08203125,-1.3017578125,0.1829268292682927,-0.3658536585365854,0.9756097560975611
586,2.559,IMU0,-0.0576171875,0.0615234375,-1.2783203125,2.0121951219512195,-1.5853658536585367,0.6097560975609757
587,2.559,IMU1,-0.0185546875,0.0625,-1.3115234375,-0.06097560975609757,-1.524390243902439,0.3658536585365854
588,2.569,IMU0,-0.0947265625,0.076171875,-1.2392578125,2.5,0.30487804878048785,0.48780487804878053
589,2.569,IMU1,-0.0703125,0.09765625,-1.2646484375,1.2195121951219514,0.12195121951219513,0.12195121951219513
590,2.579,IMU0,-0.041015625,0.072265625,-1.2685546875,2.439024390243903,1.0975609756097562,0.6097560975609757
591,2.579,IMU1,-0.0263671875,0.0732421875,-1.265625,0.9146341463414634,1.0975609756097562,0.30487804878048785
592,2.589,IMU0,-0.068359375,0.0576171875,-1.2626953125,1.3414634146341464,-0.48780487804878053,0.24390243902439027
593,2.589,IMU1,-0.0234375,0.0703125,-1.3466796875,-0.9146341463414634,-1.8902439024390245,-0.06097560975609757
594,2.599,IMU0,-0.060546875,0.0673828125,-1.2041015625,3.353658536585366,1.1585365853658538,0.24390243902439027
595,2.599,IMU1,-0.0537109375,0.078125,-1.169921875,2.073170731707317,1.2195121951219514,0.0
596,2.609,IMU0,-0.0595703125,0.0625,-1.29296875,1.3414634146341464,1.3414634146341464,0.1829268292682927
597,2.609,IMU1,-0.0166015625,0.0693359375,-1.3544921875,-0.24390243902439027,0.24390243902439027,-0.1829268292682927
598,2.619,IMU0,-0.0634765625,0.056640625,-1.1953125,2.8658536585365857,2.7439024390243905,0.24390243902439027
599,2.619,IMU1,-0.0400390625,0.0654296875,-1.2216796875,2.073170731707317,2.1951219512195124,-0.1829268292682927
600,2.629,IMU0,-0.0673828125,0.0576171875,-1.2265625,2.6219512195121952,2.5609756097560976,0.3658536585365854
601,2.629,IMU1,-0.0576171875,0.0751953125,-1.2353515625,1.1585365853658538,2.9268292682926833,0.06097560975609757
602,2.639,IMU0,-0.044921875,0.037109375,-1.251953125,-0.12195121951219513,1.8902439024390245,0.1829268292682927
603,2.639,IMU1,-0.0048828125,0.037109375,-1.2890625,-0.9146341463414634,1.1585365853658538,-0.1829268292682927
604,2.649,IMU0,-0.0771484375,0.0078125,-1.171875,-6.7682926829268295,0.3658536585365854,0.24390243902439027
605,2.649,IMU1,-0.05078125,0.021484375,-1.216796875,-8.048780487804878,1.8902439024390245,0.12195121951219513
606,2.659,IMU0,-0.0224609375,0.0244140625,-1.236328125,-10.30487804878049,1.1585365853658538,1.0975609756097562
607,2.659,IMU1,-0.0185546875,0.0341796875,-1.208984375,-12.560975609756099,0.6097560975609757,0.6707317073170732
608,2.669,IMU0,-0.0771484375,0.01953125,-1.1962890625,-18.29268292682927,-0.06097560975609757,1.4634146341463417
609,2.669,IMU1,-0.0380859375,0.0283203125,-1.2666015625,-18.53658536585366,0.6097560975609757,0.9756097560975611
610,2.679,IMU0,-0.08203125,0.029296875,-1.1884765625,-20.243902439024392,2.0121951219512195,1.402439024390244
611,2.679,IMU1,-0.0615234375,0.037109375,-1.193359375,-22.80487804878049,2.439024390243903,1.3414634146341464
612,2.689,IMU0,-0.0390625,-0.001953125,-1.208984375,-24.81707317073171,3.536585365853659,1.402439024390244
613,2.689,IMU1,-0.03125,0.0107421875,-1.2080078125,-26.52439024390244,3.414634146341464,1.0365853658536586
614,2.699,IMU0,-0.0634765625,0.029296875,-1.220703125,-29.32926829268293,1.9512195121951221,1.3414634146341464
615,2.699,IMU1,-0.02734375,0.033203125,-1.2724609375,-31.34146341463415,1.5853658536585367,0.9146341463414634
616,2.709,IMU0,-0.060546875,0.046875,-1.20703125,-29.26829268292683,1.524390243902439,1.402439024390244
617,2.709,IMU1,-0.044921875,0.04296875,-1.1689453125,-30.365853658536587,1.8902439024390245,1.0365853658536586
618,2.719,IMU0,-0.0732421875,0.0322265625,-1.1396484375,-29.695121951219516,1.3414634146341464,1.3414634146341464
619,2.719,IMU1,-0.0048828125,0.0498046875,-1.287109375,-31.34146341463415,2.25609756097561,0.9146341463414634
620,2.729,IMU0,-0.0341796875,0.0380859375,-1.2685546875,-27.682926829268297,-0.30487804878048785,1.2195121951219514
621,2.729,IMU1,-0.0576171875,0.044921875,-1.1787109375,-29.02439024390244,-0.3658536585365854,0.7926829268292683
622,2.739,IMU0,-0.0849609375,0.0439453125,-1.123046875,-24.207317073170735,1.829268292682927,1.402439024390244
623,2.739,IMU1,-0.01953125,0.0419921875,-1.2783203125,-25.914634146341466,2.5,1.0365853658536586
624,2.749,IMU0,-0.046875,0.0234375,-1.21875,-24.634146341463417,1.0975609756097562,1.0975609756097562
625,2.749,IMU1,-0.037109375,0.037109375,-1.2041015625,-26.03658536585366,1.2804878048780488,0.7317073170731708
626,2.759,IMU0,-0.0283203125,-0.0009765625,-1.185546875,-23.353658536585368,1.8902439024390245,0.6707317073170732
627,2.759,IMU1,0.005859375,0.0068359375,-1.2255859375,-24.512195121951223,1.8902439024390245,0.1829268292682927
628,2.769,IMU0,-0.0615234375,0.0068359375,-1.1220703125,-24.75609756097561,1.0365853658536586,0.7926829268292683
629,2.769,IMU1,-0.044921875,0.017578125,-1.140625,-25.60975609756098,1.0365853658536586,0.30487804878048785
630,2.779,IMU0,-0.021484375,0.0029296875,-1.22265625,-24.390243902439025,-0.24390243902439027,0.6097560975609757
631,2.779,IMU1,0.009765625,0.0087890625,-1.2568359375,-26.28048780487805,-0.12195121951219513,0.1829268292682927
632,2.789,IMU0,-0.06640625,0.0166015625,-1.1318359375,-23.84146341463415,0.7317073170731708,0.6097560975609757
633,2.789,IMU1,-0.041015625,0.02734375,-1.1748046875,-25.731707317073173,1.0365853658536586,0.1829268292682927
634,2.799,IMU0,-0.013671875,0.0009765625,-1.16015625,-20.365853658536587,0.9146341463414634,0.48780487804878053
635,2.799,IMU1,0.0,0.0078125,-1.171875,-21.28048780487805,0.853658536585366,0.12195121951219513
636,2.809,IMU0,-0.0390625,0.0029296875,-1.1591796875,-18.475609756097562,-0.5487804878048781,0.6097560975609757
637,2.809,IMU1,0.0009765625,0.01171875,-1.2255859375,-20.0,-1.2804878048780488,0.24390243902439027
638,2.819,IMU0,-0.037109375,-0.00390625,-1.1376953125,-14.756097560975611,-0.7317073170731708,1.0975609756097562
639,2.819,IMU1,-0.0185546875,0.0048828125,-1.1318359375,-15.487804878048783,-1.402439024390244,0.6707317073170732
640,2.829,IMU0,-0.0625,-0.017578125,-1.162109375,-14.390243902439027,0.12195121951219513,1.2804878048780488
641,2.829,IMU1,-0.0283203125,-0.01171875,-1.2041015625,-15.79268292682927,-0.06097560975609757,0.7926829268292683
642,2.839,IMU0,-0.041015625,-0.0166015625,-1.119140625,-13.536585365853659,1.5853658536585367,1.707317073170732
643,2.839,IMU1,-0.017578125,-0.0107421875,-1.15234375,-15.121951219512196,1.707317073170732,1.3414634146341464
644,2.849,IMU0,-0.015625,-0.021484375,-1.1357421875,-12.865853658536587,0.24390243902439027,1.3414634146341464
645,2.849,IMU1,0.0009765625,-0.0126953125,-1.1533203125,-14.02439024390244,0.30487804878048785,0.9146341463414634
646,2.859,IMU0,-0.052734375,0.0068359375,-1.1396484375,-9.817073170731708,0.1829268292682927,1.0975609756097562
647,2.859,IMU1,-0.0224609375,0.013671875,-1.189453125,-11.097560975609756,0.12195121951219513,0.6707317073170732
648,2.869,IMU0,-0.0634765625,-0.033203125,-1.1005859375,-5.914634146341464,1.3414634146341464,1.1585365853658538
649,2.869,IMU1,-0.0478515625,-0.025390625,-1.1220703125,-7.317073170731708,1.9512195121951221,0.7317073170731708
650,2.879,IMU0,-0.0146484375,-0.005859375,-1.1962890625,-6.463414634146342,1.2804878048780488,0.6097560975609757
651,2.879,IMU1,0.0166015625,0.001953125,-1.240234375,-7.073170731707318,1.4634146341463417,0.1829268292682927
652,2.889,IMU0,-0.0693359375,-0.0166015625,-1.044921875,-1.402439024390244,2.1951219512195124,0.0
653,2.889,IMU1,-0.0537109375,-0.0078125,-1.0625,-2.3170731707317076,2.25609756097561,-0.426829268292683
654,2.899,IMU0,-0.0009765625,-0.02734375,-1.21875,0.6097560975609757,-0.7926829268292683,-0.6097560975609757
655,2.899,IMU1,0.033203125,-0.017578125,-1.263671875,-0.853658536585366,-1.2195121951219514,-0.9146341463414634
656,2.909,IMU0,-0.064453125,-0.021484375,-1.072265625,3.048780487804878,0.5487804878048781,-0.5487804878048781
657,2.909,IMU1,-0.04296875,-0.0126953125,-1.08984375,1.2195121951219514,0.9146341463414634,-0.7926829268292683
658,2.919,IMU0,-0.0361328125,-0.01953125,-1.1826171875,3.1097560975609757,0.06097560975609757,-0.426829268292683
659,2.919,IMU1,-0.01171875,-0.01171875,-1.2119140625,1.524390243902439,0.30487804878048785,-0.6707317073170732
660,2.929,IMU0,-0.0283203125,-0.041015625,-1.1611328125,3.414634146341464,0.9756097560975611,-0.30487804878048785
661,2.929,IMU1,0.00390625,-0.03515625,-1.197265625,1.0365853658536586,1.0975609756097562,-0.6097560975609757
662,2.939,IMU0,-0.0400390625,-0.021484375,-1.1357421875,2.9268292682926833,2.439024390243903,0.3658536585365854
663,2.939,IMU1,-0.0166015625,-0.01171875,-1.1533203125,1.6463414634146343,2.1951219512195124,0.0
664,2.949,IMU0,-0.009765625,-0.0263671875,-1.1865234375,2.439024390243903,0.9146341463414634,0.426829268292683
665,2.949,IMU1,0.017578125,-0.0205078125,-1.21875,0.6707317073170732,0.6097560975609757,0.12195121951219513
666,2.959,IMU0,-0.044921875,-0.005859375,-1.22265625,2.439024390243903,1.3414634146341464,0.5487804878048781
667,2.959,IMU1,-0.01171875,0.0029296875,-1.2666015625,0.6707317073170732,1.5853658536585367,0.1829268292682927
668,2.969,IMU0,-0.05078125,-0.03125,-1.1171875,3.1707317073170733,3.780487804878049,1.0975609756097562
669,2.969,IMU1,-0.03125,-0.021484375,-1.1318359375,1.402439024390244,3.5975609756097566,0.7926829268292683
670,2.979,IMU0,0.005859375,-0.0166015625,-1.30078125,2.6219512195121952,1.9512195121951221,0.6707317073170732
671,2.979,IMU1,0.0390625,-0.0078125,-1.34765625,1.2804878048780488,0.9146341463414634,0.30487804878048785
672,2.989,IMU0,-0.0439453125,-0.02734375,-1.1455078125,2.378048780487805,2.378048780487805,0.3658536585365854
673,2.989,IMU1,-0.017578125,-0.01953125,-1.1708984375,1.0975609756097562,2.1341463414634148,0.0
674,2.999,IMU0,-0.0263671875,-0.005859375,-1.2265625,3.1707317073170733,1.1585365853658538,-0.24390243902439027
675,2.999,IMU1,-0.001953125,0.0029296875,-1.2568359375,0.6707317073170732,1.2195121951219514,-0.48780487804878053
676,3.009,IMU0,-0.0166015625,-0.03125,-1.2490234375,1.707317073170732,1.524390243902439,0.24390243902439027
677,3.009,IMU1,0.01171875,-0.021484375,-1.2890625,0.3658536585365854,1.2195121951219514,-0.12195121951219513
678,3.019,IMU0,-0.052734375,0.0029296875,-1.2099609375,1.8902439024390245,1.9512195121951221,0.426829268292683
679,3.019,IMU1,-0.0263671875,0.0107421875,-1.23828125,-0.1829268292682927,2.1951219512195124,0.30487804878048785
680,3.029,IMU0,-0.0341796875,-0.013671875,-1.1875,3.4756097560975614,1.7682926829268295,0.6097560975609757
681,3.029,IMU1,-0.0087890625,-0.005859375,-1.2158203125,0.853658536585366,2.5609756097560976,0.3658536585365854
682,3.039,IMU0,0.005859375,-0.0107421875,-1.283203125,3.231707317073171,0.5487804878048781,0.9146341463414634
683,3.039,IMU1,0.0361328125,-0.001953125,-1.328125,1.1585365853658538,0.06097560975609757,0.7317073170731708
684,3.049,IMU0,-0.0693359375,-0.0087890625,-1.1630859375,3.353658536585366,3.780487804878049,1.524390243902439
685,3.049,IMU1,-0.0478515625,0.0009765625,-1.181640625,2.7439024390243905,3.5975609756097566,1.0975609756097562
686,3.059,IMU0,-0.005859375,-0.017578125,-1.2197265625,2.439024390243903,2.3170731707317076,0.853658536585366
687,3.059,IMU1,0.0224609375,-0.0078125,-1.2509765625,0.853658536585366,1.6463414634146343,0.5487804878048781
688,3.069,IMU0,-0.017578125,-0.02734375,-1.2646484375,1.0365853658536586,1.829268292682927,0.48780487804878053
689,3.069,IMU1,0.009765625,-0.0166015625,-1.294921875,-0.1829268292682927,1.1585365853658538,0.24390243902439027
690,3.079,IMU0,-0.0419921875,-0.0087890625,-1.1748046875,0.12195121951219513,1.707317073170732,0.06097560975609757
691,3.079,IMU1,-0.017578125,-0.0009765625,-1.201171875,-1.5853658536585367,1.402439024390244,-0.12195121951219513
692,3.089,IMU0,-0.033203125,-0.0078125,-1.2197265625,1.402439024390244,0.24390243902439027,0.24390243902439027
693,3.089,IMU1,-0.0068359375,0.0,-1.248046875,-0.24390243902439027,-0.06097560975609757,0.0
694,3.099,IMU0,-0.0146484375,-0.0009765625,-1.224609375,1.402439024390244,0.426829268292683,0.30487804878048785
695,3.099,IMU1,0.013671875,0.0078125,-1.2607421875,-0.7926829268292683,0.30487804878048785,0.0
696,3.109,IMU0,-0.048828125,0.0078125,-1.2236328125,3.048780487804878,1.829268292682927,1.1585365853658538
697,3.109,IMU1,-0.0263671875,0.0146484375,-1.2509765625,0.6707317073170732,1.829268292682927,0.9756097560975611
698,3.119,IMU0,-0.0390625,-0.0078125,-1.134765625,3.658536585365854,3.2926829268292686,0.853658536585366
699,3.119,IMU1,-0.0126953125,0.001953125,-1.15625,1.4634146341463417,2.9268292682926833,0.6097560975609757
700,3.129,IMU0,0.001953125,-0.0068359375,-1.2841796875,2.3170731707317076,1.0975609756097562,0.7317073170731708
701,3.129,IMU1,0.02734375,0.0029296875,-1.330078125,0.426829268292683,0.30487804878048785,0.48780487804878053
702,3.139,IMU0,-0.0390625,-0.0126953125,-1.140625,2.9268292682926833,0.7317073170731708,0.6097560975609757
703,3.139,IMU1,-0.0166015625,-0.0068359375,-1.1494140625,0.5487804878048781,0.5487804878048781,0.48780487804878053
704,3.149,IMU0,-0.0390625,0.0068359375,-1.1943359375,1.0975609756097562,-0.6097560975609757,0.3658536585365854
705,3.149,IMU1,-0.0126953125,0.0166015625,-1.2412109375,-1.4634146341463417,-0.9146341463414634,0.24390243902439027
706,3.159,IMU0,-0.0205078125,-0.0009765625,-1.248046875,2.1341463414634148,0.6097560975609757,0.1829268292682927
707,3.159,IMU1,0.005859375,0.0078125,-1.27734375,0.06097560975609757,0.9756097560975611,0.0
708,3.169,IMU0,-0.048828125,0.0224609375,-1.1357421875,2.3170731707317076,2.25609756097561,0.9756097560975611
709,3.169,IMU1,-0.025390625,0.0322265625,-1.1572265625,0.5487804878048781,2.25609756097561,0.853658536585366
710,3.179,IMU0,-0.0341796875,-0.0048828125,-1.189453125,3.780487804878049,0.24390243902439027,1.1585365853658538
711,3.179,IMU1,-0.005859375,0.0029296875,-1.216796875,2.0121951219512195,0.24390243902439027,0.9756097560975611
712,3.189,IMU0,-0.001953125,-0.00390625,-1.2060546875,2.25609756097561,-1.707317073170732,1.2804878048780488
713,3.189,IMU1,0.0283203125,0.0048828125,-1.2490234375,0.24390243902439027,-1.8902439024390245,1.0975609756097562
714,3.199,IMU0,-0.0537109375,-0.0029296875,-1.177734375,2.804878048780488,-0.853658536585366,1.5853658536585367
715,3.199,IMU1,-0.0390625,0.00390625,-1.1787109375,0.426829268292683,-0.1829268292682927,1.5853658536585367
716,3.209,IMU0,-0.0556640625,-0.0068359375,-1.15234375,2.7439024390243905,-0.853658536585366,1.0365853658536586
717,3.209,IMU1,-0.021484375,0.0009765625,-1.2021484375,-0.48780487804878053,-0.6097560975609757,1.0365853658536586
718,3.219,IMU0,-0.0263671875,0.0244140625,-1.2490234375,1.7682926829268295,0.5487804878048781,0.6097560975609757
719,3.219,IMU1,-0.005859375,0.0322265625,-1.2822265625,-0.06097560975609757,0.426829268292683,0.3658536585365854
720,3.229,IMU0,-0.0693359375,0.0068359375,-1.1279296875,2.1951219512195124,2.5,1.0975609756097562
721,3.229,IMU1,-0.05078125,0.015625,-1.1357421875,1.2195121951219514,2.3170731707317076,0.853658536585366
722,3.239,IMU0,-0.0185546875,0.0126953125,-1.1669921875,2.804878048780488,1.4634146341463417,0.7317073170731708
723,3.239,IMU1,0.015625,0.0205078125,-1.2177734375,0.9756097560975611,0.9756097560975611,0.426829268292683
724,3.249,IMU0,-0.005859375,-0.0166015625,-1.1689453125,2.682926829268293,0.06097560975609757,0.30487804878048785
725,3.249,IMU1,0.013671875,-0.001953125,-1.1884765625,1.2195121951219514,0.0,0.0
726,3.259,IMU0,-0.0302734375,-0.005859375,-1.1337890625,0.6707317073170732,1.402439024390244,0.426829268292683
727,3.259,IMU1,-0.0126953125,0.0009765625,-1.1640625,-0.426829268292683,1.0975609756097562,0.12195121951219513
728,3.269,IMU0,-0.0625,0.00390625,-1.07421875,1.7682926829268295,2.3170731707317076,0.3658536585365854
729,3.269,IMU1,-0.0263671875,0.009765625,-1.1005859375,0.7317073170731708,2.3170731707317076,-0.12195121951219513
730,3.279,IMU0,-0.005859375,0.009765625,-1.1669921875,1.6463414634146343,0.7317073170731708,0.06097560975609757
731,3.279,IMU1,0.01171875,0.021484375,-1.208984375,-0.1829268292682927,0.3658536585365854,-0.24390243902439027
732,3.289,IMU0,-0.05859375,0.01953125,-1.041015625,1.4634146341463417,2.073170731707317,0.5487804878048781
733,3.289,IMU1,-0.0341796875,0.025390625,-1.0498046875,0.6097560975609757,2.378048780487805,0.1829268292682927
734,3.299,IMU0,-0.0048828125,0.0029296875,-1.1064453125,2.682926829268293,0.48780487804878053,0.24390243902439027
735,3.299,IMU1,0.0263671875,0.017578125,-1.1640625,0.7317073170731708,0.426829268292683,0.0
736,3.309,IMU0,-0.021484375,-0.0048828125,-1.1103515625,1.7682926829268295,0.426829268292683,-0.12195121951219513
737,3.309,IMU1,-0.0029296875,0.00390625,-1.1103515625,0.0,0.24390243902439027,-0.30487804878048785
738,3.319,IMU0,-0.037109375,0.0146484375,-1.013671875,2.9268292682926833,1.0365853658536586,0.12195121951219513
739,3.319,IMU1,-0.0078125,0.0224609375,-1.0576171875,0.3658536585365854,0.9756097560975611,-0.06097560975609757
740,3.329,IMU0,-0.001953125,0.0107421875,-1.107421875,1.7682926829268295,-1.2195121951219514,0.1829268292682927
741,3.329,IMU1,0.0224609375,0.0224609375,-1.1416015625,-0.48780487804878053,-0.6707317073170732,-0.06097560975609757
742,3.339,IMU0,-0.009765625,0.0224609375,-1.0556640625,3.231707317073171,-0.6707317073170732,0.30487804878048785
743,3.339,IMU1,0.009765625,0.0322265625,-1.080078125,1.0975609756097562,-0.30487804878048785,0.1829268292682927
744,3.349,IMU0,-0.04296875,-0.001953125,-1.021484375,2.3170731707317076,-0.30487804878048785,0.24390243902439027
745,3.349,IMU1,-0.0126953125,0.0048828125,-1.041015625,0.7926829268292683,-0.30487804878048785,-0.06097560975609757
746,3.359,IMU0,0.0,0.005859375,-1.1044921875,1.829268292682927,-1.1585365853658538,0.12195121951219513
747,3.359,IMU1,0.0185546875,0.0146484375,-1.142578125,0.426829268292683,-1.2804878048780488,-0.12195121951219513
748,3.369,IMU0,-0.0546875,0.009765625,-1.04296875,0.9756097560975611,0.9756097560975611,0.7317073170731708
749,3.369,IMU1,-0.0322265625,0.0107421875,-1.0478515625,0.3658536585365854,0.9146341463414634,0.426829268292683
750,3.379,IMU0,-0.021484375,0.0224609375,-1.0029296875,1.707317073170732,3.4756097560975614,0.853658536585366
751,3.379,IMU1,0.02734375,0.03125,-1.0673828125,0.1829268292682927,3.048780487804878,0.426829268292683
752,3.389,IMU0,0.001953125,0.0224609375,-1.1123046875,1.4634146341463417,2.6219512195121952,0.6097560975609757
753,3.389,IMU1,0.013671875,0.0322265625,-1.1123046875,0.426829268292683,2.5,0.3658536585365854
754,3.399,IMU0,-0.046875,0.0205078125,-0.97265625,1.524390243902439,4.878048780487806,1.2195121951219514
755,3.399,IMU1,-0.0126953125,0.025390625,-1.009765625,0.5487804878048781,3.7195121951219514,0.6707317073170732
756,3.409,IMU0,0.005859375,0.0078125,-1.08984375,1.829268292682927,3.1097560975609757,1.1585365853658538
757,3.409,IMU1,-0.0009765625,0.01953125,-1.0439453125,0.426829268292683,2.987804878048781,1.0975609756097562
758,3.419,IMU0,-0.021484375,0.015625,-1.0439453125,1.7682926829268295,3.658536585365854,1.0365853658536586
759,3.419,IMU1,0.037109375,0.0263671875,-1.12109375,0.12195121951219513,2.439024390243903,0.7317073170731708
760,3.429,IMU0,-0.0458984375,0.029296875,-1.01953125,1.707317073170732,3.4756097560975614,1.2804878048780488
761,3.429,IMU1,-0.029296875,0.0400390625,-1.0576171875,-0.06097560975609757,2.5609756097560976,0.9146341463414634
762,3.439,IMU0,-0.0283203125,0.017578125,-1.076171875,1.7682926829268295,3.1097560975609757,1.524390243902439
763,3.439,IMU1,-0.0234375,0.0263671875,-1.0703125,0.1829268292682927,3.9024390243902443,1.3414634146341464
764,3.449,IMU0,-0.021484375,0.01953125,-1.05859375,1.707317073170732,3.4756097560975614,1.6463414634146343
765,3.449,IMU1,0.02734375,0.0224609375,-1.109375,0.5487804878048781,2.8658536585365857,1.0975609756097562
766,3.459,IMU0,-0.048828125,0.0224609375,-0.9853515625,1.5853658536585367,1.829268292682927,1.2195121951219514
767,3.459,IMU1,-0.0302734375,0.0302734375,-1.0546875,-0.12195121951219513,1.707317073170732,0.9146341463414634
768,3.469,IMU0,0.009765625,0.0166015625,-1.1357421875,1.9512195121951221,-0.12195121951219513,0.853658536585366
769,3.469,IMU1,0.01953125,0.025390625,-1.1025390625,1.524390243902439,0.7926829268292683,0.3658536585365854
770,3.479,IMU0,-0.0576171875,0.025390625,-0.9912109375,1.5853658536585367,3.1097560975609757,0.5487804878048781
771,3.479,IMU1,-0.0068359375,0.0361328125,-1.1025390625,0.24390243902439027,2.6219512195121952,0.0
772,3.489,IMU0,0.0087890625,0.0224609375,-1.0927734375,2.25609756097561,2.378048780487805,0.12195121951219513
773,3.489,IMU1,0.0078125,0.0224609375,-1.0361328125,1.2195121951219514,3.2926829268292686,-0.06097560975609757
774,3.499,IMU0,-0.0009765625,0.0166015625,-1.080078125,0.6097560975609757,0.9146341463414634,-0.24390243902439027
775,3.499,IMU1,0.0419921875,0.02734375,-1.123046875,-1.2804878048780488,0.24390243902439027,-0.6097560975609757
776,3.509,IMU0,-0.017578125,0.025390625,-1.021484375,1.5853658536585367,0.6097560975609757,-0.1829268292682927
777,3.509,IMU1,0.013671875,0.025390625,-1.0859375,0.0,-0.24390243902439027,-0.6707317073170732
778,3.519,IMU0,-0.00390625,0.0185546875,-1.115234375,0.7926829268292683,0.24390243902439027,-0.1829268292682927
779,3.519,IMU1,-0.0078125,0.03515625,-1.1044921875,-1.0365853658536586,0.24390243902439027,-0.1829268292682927
780,3.529,IMU0,-0.0205078125,0.0283203125,-1.0732421875,1.2195121951219514,3.1707317073170733,-0.06097560975609757
781,3.529,IMU1,0.0224609375,0.044921875,-1.111328125,-0.9146341463414634,2.378048780487805,-0.426829268292683
782,3.539,IMU0,-0.044921875,0.0322265625,-1.021484375,3.353658536585366,4.51219512195122,0.30487804878048785
783,3.539,IMU1,-0.0166015625,0.0400390625,-1.111328125,0.6707317073170732,3.414634146341464,0.06097560975609757
784,3.549,IMU0,0.0283203125,0.0126953125,-1.1337890625,0.853658536585366,2.804878048780488,0.06097560975609757
785,3.549,IMU1,-0.001953125,0.0205078125,-1.0615234375,-0.7317073170731708,3.658536585365854,-0.06097560975609757
786,3.559,IMU0,-0.0244140625,0.0341796875,-1.0263671875,1.2804878048780488,3.780487804878049,0.24390243902439027
787,3.559,IMU1,0.0390625,0.041015625,-1.14453125,-1.4634146341463417,2.1951219512195124,-0.06097560975609757
788,3.569,IMU0,-0.013671875,0.0126953125,-1.0244140625,0.06097560975609757,2.987804878048781,0.7317073170731708
789,3.569,IMU1,-0.01171875,0.017578125,-1.0263671875,-1.2804878048780488,3.048780487804878,0.3658536585365854
790,3.579,IMU0,0.0087890625,0.0361328125,-1.126953125,0.426829268292683,1.7682926829268295,0.9146341463414634
791,3.579,IMU1,0.0224609375,0.05859375,-1.130859375,-1.2195121951219514,1.7682926829268295,0.9756097560975611
792,3.589,IMU0,-0.0361328125,0.0400390625,-0.9833984375,2.5,3.658536585365854,1.524390243902439
793,3.589,IMU1,0.001953125,0.0390625,-1.0751953125,0.0,2.8658536585365857,1.2804878048780488
794,3.599,IMU0,0.0029296875,0.0205078125,-1.0478515625,1.4634146341463417,1.707317073170732,1.4634146341463417
795,3.599,IMU1,0.01953125,0.03125,-1.0498046875,0.6097560975609757,1.707317073170732,1.2804878048780488
796,3.609,IMU0,0.0166015625,0.0087890625,-1.0458984375,1.2195121951219514,1.2804878048780488,1.2195121951219514
797,3.609,IMU1,0.037109375,0.015625,-1.0546875,0.5487804878048781,1.9512195121951221,0.9756097560975611
798,3.619,IMU0,-0.0205078125,0.03515625,-0.998046875,0.06097560975609757,1.707317073170732,1.2804878048780488
799,3.619,IMU1,0.0283203125,0.033203125,-1.1103515625,-1.6463414634146343,0.1829268292682927,0.853658536585366
800,3.629,IMU0,0.01953125,0.0078125,-1.0390625,-0.7317073170731708,1.9512195121951221,1.0975609756097562
801,3.629,IMU1,0.0009765625,0.0234375,-1.0,-1.2195121951219514,2.1951219512195124,0.7926829268292683
802,3.639,IMU0,-0.0166015625,0.0419921875,-1.046875,1.1585365853658538,1.8902439024390245,0.7926829268292683
803,3.639,IMU1,0.0380859375,0.0546875,-1.1005859375,-0.1829268292682927,0.9146341463414634,0.48780487804878053
804,3.649,IMU0,-0.017578125,0.0390625,-0.923828125,2.3170731707317076,2.7439024390243905,0.6707317073170732
805,3.649,IMU1,-0.0126953125,0.0390625,-0.96875,-0.06097560975609757,2.5609756097560976,0.48780487804878053
806,3.659,IMU0,0.0263671875,0.0283203125,-1.0634765625,2.073170731707317,-0.48780487804878053,0.06097560975609757
807,3.659,IMU1,0.060546875,0.03515625,-1.0703125,-0.3658536585365854,0.1829268292682927,-0.06097560975609757
808,3.669,IMU0,-0.0244140625,0.0341796875,-0.91015625,2.25609756097561,0.24390243902439027,0.30487804878048785
809,3.669,IMU1,-0.0048828125,0.037109375,-0.9697265625,0.3658536585365854,0.426829268292683,0.0
810,3.679,IMU0,-0.021484375,0.0244140625,-0.9951171875,1.7682926829268295,-0.5487804878048781,0.30487804878048785
811,3.679,IMU1,-0.0078125,0.0380859375,-1.005859375,-0.1829268292682927,0.12195121951219513,0.1829268292682927
812,3.689,IMU0,-0.0224609375,0.0244140625,-0.970703125,2.1341463414634148,1.3414634146341464,0.5487804878048781
813,3.689,IMU1,0.0224609375,0.02734375,-1.00390625,0.12195121951219513,2.1341463414634148,0.24390243902439027
814,3.699,IMU0,-0.021484375,0.0380859375,-0.923828125,2.0121951219512195,3.1707317073170733,0.24390243902439027
815,3.699,IMU1,-0.001953125,0.060546875,-0.9599609375,-0.5487804878048781,3.536585365853659,0.12195121951219513
816,3.709,IMU0,0.0126953125,0.0419921875,-0.9677734375,2.5609756097560976,0.6097560975609757,0.30487804878048785
817,3.709,IMU1,0.0322265625,0.0322265625,-0.962890625,0.0,1.6463414634146343,0.30487804878048785
818,3.719,IMU0,-0.0205078125,0.01953125,-0.9130859375,1.8902439024390245,0.9146341463414634,0.426829268292683
819,3.719,IMU1,0.0224609375,0.0341796875,-1.0224609375,-0.6097560975609757,0.12195121951219513,0.06097560975609757
820,3.729,IMU0,0.0263671875,0.0283203125,-0.9541015625,1.8902439024390245,-0.6097560975609757,0.3658536585365854
821,3.729,IMU1,-0.00390625,0.0283203125,-0.8662109375,0.24390243902439027,0.6097560975609757,0.3658536585365854
822,3.739,IMU0,-0.0458984375,0.0244140625,-0.8466796875,1.6463414634146343,1.9512195121951221,0.9146341463414634
823,3.739,IMU1,0.0107421875,0.0361328125,-0.9892578125,-0.30487804878048785,0.426829268292683,0.48780487804878053
824,3.749,IMU0,0.0048828125,0.0361328125,-0.91796875,0.9146341463414634,-0.3658536585365854,1.2195121951219514
825,3.749,IMU1,0.0107421875,0.041015625,-0.87890625,-0.9146341463414634,0.7926829268292683,1.0975609756097562
826,3.759,IMU0,-0.021484375,0.0302734375,-0.8115234375,1.9512195121951221,1.707317073170732,1.5853658536585367
827,3.759,IMU1,0.01953125,0.0380859375,-0.890625,-0.3658536585365854,1.402439024390244,1.2804878048780488
828,3.769,IMU0,-0.015625,0.0419921875,-0.798828125,1.524390243902439,2.1341463414634148,1.7682926829268295
829,3.769,IMU1,-0.0078125,0.048828125,-0.787109375,0.12195121951219513,2.378048780487805,1.6463414634146343
830,3.779,IMU0,-0.029296875,0.02734375,-0.7314453125,0.6707317073170732,2.6219512195121952,1.707317073170732
831,3.779,IMU1,0.0166015625,0.0185546875,-0.7919921875,-0.6097560975609757,0.9146341463414634,1.2804878048780488
832,3.789,IMU0,-0.0029296875,0.0107421875,-0.673828125,-0.30487804878048785,1.9512195121951221,1.5853658536585367
833,3.789,IMU1,0.00390625,0.0234375,-0.68359375,-0.853658536585366,1.707317073170732,1.2804878048780488
834,3.799,IMU0,-0.0166015625,0.017578125,-0.62890625,0.0,1.707317073170732,1.4634146341463417
835,3.799,IMU1,0.01171875,0.033203125,-0.67578125,-2.3170731707317076,1.0365853658536586,1.0975609756097562
836,3.809,IMU0,0.0205078125,0.0224609375,-0.6025390625,-0.5487804878048781,2.25609756097561,0.9756097560975611
837,3.809,IMU1,0.0419921875,0.0302734375,-0.587890625,-2.804878048780488,1.524390243902439,0.6707317073170732
838,3.819,IMU0,-0.015625,0.017578125,-0.48046875,-0.7317073170731708,2.073170731707317,0.9756097560975611
839,3.819,IMU1,-0.015625,0.0283203125,-0.50390625,-1.829268292682927,2.5609756097560976,0.7317073170731708
840,3.829,IMU0,-0.0302734375,0.025390625,-0.4794921875,-2.804878048780488,-0.1829268292682927,0.7317073170731708
841,3.829,IMU1,0.0087890625,0.0322265625,-0.572265625,-4.2682926829268295,-0.12195121951219513,0.48780487804878053
842,3.839,IMU0,0.005859375,0.0322265625,-0.53515625,-2.0121951219512195,0.6707317073170732,0.5487804878048781
843,3.839,IMU1,0.0263671875,0.0283203125,-0.541015625,-4.024390243902439,-0.06097560975609757,0.1829268292682927
844,3.849,IMU0,-0.0107421875,0.029296875,-0.4296875,-2.9268292682926833,0.5487804878048781,0.12195121951219513
845,3.849,IMU1,-0.0029296875,0.0283203125,-0.4462890625,-4.329268292682928,1.1585365853658538,-0.06097560975609757
846,3.859,IMU0,-0.02734375,0.01171875,-0.4072265625,-2.987804878048781,0.06097560975609757,-0.1829268292682927
847,3.859,IMU1,0.00390625,0.0146484375,-0.4951171875,-4.207317073170732,0.30487804878048785,-0.3658536585365854
848,3.869,IMU0,0.0048828125,0.00390625,-0.45703125,-6.890243902439025,0.0,-0.06097560975609757
849,3.869,IMU1,0.029296875,0.0,-0.5361328125,-8.231707317073171,-1.5853658536585367,-0.426829268292683
850,3.879,IMU0,-0.0107421875,0.015625,-0.3818359375,-6.402439024390245,1.2195121951219514,0.24390243902439027
851,3.879,IMU1,0.00390625,0.01953125,-0.46875,-7.926829268292684,0.06097560975609757,-0.12195121951219513
852,3.889,IMU0,-0.013671875,0.0244140625,-0.384765625,-7.926829268292684,0.7926829268292683,-0.06097560975609757
853,3.889,IMU1,0.009765625,0.025390625,-0.4189453125,-10.0,0.7317073170731708,-0.1829268292682927
854,3.899,IMU0,-0.001953125,0.0107421875,-0.40234375,-7.317073170731708,0.9756097560975611,-0.06097560975609757
855,3.899,IMU1,0.0126953125,0.009765625,-0.4228515625,-9.329268292682928,0.5487804878048781,-0.3658536585365854
856,3.909,IMU0,-0.01171875,0.0263671875,-0.376953125,-7.987804878048781,2.25609756097561,0.24390243902439027
857,3.909,IMU1,0.0205078125,0.015625,-0.408203125,-9.02439024390244,0.9756097560975611,-0.30487804878048785
858,3.919,IMU0,-0.0185546875,0.02734375,-0.3896484375,-6.7682926829268295,3.231707317073171,0.5487804878048781
859,3.919,IMU1,0.0078125,0.0205078125,-0.4013671875,-7.500000000000001,2.7439024390243905,0.0
860,3.929,IMU0,-0.013671875,0.0244140625,-0.4072265625,-7.926829268292684,2.25609756097561,0.426829268292683
861,3.929,IMU1,0.0048828125,0.0166015625,-0.4296875,-8.902439024390244,1.707317073170732,0.24390243902439027
862,3.939,IMU0,0.009765625,0.013671875,-0.4072265625,-7.073170731707318,1.829268292682927,0.12195121951219513
863,3.939,IMU1,0.0078125,0.0146484375,-0.4638671875,-8.292682926829269,1.0365853658536586,-0.12195121951219513
864,3.949,IMU0,0.015625,0.017578125,-0.3525390625,-7.865853658536586,1.7682926829268295,0.12195121951219513
865,3.949,IMU1,0.044921875,0.0146484375,-0.46875,-9.329268292682928,0.12195121951219513,-0.30487804878048785
866,3.959,IMU0,-0.001953125,0.01171875,-0.3232421875,-7.01219512195122,2.1341463414634148,0.06097560975609757
867,3.959,IMU1,0.05078125,0.0146484375,-0.4228515625,-8.658536585365855,0.6707317073170732,-0.426829268292683
868,3.969,IMU0,-0.0234375,0.017578125,-0.34765625,-7.378048780487806,1.0365853658536586,-0.30487804878048785
869,3.969,IMU1,0.02734375,0.013671875,-0.361328125,-8.719512195121952,0.7926829268292683,-0.6707317073170732
870,3.979,IMU0,-0.0302734375,0.0185546875,-0.435546875,-7.073170731707318,1.1585365853658538,-0.6097560975609757
871,3.979,IMU1,-0.00390625,0.0185546875,-0.3994140625,-8.536585365853659,1.402439024390244,-0.7926829268292683
872,3.989,IMU0,-0.013671875,0.0107421875,-0.470703125,-7.8048780487804885,1.6463414634146343,-0.9756097560975611
873,3.989,IMU1,0.0009765625,0.009765625,-0.478515625,-9.939024390243903,1.2804878048780488,-1.1585365853658538
874,3.999,IMU0,-0.001953125,0.009765625,-0.44140625,-7.560975609756098,2.682926829268293,-0.7317073170731708
875,3.999,IMU1,0.0302734375,0.009765625,-0.5068359375,-9.634146341463415,1.4634146341463417,-1.1585365853658538
876,4.009,IMU0,-0.0009765625,0.0078125,-0.41796875,-7.8048780487804885,1.9512195121951221,-0.9756097560975611
877,4.009,IMU1,0.0322265625,0.01171875,-0.4794921875,-9.207317073170733,0.9756097560975611,-1.402439024390244
878,4.019,IMU0,-0.005859375,0.021484375,-0.412109375,-6.646341463414635,0.5487804878048781,-1.0365853658536586
879,4.019,IMU1,0.02734375,0.017578125,-0.466796875,-7.987804878048781,0.426829268292683,-1.2195121951219514
880,4.029,IMU0,-0.0146484375,0.0322265625,-0.4619140625,-5.060975609756098,0.5487804878048781,-0.7317073170731708
881,4.029,IMU1,0.017578125,0.03125,-0.4794921875,-6.829268292682928,0.48780487804878053,-0.853658536585366
882,4.039,IMU0,-0.00390625,0.0283203125,-0.49609375,-1.5853658536585367,1.5853658536585367,-0.5487804878048781
883,4.039,IMU1,0.0244140625,0.0302734375,-0.5068359375,-3.231707317073171,1.1585365853658538,-0.7317073170731708
884,4.049,IMU0,-0.0107421875,0.021484375,-0.49609375,-1.0975609756097562,2.682926829268293,-0.24390243902439027
885,4.049,IMU1,0.037109375,0.01953125,-0.533203125,-2.682926829268293,2.378048780487805,-0.30487804878048785
886,4.059,IMU0,-0.01171875,0.0224609375,-0.5146484375,-0.12195121951219513,2.3170731707317076,0.0
887,4.059,IMU1,0.0283203125,0.0234375,-0.5400390625,-1.8902439024390245,2.0121951219512195,-0.1829268292682927
888,4.069,IMU0,-0.0263671875,0.0341796875,-0.5576171875,0.9146341463414634,1.402439024390244,-0.3658536585365854
889,4.069,IMU1,0.0029296875,0.03515625,-0.58203125,-0.853658536585366,1.2195121951219514,-0.5487804878048781
890,4.079,IMU0,0.0087890625,0.0263671875,-0.583984375,3.048780487804878,1.2195121951219514,-0.24390243902439027
891,4.079,IMU1,0.0380859375,0.0283203125,-0.603515625,1.402439024390244,1.4634146341463417,-0.426829268292683
892,4.089,IMU0,0.0009765625,0.0263671875,-0.5576171875,4.085365853658537,1.402439024390244,0.48780487804878053
893,4.089,IMU1,0.005859375,0.0302734375,-0.583984375,2.3170731707317076,1.5853658536585367,0.3658536585365854
894,4.099,IMU0,-0.021484375,0.0087890625,-0.578125,3.353658536585366,1.5853658536585367,1.0365853658536586
895,4.099,IMU1,-0.0126953125,0.013671875,-0.6484375,1.0975609756097562,0.7926829268292683,0.853658536585366
896,4.109,IMU0,-0.0380859375,0.01953125,-0.6796875,2.9268292682926833,0.0,0.7926829268292683
897,4.109,IMU1,-0.005859375,0.021484375,-0.7578125,0.9756097560975611,-1.3414634146341464,0.5487804878048781
898,4.119,IMU0,-0.0087890625,0.01171875,-0.73828125,1.1585365853658538,-0.6707317073170732,0.6707317073170732
899,4.119,IMU1,0.01953125,0.0146484375,-0.7666015625,-0.1829268292682927,-1.2804878048780488,0.30487804878048785
900,4.129,IMU0,-0.0029296875,0.015625,-0.6572265625,1.4634146341463417,0.7317073170731708,0.6707317073170732
901,4.129,IMU1,0.01171875,0.0205078125,-0.65625,-0.3658536585365854,0.426829268292683,0.3658536585365854
902,4.139,IMU0,-0.0244140625,0.01953125,-0.6318359375,2.682926829268293,2.0121951219512195,0.853658536585366
903,4.139,IMU1,0.0,0.0205078125,-0.673828125,1.2195121951219514,1.1585365853658538,0.3658536585365854
904,4.149,IMU0,-0.013671875,0.01953125,-0.68359375,2.9268292682926833,0.5487804878048781,0.6707317073170732
905,4.149,IMU1,0.021484375,0.0234375,-0.748046875,0.853658536585366,0.06097560975609757,0.30487804878048785
906,4.159,IMU0,-0.0087890625,0.0078125,-0.7265625,3.231707317073171,1.0365853658536586,0.9756097560975611
907,4.159,IMU1,0.0107421875,0.015625,-0.7607421875,1.707317073170732,0.6707317073170732,0.6707317073170732
908,4.169,IMU0,-0.021484375,0.01953125,-0.71875,4.024390243902439,1.8902439024390245,1.0365853658536586
909,4.169,IMU1,-0.00390625,0.0283203125,-0.7529296875,2.439024390243903,1.7682926829268295,0.7926829268292683
910,4.179,IMU0,-0.0224609375,0.02734375,-0.7236328125,3.9024390243902443,2.1341463414634148,1.5853658536585367
911,4.179,IMU1,0.0029296875,0.03125,-0.7587890625,2.0121951219512195,1.829268292682927,1.0975609756097562
912,4.189,IMU0,-0.00390625,0.0107421875,-0.75,3.1097560975609757,1.4634146341463417,1.2195121951219514
913,4.189,IMU1,0.03515625,0.0146484375,-0.7763671875,1.1585365853658538,1.4634146341463417,0.853658536585366
914,4.199,IMU0,0.0146484375,0.0205078125,-0.7080078125,2.6219512195121952,1.9512195121951221,0.5487804878048781
915,4.199,IMU1,0.033203125,0.0302734375,-0.7060546875,1.1585365853658538,2.682926829268293,0.1829268292682927
916,4.209,IMU0,-0.0185546875,0.025390625,-0.669921875,2.8658536585365857,2.073170731707317,-0.12195121951219513
917,4.209,IMU1,-0.0029296875,0.0361328125,-0.701171875,1.4634146341463417,2.1951219512195124,-0.5487804878048781
918,4.219,IMU0,-0.025390625,0.03515625,-0.7392578125,2.1341463414634148,1.9512195121951221,-0.30487804878048785
919,4.219,IMU1,0.0087890625,0.0439453125,-0.7919921875,0.48780487804878053,1.707317073170732,-0.7317073170731708
920,4.229,IMU0,0.009765625,0.029296875,-0.775390625,2.378048780487805,0.6097560975609757,-0.30487804878048785
921,4.229,IMU1,0.04296875,0.0390625,-0.7998046875,0.9756097560975611,0.6707317073170732,-0.6097560975609757
922,4.239,IMU0,0.0146484375,0.037109375,-0.7421875,2.378048780487805,1.0365853658536586,-0.12195121951219513
923,4.239,IMU1,0.0341796875,0.046875,-0.7412109375,1.402439024390244,1.524390243902439,-0.426829268292683
924,4.249,IMU0,0.0,0.048828125,-0.685546875,1.9512195121951221,0.853658536585366,-0.3658536585365854
925,4.249,IMU1,0.0166015625,0.0576171875,-0.701171875,0.9756097560975611,0.9756097560975611,-0.7317073170731708
926,4.259,IMU0,-0.0234375,0.044921875,-0.7177734375,2.378048780487805,0.0,-0.30487804878048785
927,4.259,IMU1,0.0087890625,0.05078125,-0.7578125,0.9146341463414634,-0.30487804878048785,-0.6097560975609757
928,4.269,IMU0,0.0087890625,0.0341796875,-0.76171875,2.1341463414634148,-0.06097560975609757,-0.7317073170731708
929,4.269,IMU1,0.0361328125,0.04296875,-0.7890625,0.24390243902439027,0.3658536585365854,-0.9756097560975611
930,4.279,IMU0,-0.001953125,0.0498046875,-0.736328125,2.804878048780488,1.1585365853658538,-0.3658536585365854
931,4.279,IMU1,0.0166015625,0.05859375,-0.7529296875,1.0365853658536586,1.4634146341463417,-0.6097560975609757
932,4.289,IMU0,-0.01171875,0.0498046875,-0.748046875,2.5609756097560976,2.1951219512195124,-0.1829268292682927
933,4.289,IMU1,0.0068359375,0.0576171875,-0.7822265625,0.48780487804878053,2.25609756097561,-0.48780487804878053
934,4.299,IMU0,-0.0068359375,0.0556640625,-0.7724609375,2.378048780487805,0.9146341463414634,-0.426829268292683
935,4.299,IMU1,0.0234375,0.060546875,-0.8056640625,0.426829268292683,0.5487804878048781,-0.7926829268292683
936,4.309,IMU0,0.0126953125,0.046875,-0.7548828125,3.1707317073170733,1.2804878048780488,-0.48780487804878053
937,4.309,IMU1,0.0400390625,0.052734375,-0.7724609375,1.707317073170732,1.0975609756097562,-0.7926829268292683
938,4.319,IMU0,0.0,0.056640625,-0.7099609375,2.8658536585365857,0.9756097560975611,-0.48780487804878053
939,4.319,IMU1,0.0185546875,0.0634765625,-0.7353515625,1.707317073170732,0.5487804878048781,-0.7317073170731708
940,4.329,IMU0,-0.0302734375,0.04296875,-0.7255859375,2.5609756097560976,0.6707317073170732,-0.12195121951219513
941,4.329,IMU1,-0.0068359375,0.048828125,-0.7763671875,1.1585365853658538,0.0,-0.426829268292683
942,4.339,IMU0,-0.01171875,0.048828125,-0.8115234375,1.2804878048780488,-0.24390243902439027,0.0
943,4.339,IMU1,0.021484375,0.0537109375,-0.865234375,0.12195121951219513,-0.7926829268292683,-0.1829268292682927
944,4.349,IMU0,0.009765625,0.048828125,-0.80859375,1.7682926829268295,0.0,0.426829268292683
945,4.349,IMU1,0.0341796875,0.0556640625,-0.8369140625,0.3658536585365854,-0.1829268292682927,0.30487804878048785
946,4.359,IMU0,0.0048828125,0.048828125,-0.7578125,2.439024390243903,1.9512195121951221,0.7926829268292683
947,4.359,IMU1,0.021484375,0.0546875,-0.7802734375,1.0975609756097562,1.9512195121951221,0.48780487804878053
948,4.369,IMU0,0.0009765625,0.05078125,-0.7421875,1.6463414634146343,1.6463414634146343,0.7926829268292683
949,4.369,IMU1,0.0224609375,0.0546875,-0.7841796875,0.5487804878048781,1.3414634146341464,0.426829268292683
950,4.379,IMU0,-0.0068359375,0.0439453125,-0.7880859375,1.6463414634146343,0.7317073170731708,0.9756097560975611
951,4.379,IMU1,0.0244140625,0.048828125,-0.8310546875,0.7317073170731708,0.30487804878048785,0.5487804878048781
952,4.389,IMU0,0.001953125,0.0458984375,-0.7900390625,2.25609756097561,1.0975609756097562,1.2195121951219514
953,4.389,IMU1,0.0234375,0.052734375,-0.822265625,1.2804878048780488,0.7926829268292683,0.9146341463414634
954,4.399,IMU0,-0.0126953125,0.0537109375,-0.7998046875,2.682926829268293,0.7926829268292683,0.853658536585366
955,4.399,IMU1,0.00390625,0.060546875,-0.8388671875,1.4634146341463417,-0.12195121951219513,0.6097560975609757
956,4.409,IMU0,-0.015625,0.0537109375,-0.83984375,2.987804878048781,-0.24390243902439027,0.426829268292683
957,4.409,IMU1,0.0107421875,0.05859375,-0.88671875,1.3414634146341464,-0.9756097560975611,0.1829268292682927
958,4.419,IMU0,0.0029296875,0.04296875,-0.8583984375,2.5609756097560976,-0.24390243902439027,0.426829268292683
959,4.419,IMU1,0.0322265625,0.0478515625,-0.892578125,0.24390243902439027,-0.5487804878048781,0.1829268292682927
960,4.429,IMU0,0.00390625,0.041015625,-0.77734375,2.378048780487805,2.073170731707317,0.426829268292683
961,4.429,IMU1,0.021484375,0.0478515625,-0.796875,0.1829268292682927,2.073170731707317,0.1829268292682927
962,4.439,IMU0,0.005859375,0.0478515625,-0.7470703125,2.073170731707317,2.073170731707317,0.30487804878048785
963,4.439,IMU1,0.0224609375,0.0537109375,-0.775390625,0.0,2.3170731707317076,0.06097560975609757
964,4.449,IMU0,-0.0146484375,0.064453125,-0.818359375,1.7682926829268295,0.6707317073170732,0.1829268292682927
965,4.449,IMU1,0.0126953125,0.0712890625,-0.8671875,-0.24390243902439027,0.24390243902439027,-0.06097560975609757
966,4.459,IMU0,0.009765625,0.0439453125,-0.8896484375,2.378048780487805,0.48780487804878053,0.30487804878048785
967,4.459,IMU1,0.037109375,0.05078125,-0.9287109375,0.6707317073170732,0.06097560975609757,0.0
968,4.469,IMU0,0.013671875,0.0576171875,-0.8818359375,2.439024390243903,0.6707317073170732,1.2195121951219514
969,4.469,IMU1,0.033203125,0.0654296875,-0.9130859375,0.7317073170731708,0.426829268292683,0.853658536585366
970,4.479,IMU0,-0.00390625,0.05859375,-0.880859375,2.25609756097561,0.6707317073170732,1.5853658536585367
971,4.479,IMU1,0.0205078125,0.064453125,-0.9140625,0.9756097560975611,0.3658536585365854,1.2195121951219514
972,4.489,IMU0,0.0244140625,0.052734375,-0.9111328125,3.231707317073171,0.0,1.2195121951219514
973,4.489,IMU1,0.0537109375,0.05859375,-0.9482421875,1.8902439024390245,-0.06097560975609757,0.7926829268292683
974,4.499,IMU0,0.0087890625,0.0517578125,-0.8671875,2.1951219512195124,0.30487804878048785,1.3414634146341464
975,4.499,IMU1,0.0322265625,0.060546875,-0.8896484375,1.402439024390244,0.24390243902439027,0.9756097560975611
976,4.509,IMU0,-0.0234375,0.0576171875,-0.91015625,2.804878048780488,0.7926829268292683,1.0975609756097562
977,4.509,IMU1,-0.001953125,0.06640625,-0.9404296875,1.5853658536585367,0.9146341463414634,0.7317073170731708
978,4.519,IMU0,0.0068359375,0.0673828125,-0.994140625,1.9512195121951221,-0.6097560975609757,0.7317073170731708
979,4.519,IMU1,0.0361328125,0.0751953125,-1.0361328125,0.12195121951219513,-0.853658536585366,0.6097560975609757
980,4.529,IMU0,0.0146484375,0.0654296875,-0.9423828125,3.2926829268292686,0.6707317073170732,0.6097560975609757
981,4.529,IMU1,0.0400390625,0.0732421875,-0.966796875,0.853658536585366,0.7317073170731708,0.48780487804878053
982,4.539,IMU0,0.001953125,0.0712890625,-0.8720703125,2.6219512195121952,2.6219512195121952,0.3658536585365854
983,4.539,IMU1,0.025390625,0.0771484375,-0.89453125,0.7317073170731708,2.682926829268293,0.1829268292682927
984,4.549,IMU0,-0.0078125,0.078125,-0.919921875,2.3170731707317076,1.707317073170732,0.12195121951219513
985,4.549,IMU1,0.0234375,0.083984375,-0.94921875,0.1829268292682927,1.707317073170732,0.0
986,4.559,IMU0,0.00390625,0.0791015625,-0.9462890625,3.1097560975609757,2.439024390243903,0.426829268292683
987,4.559,IMU1,0.0322265625,0.0869140625,-0.97265625,1.2195121951219514,2.378048780487805,0.24390243902439027
988,4.569,IMU0,-0.0029296875,0.0771484375,-0.9326171875,2.5609756097560976,3.4756097560975614,0.7926829268292683
989,4.569,IMU1,0.0166015625,0.083984375,-0.962890625,1.0975609756097562,3.1707317073170733,0.5487804878048781
990,4.579,IMU0,-0.005859375,0.0849609375,-0.9375,2.6219512195121952,3.048780487804878,0.6707317073170732
991,4.579,IMU1,0.0234375,0.0908203125,-0.96875,1.402439024390244,2.6219512195121952,0.3658536585365854
992,4.589,IMU0,0.0263671875,0.072265625,-0.9296875,2.378048780487805,3.5975609756097566,1.0975609756097562
993,4.589,IMU1,0.0556640625,0.0791015625,-0.9580078125,0.7926829268292683,3.2926829268292686,0.7317073170731708
994,4.599,IMU0,0.013671875,0.068359375,-0.8828125,2.439024390243903,2.378048780487805,0.9756097560975611
995,4.599,IMU1,0.037109375,0.0751953125,-0.900390625,1.0365853658536586,2.3170731707317076,0.6707317073170732
996,4.609,IMU0,-0.021484375,0.0859375,-0.9560546875,0.6707317073170732,-0.48780487804878053,0.9756097560975611
997,4.609,IMU1,0.00390625,0.091796875,-0.98828125,-0.48780487804878053,-0.5487804878048781,0.6707317073170732
998,4.619,IMU0,0.0048828125,0.0712890625,-1.0048828125,2.5,0.5487804878048781,0.853658536585366
999,4.619,IMU1,0.0283203125,0.0771484375,-1.04296875,1.3414634146341464,0.48780487804878053,0.48780487804878053
1000,4.629,IMU0,0.0107421875,0.05859375,-0.92578125,1.7682926829268295,2.378048780487805,0.426829268292683
1001,4.629,IMU1,0.029296875,0.0654296875,-0.9599609375,0.5487804878048781,2.682926829268293,0.06097560975609757
1002,4.639,IMU0,-0.0107421875,0.05859375,-0.9150390625,0.426829268292683,2.0121951219512195,0.0
1003,4.639,IMU1,0.013671875,0.064453125,-0.9365234375,-1.1585365853658538,2.25609756097561,-0.30487804878048785
1004,4.649,IMU0,0.0126953125,0.0517578125,-0.990234375,-1.9512195121951221,2.0121951219512195,0.1829268292682927
1005,4.649,IMU1,0.0390625,0.05859375,-1.0263671875,-2.7439024390243905,2.1341463414634148,-0.24390243902439027
1006,4.659,IMU0,0.025390625,0.05859375,-0.9560546875,-2.1341463414634148,2.073170731707317,0.6707317073170732
1007,4.659,IMU1,0.046875,0.064453125,-0.9912109375,-3.353658536585366,2.1341463414634148,0.30487804878048785
1008,4.669,IMU0,0.0087890625,0.0634765625,-0.9619140625,-2.0121951219512195,0.48780487804878053,0.853658536585366
1009,4.669,IMU1,0.029296875,0.0673828125,-0.9951171875,-2.9268292682926833,0.6097560975609757,0.5487804878048781
1010,4.679,IMU0,0.0244140625,0.0771484375,-0.990234375,-1.7682926829268295,-0.426829268292683,0.7926829268292683
1011,4.679,IMU1,0.052734375,0.0830078125,-1.0302734375,-3.4756097560975614,-0.48780487804878053,0.5487804878048781
1012,4.689,IMU0,0.0166015625,0.0673828125,-0.9267578125,-2.5609756097560976,0.24390243902439027,0.9146341463414634
1013,4.689,IMU1,0.0439453125,0.072265625,-0.9599609375,-3.5975609756097566,0.426829268292683,0.6097560975609757
1014,4.699,IMU0,-0.01171875,0.07421875,-0.9482421875,-2.073170731707317,0.9146341463414634,0.853658536585366
1015,4.699,IMU1,0.0126953125,0.080078125,-0.96484375,-3.658536585365854,0.0,0.3658536585365854
1016,4.709,IMU0,0.013671875,0.0693359375,-1.0517578125,-3.353658536585366,0.12195121951219513,0.3658536585365854
1017,4.709,IMU1,0.0390625,0.07421875,-1.087890625,-4.329268292682928,1.2195121951219514,0.24390243902439027
1018,4.719,IMU0,0.009765625,0.0732421875,-1.005859375,-3.048780487804878,2.5,0.6097560975609757
1019,4.719,IMU1,0.0380859375,0.0810546875,-1.052734375,-4.390243902439025,3.414634146341464,0.3658536585365854
1020,4.729,IMU0,-0.001953125,0.0810546875,-0.953125,-2.9268292682926833,4.2682926829268295,0.30487804878048785
1021,4.729,IMU1,0.0244140625,0.0869140625,-0.974609375,-5.426829268292684,2.439024390243903,-0.06097560975609757
1022,4.739,IMU0,0.013671875,0.0732421875,-1.0400390625,-2.7439024390243905,1.9512195121951221,0.12195121951219513
1023,4.739,IMU1,0.0302734375,0.068359375,-1.08203125,-4.573170731707317,1.402439024390244,0.06097560975609757
1024,4.749,IMU0,0.0009765625,0.0771484375,-1.025390625,-4.75609756097561,1.6463414634146343,0.3658536585365854
1025,4.749,IMU1,0.0087890625,0.080078125,-1.078125,-6.402439024390245,0.9756097560975611,0.0
1026,4.759,IMU0,-0.0068359375,0.091796875,-1.056640625,-2.6219512195121952,1.524390243902439,0.3658536585365854
1027,4.759,IMU1,0.0419921875,0.087890625,-1.11328125,-3.963414634146342,0.1829268292682927,-0.24390243902439027
1028,4.769,IMU0,0.009765625,0.0771484375,-1.06640625,0.7317073170731708,0.853658536585366,0.0
1029,4.769,IMU1,0.0205078125,0.0849609375,-1.052734375,0.3658536585365854,1.524390243902439,-0.1829268292682927
1030,4.779,IMU0,0.0068359375,0.0625,-1.01171875,2.8658536585365857,2.682926829268293,0.1829268292682927
1031,4.779,IMU1,0.021484375,0.07421875,-1.0908203125,0.7926829268292683,2.1341463414634148,-0.24390243902439027
1032,4.789,IMU0,0.0029296875,0.072265625,-1.068359375,2.378048780487805,0.7926829268292683,-0.3658536585365854
1033,4.789,IMU1,0.0703125,0.08203125,-1.146484375,0.24390243902439027,0.24390243902439027,-0.7317073170731708
1034,4.799,IMU0,0.0341796875,0.072265625,-1.126953125,2.439024390243903,-0.853658536585366,-0.3658536585365854
1035,4.799,IMU1,0.0458984375,0.0791015625,-1.0263671875,0.6707317073170732,1.2195121951219514,-0.48780487804878053
1036,4.809,IMU0,0.01953125,0.060546875,-1.021484375,2.6219512195121952,0.6707317073170732,0.06097560975609757
1037,4.809,IMU1,0.0263671875,0.0830078125,-1.0263671875,0.853658536585366,1.524390243902439,-0.30487804878048785
1038,4.819,IMU0,-0.0068359375,0.0791015625,-1.0244140625,1.5853658536585367,0.24390243902439027,0.06097560975609757
1039,4.819,IMU1,0.029296875,0.0888671875,-1.1103515625,-0.3658536585365854,0.12195121951219513,-0.1829268292682927
1040,4.829,IMU0,0.0029296875,0.078125,-1.064453125,2.073170731707317,0.9146341463414634,0.1829268292682927
1041,4.829,IMU1,0.0078125,0.09375,-1.0595703125,0.24390243902439027,2.0121951219512195,0.12195121951219513
1042,4.839,IMU0,-0.0009765625,0.091796875,-1.03515625,1.2195121951219514,1.0365853658536586,0.1829268292682927
1043,4.839,IMU1,0.029296875,0.0888671875,-1.1015625,-1.3414634146341464,0.30487804878048785,-0.1829268292682927
1044,4.849,IMU0,0.009765625,0.076171875,-1.0595703125,0.7926829268292683,0.3658536585365854,0.24390243902439027
1045,4.849,IMU1,0.0400390625,0.06640625,-1.0537109375,-0.9756097560975611,0.3658536585365854,-0.06097560975609757
1046,4.859,IMU0,0.009765625,0.0703125,-1.005859375,1.1585365853658538,1.2195121951219514,0.30487804878048785
1047,4.859,IMU1,0.0048828125,0.0712890625,-1.0595703125,-0.7926829268292683,0.853658536585366,0.06097560975609757
1048,4.869,IMU0,-0.0263671875,0.0771484375,-1.0087890625,0.6097560975609757,1.6463414634146343,0.7317073170731708
1049,4.869,IMU1,0.0322265625,0.083984375,-1.169921875,-1.7682926829268295,-0.9146341463414634,0.24390243902439027
1050,4.879,IMU0,0.005859375,0.07421875,-1.1240234375,0.3658536585365854,0.853658536585366,0.5487804878048781
1051,4.879,IMU1,0.0537109375,0.0771484375,-1.1171875,-1.0975609756097562,0.9756097560975611,0.48780487804878053
1052,4.889,IMU0,0.017578125,0.078125,-1.0546875,0.24390243902439027,1.0975609756097562,0.7926829268292683
1053,4.889,IMU1,0.0322265625,0.091796875,-1.0146484375,-1.1585365853658538,2.3170731707317076,0.6707317073170732
1054,4.899,IMU0,0.00390625,0.0693359375,-1.01953125,1.1585365853658538,1.1585365853658538,1.0975609756097562
1055,4.899,IMU1,0.048828125,0.08203125,-1.1083984375,-1.0975609756097562,0.7926829268292683,0.6707317073170732
1056,4.909,IMU0,0.0302734375,0.07421875,-1.0791015625,1.2195121951219514,1.5853658536585367,0.5487804878048781
1057,4.909,IMU1,0.044921875,0.08984375,-1.08203125,-0.24390243902439027,2.1341463414634148,0.5487804878048781
1058,4.919,IMU0,0.0146484375,0.087890625,-1.0244140625,1.8902439024390245,1.5853658536585367,0.30487804878048785
1059,4.919,IMU1,0.046875,0.1044921875,-1.0517578125,0.1829268292682927,1.1585365853658538,-0.12195121951219513
1060,4.929,IMU0,0.009765625,0.080078125,-1.0341796875,3.1097560975609757,0.426829268292683,0.30487804878048785
1061,4.929,IMU1,0.0634765625,0.0888671875,-1.029296875,2.073170731707317,0.6707317073170732,-0.12195121951219513
1062,4.939,IMU0,0.0302734375,0.0732421875,-0.9892578125,1.1585365853658538,0.7317073170731708,0.24390243902439027
1063,4.939,IMU1,0.0322265625,0.080078125,-0.9287109375,0.48780487804878053,2.1341463414634148,0.06097560975609757
1064,4.949,IMU0,0.0078125,0.0693359375,-0.884765625,2.5609756097560976,2.5,0.6097560975609757
1065,4.949,IMU1,-0.0078125,0.0888671875,-0.931640625,0.9756097560975611,2.682926829268293,0.3658536585365854
1066,4.959,IMU0,-0.025390625,0.0859375,-0.880859375,1.5853658536585367,3.658536585365854,0.7317073170731708
1067,4.959,IMU1,0.0126953125,0.0927734375,-1.0068359375,-0.48780487804878053,2.3170731707317076,0.426829268292683
1068,4.969,IMU0,0.0224609375,0.0810546875,-0.9228515625,1.0975609756097562,3.8414634146341466,0.853658536585366
1069,4.969,IMU1,0.0546875,0.0927734375,-0.939453125,-0.12195121951219513,3.1707317073170733,0.426829268292683
1070,4.979,IMU0,0.0302734375,0.083984375,-0.8857421875,0.7317073170731708,2.8658536585365857,0.6097560975609757
1071,4.979,IMU1,0.0400390625,0.08984375,-0.8603515625,-0.06097560975609757,2.6219512195121952,0.24390243902439027
1072,4.989,IMU0,0.005859375,0.080078125,-0.8212890625,-1.0975609756097562,1.8902439024390245,0.7317073170731708
1073,4.989,IMU1,0.0185546875,0.08203125,-0.82421875,-2.25609756097561,2.073170731707317,0.3658536585365854
1074,4.999,IMU0,0.0224609375,0.0771484375,-0.783203125,-0.853658536585366,1.829268292682927,0.48780487804878053
1075,4.999,IMU1,0.0537109375,0.076171875,-0.810546875,-2.0121951219512195,1.8902439024390245,0.06097560975609757
1076,5.009,IMU0,0.029296875,0.068359375,-0.7734375,-1.1585365853658538,2.1951219512195124,0.6097560975609757
1077,5.009,IMU1,0.0634765625,0.072265625,-0.7822265625,-2.7439024390243905,2.1341463414634148,0.1829268292682927
1078,5.019,IMU0,0.0029296875,0.0771484375,-0.716796875,-0.9756097560975611,2.804878048780488,1.0365853658536586
1079,5.019,IMU1,0.04296875,0.0849609375,-0.7294921875,-3.048780487804878,3.048780487804878,0.6097560975609757
1080,5.029,IMU0,-0.0126953125,0.0810546875,-0.7060546875,-1.2804878048780488,2.682926829268293,1.2804878048780488
1081,5.029,IMU1,0.0234375,0.0908203125,-0.7041015625,-3.231707317073171,2.9268292682926833,0.9146341463414634
1082,5.039,IMU0,-0.0087890625,0.08203125,-0.7314453125,-1.2195121951219514,2.073170731707317,1.0365853658536586
1083,5.039,IMU1,0.015625,0.0908203125,-0.73046875,-2.804878048780488,2.378048780487805,0.7926829268292683
1084,5.049,IMU0,0.009765625,0.0712890625,-0.7421875,-1.9512195121951221,1.5853658536585367,0.9756097560975611
1085,5.049,IMU1,0.0283203125,0.0771484375,-0.7568359375,-3.4756097560975614,1.7682926829268295,0.7317073170731708
1086,5.059,IMU0,0.02734375,0.05859375,-0.728515625,-1.1585365853658538,2.0121951219512195,0.7926829268292683
1087,5.059,IMU1,0.041015625,0.060546875,-0.76171875,-2.5609756097560976,1.402439024390244,0.48780487804878053
1088,5.069,IMU0,0.03125,0.0693359375,-0.70703125,-1.5853658536585367,2.1951219512195124,0.853658536585366
1089,5.069,IMU1,0.0517578125,0.0703125,-0.771484375,-3.414634146341464,1.1585365853658538,0.426829268292683
1090,5.079,IMU0,0.0400390625,0.0625,-0.6806640625,-0.7926829268292683,2.378048780487805,0.7926829268292683
1091,5.079,IMU1,0.0537109375,0.064453125,-0.736328125,-2.378048780487805,1.2804878048780488,0.426829268292683
1092,5.089,IMU0,0.0107421875,0.060546875,-0.6806640625,-1.707317073170732,2.439024390243903,0.7926829268292683
1093,5.089,IMU1,0.0244140625,0.0634765625,-0.734375,-2.5609756097560976,1.402439024390244,0.5487804878048781
1094,5.099,IMU0,0.0,0.05859375,-0.67578125,-2.25609756097561,3.231707317073171,0.7926829268292683
1095,5.099,IMU1,0.0048828125,0.06640625,-0.7197265625,-3.780487804878049,2.682926829268293,0.6707317073170732
1096,5.109,IMU0,0.015625,0.056640625,-0.685546875,-1.402439024390244,2.7439024390243905,0.48780487804878053
1097,5.109,IMU1,0.025390625,0.0654296875,-0.72265625,-3.414634146341464,2.6219512195121952,0.426829268292683
1098,5.119,IMU0,0.005859375,0.064453125,-0.6904296875,-1.402439024390244,1.8902439024390245,0.30487804878048785
1099,5.119,IMU1,0.0234375,0.0703125,-0.7265625,-2.804878048780488,1.707317073170732,0.12195121951219513
1100,5.129,IMU0,0.015625,0.0634765625,-0.6826171875,-1.6463414634146343,2.378048780487805,0.06097560975609757
