,ts,Ax,Ay,Az
0,-0.371,0.0,-0.78125,0.0
1,-0.361,0.0,-0.78125,0.0
2,-0.351,0.0,-0.78125,0.0
3,-0.341,0.0,-0.78125,0.0
4,-0.331,0.0,-0.78125,0.0
5,-0.321,-0.78125,-0.78125,0.0
6,-0.311,0.0,-0.78125,0.0
7,-0.301,0.0,-0.78125,0.0
8,-0.291,0.0,-0.78125,0.0
9,-0.281,-0.78125,-0.78125,0.0
10,-0.271,-0.78125,-0.78125,0.0
11,-0.261,0.0,-0.78125,0.0
12,-0.251,0.0,-0.78125,0.0
13,-0.241,-0.78125,-0.78125,0.0
14,-0.231,0.0,-0.78125,0.0
15,-0.221,-0.78125,-0.78125,0.0
16,-0.211,0.0,-0.78125,0.0
17,-0.201,0.0,-0.78125,0.0
18,-0.191,0.0,-0.78125,0.0
19,-0.181,-0.78125,-0.78125,0.0
20,-0.171,-0.78125,-0.78125,0.0
21,-0.161,-0.78125,-0.78125,0.0
22,-0.151,0.0,-0.78125,0.0
23,-0.141,0.0,-0.78125,0.0
24,-0.131,-0.78125,-0.78125,0.0
25,-0.121,0.0,-0.78125,0.0
26,-0.111,-0.78125,-0.78125,0.0
27,-0.101,-0.78125,-0.78125,0.0
28,-0.091,-0.78125,-1.5625,0.0
29,-0.081,-0.78125,-0.78125,0.0
30,-0.071,0.78125,-0.78125,0.0
31,-0.061,0.78125,-0.78125,0.0
32,-0.051,0.0,-0.78125,0.0
33,-0.041,-0.78125,0.0,0.0
34,-0.031,-0.78125,-0.78125,0.0
35,-0.021,-1.5625,-0.78125,0.0
36,-0.011,0.0,-0.78125,0.0
37,-0.001,-0.78125,-0.78125,0.0
38,0.009,0.0,-0.78125,0.0
39,0.019,0.0,-0.78125,0.0
40,0.029,0.0,0.0,0.0
41,0.039,0.0,-0.78125,0.0
42,0.049,-0.78125,-0.78125,0.0
43,0.059,-0.78125,-0.78125,0.0
44,0.069,-0.78125,-0.78125,0.0
45,0.079,-0.78125,-0.78125,0.0
46,0.089,-0.78125,-0.78125,0.0
47,0.099,0.0,-0.78125,0.0
48,0.109,-0.78125,-0.78125,0.0
49,0.119,-0.78125,-0.78125,0.0
50,0.129,-0.78125,-0.78125,0.0
51,0.139,-0.78125,-0.78125,0.0
52,0.149,-0.78125,-0.78125,0.0
53,0.159,0.0,-0.78125,0.0
54,0.169,-0.78125,-0.78125,0.0
55,0.179,-0.78125,-0.78125,0.0
56,0.189,0.0,-0.78125,0.0
57,0.199,-0.78125,-0.78125,0.0
58,0.209,-0.78125,-0.78125,0.0
59,0.219,0.0,-0.78125,0.0
60,0.229,0.0,-0.78125,0.0
61,0.239,0.0,-0.78125,0.0
62,0.249,-0.78125,-0.78125,0.0
63,0.259,-0.78125,-0.78125,0.0
64,0.269,-0.78125,-0.78125,0.0
65,0.279,0.0,-0.78125,0.0
66,0.289,-0.78125,-0.78125,0.0
67,0.299,0.0,-0.78125,0.0
68,0.309,0.0,-0.78125,0.0
69,0.319,0.0,-0.78125,0.0
70,0.329,-0.78125,-0.78125,0.0
71,0.339,0.0,-0.78125,0.0
72,0.349,0.0,-0.78125,0.0
73,0.359,0.0,-0.78125,0.0
74,0.369,0.0,0.0,0.0
75,0.379,0.0,-0.78125,0.0
76,0.389,0.0,-0.78125,0.0
77,0.399,0.0,-0.78125,0.0
78,0.409,0.0,-0.78125,0.0
79,0.419,-0.78125,-0.78125,0.0
80,0.429,0.0,-0.78125,0.0
81,0.439,0.0,-0.78125,0.0
82,0.449,-0.78125,-0.78125,0.0
83,0.459,-0.78125,-0.78125,0.0
84,0.469,-0.78125,-0.78125,0.0
85,0.479,0.0,-0.78125,0.0
86,0.489,0.0,-0.78125,0.0
87,0.499,0.0,-0.78125,0.0
88,0.509,-0.78125,-0.78125,0.0
89,0.519,-0.78125,-0.78125,0.0
90,0.529,0.0,-0.78125,0.0
91,0.539,-0.78125,-0.78125,0.0
92,0.549,-0.78125,-0.78125,0.0
93,0.559,-0.78125,-0.78125,0.0
94,0.569,-0.78125,-1.5625,0.0
95,0.579,-0.78125,-0.78125,0.0
96,0.589,-0.78125,-0.78125,0.0
97,0.599,0.0,-0.78125,0.0
98,0.609,0.0,-0.78125,0.0
99,0.619,-0.78125,-1.5625,0.0
100,0.629,0.0,-0.78125,0.0
101,0.639,0.0,-0.78125,0.0
102,0.649,0.0,0.0,0.0
103,0.659,0.0,-0.78125,0.0
104,0.669,-0.78125,-0.78125,0.0
105,0.679,-0.78125,-0.78125,0.0
106,0.689,-0.78125,-0.78125,0.0
107,0.699,0.0,-0.78125,0.0
108,0.709,-0.78125,-0.78125,0.0
109,0.719,-0.78125,-0.78125,0.0
110,0.729,-0.78125,-0.78125,0.0
111,0.739,0.0,-0.78125,0.0
112,0.749,0.0,-0.78125,0.0
113,0.759,-0.78125,-0.78125,0.0
114,0.769,-0.78125,-0.78125,0.0
115,0.779,0.0,-0.78125,0.0
116,0.789,0.0,-0.78125,0.0
117,0.799,0.0,-0.78125,0.0
118,0.809,0.0,-0.78125,0.0
119,0.819,0.0,-0.78125,0.0
120,0.829,-0.78125,-0.78125,0.0
121,0.839,0.0,-0.78125,0.0
122,0.849,-0.78125,-0.78125,0.0
123,0.859,-0.78125,-0.78125,0.0
124,0.869,0.0,-0.78125,0.0
125,0.879,0.0,-0.78125,0.0
126,0.889,-0.78125,-0.78125,0.0
127,0.899,0.0,-0.78125,0.0
128,0.909,0.0,-0.78125,0.0
129,0.919,-0.78125,-0.78125,0.0
130,0.929,0.0,0.0,0.0
131,0.939,0.0,-0.78125,0.0
132,0.949,-0.78125,-0.78125,0.0
133,0.959,0.0,-0.78125,0.0
134,0.969,0.0,-0.78125,0.0
135,0.979,0.0,-0.78125,0.0
136,0.989,0.0,-0.78125,0.0
137,0.999,-0.78125,-0.78125,0.0
138,1.009,-0.78125,-0.78125,0.0
139,1.019,0.0,-0.78125,0.0
140,1.029,0.0,-1.5625,0.0
141,1.039,0.0,-0.78125,0.0
142,1.049,0.0,-1.5625,0.0
143,1.059,-0.78125,-0.78125,0.0
144,1.069,0.0,-0.78125,0.0
145,1.079,0.0,-0.78125,0.0
146,1.089,0.0,-0.78125,0.0
147,1.099,0.0,-0.78125,0.0
148,1.109,-0.78125,-0.78125,0.0
149,1.119,0.0,-0.78125,0.0
150,1.129,0.0,-0.78125,0.0
151,1.139,0.0,-0.78125,0.0
152,1.149,-0.78125,-0.78125,0.0
153,1.159,-0.78125,-0.78125,0.0
154,1.169,-0.78125,-0.78125,0.0
155,1.179,0.0,-1.5625,0.0
156,1.189,0.0,0.0,0.0
157,1.199,0.0,-0.78125,0.0
158,1.209,0.0,-0.78125,0.0
159,1.219,-0.78125,-0.78125,0.0
160,1.229,0.0,-0.78125,0.0
161,1.239,-0.78125,-1.5625,0.0
162,1.249,0.0,-0.78125,0.0
163,1.259,0.0,-0.78125,0.0
164,1.269,-0.78125,-0.78125,0.0
165,1.279,0.0,-0.78125,0.0
166,1.289,0.0,-0.78125,0.0
167,1.299,0.0,-0.78125,0.0
168,1.309,-0.78125,-0.78125,0.0
169,1.319,0.0,-0.78125,0.0
170,1.329,0.0,-1.5625,0.0
171,1.339,-0.78125,-0.78125,0.0
172,1.349,0.0,-0.78125,0.0
173,1.359,0.0,-0.78125,0.0
174,1.369,0.0,-0.78125,0.0
175,1.379,-0.78125,-0.78125,0.0
176,1.389,0.0,-0.78125,0.0
177,1.399,0.0,-0.78125,0.0
178,1.409,0.0,-0.78125,0.0
179,1.419,0.0,-0.78125,0.0
180,1.429,0.0,-0.78125,0.0
181,1.439,0.0,-0.78125,0.0
182,1.449,-0.78125,-0.78125,0.0
183,1.459,0.0,-0.78125,0.0
184,1.469,0.0,-1.5625,0.0
185,1.479,0.0,-0.78125,0.0
186,1.489,0.0,-0.78125,0.0
187,1.499,-0.78125,-0.78125,0.0
188,1.509,0.0,-0.78125,0.0
189,1.519,-0.78125,-0.78125,0.0
190,1.529,0.0,-0.78125,0.0
191,1.539,-0.78125,-1.5625,0.0
192,1.549,0.0,-0.78125,0.0
193,1.559,-0.78125,-0.78125,0.0
194,1.569,0.0,-0.78125,0.0
195,1.579,-0.78125,-0.78125,0.0
196,1.589,0.0,0.0,0.0
197,1.599,0.0,-0.78125,0.0
198,1.609,0.0,-0.78125,0.0
199,1.619,-0.78125,-0.78125,0.0
200,1.629,0.0,-0.78125,0.0
201,1.639,0.0,-0.78125,0.0
202,1.649,0.0,-0.78125,0.0
203,1.659,0.0,-1.5625,0.0
204,1.669,0.0,-0.78125,0.0
205,1.679,-0.78125,-0.78125,0.0
206,1.689,-0.78125,-0.78125,0.0
207,1.699,0.0,-0.78125,0.0
208,1.709,0.0,-0.78125,0.0
209,1.719,0.0,-0.78125,0.0
210,1.729,-0.78125,-1.5625,0.0
211,1.739,0.0,-0.78125,0.0
212,1.749,-0.78125,-0.78125,0.0
213,1.759,0.0,-0.78125,0.0
214,1.769,0.0,-1.5625,0.0
215,1.779,0.0,-0.78125,0.0
216,1.789,0.0,-1.5625,0.0
217,1.799,-0.78125,-0.78125,0.0
218,1.809,0.0,-0.78125,0.0
219,1.819,-0.78125,-0.78125,0.0
220,1.829,0.0,-0.78125,0.0
221,1.839,-0.78125,-0.78125,0.0
222,1.849,0.0,-0.78125,0.0
223,1.859,-0.78125,-1.5625,0.0
224,1.869,0.0,0.0,0.0
225,1.879,-0.78125,-0.78125,0.0
226,1.889,0.0,-0.78125,0.0
227,1.899,0.0,-0.78125,0.0
228,1.909,-0.78125,-0.78125,0.0
229,1.919,0.0,-0.78125,0.0
230,1.929,0.0,-0.78125,0.0
231,1.939,0.0,-0.78125,0.0
232,1.949,0.0,-0.78125,0.0
233,1.959,0.0,-0.78125,0.0
234,1.969,-0.78125,-0.78125,0.0
235,1.979,0.0,-0.78125,0.0
236,1.989,0.0,-1.5625,0.0
237,1.999,-0.78125,-0.78125,0.0
238,2.009,0.0,-0.78125,0.0
239,2.019,-0.78125,-0.78125,0.0
240,2.029,0.0,-0.78125,0.0
241,2.039,0.0,-1.5625,0.0
242,2.049,0.0,-0.78125,0.0
243,2.059,-0.78125,-1.5625,0.0
244,2.069,-0.78125,-0.78125,0.0
245,2.079,0.0,-0.78125,0.0
246,2.089,-0.78125,-0.78125,0.0
247,2.099,0.0,-0.78125,0.0
248,2.109,-0.78125,-0.78125,0.0
249,2.119,0.0,-0.78125,0.0
250,2.129,-0.78125,-1.5625,0.0
251,2.139,0.0,-0.78125,0.0
252,2.149,-0.78125,-0.78125,0.0
253,2.159,0.0,-0.78125,0.0
254,2.169,-0.78125,-1.5625,0.0
255,2.179,0.0,-0.78125,0.0
256,2.189,0.0,-1.5625,0.0
257,2.199,0.0,-0.78125,0.0
258,2.209,-0.78125,-1.5625,0.0
259,2.219,-0.78125,-0.78125,0.0
260,2.229,-0.78125,-0.78125,0.0
261,2.239,0.0,0.0,0.0
262,2.249,0.0,-1.5625,0.0
263,2.259,0.0,-0.78125,0.0
264,2.269,0.0,-1.5625,0.0
265,2.279,0.0,-0.78125,0.0
266,2.289,0.0,-0.78125,0.0
267,2.299,0.0,0.0,0.0
268,2.309,-0.78125,-1.5625,0.0
269,2.319,0.0,0.0,0.0
270,2.329,-0.78125,-1.5625,0.0
271,2.339,0.0,-0.78125,0.0
272,2.349,-0.78125,-0.78125,0.0
273,2.359,0.0,-0.78125,0.0
274,2.369,-0.78125,-1.5625,0.0
275,2.379,0.0,-0.78125,0.0
276,2.389,0.0,-1.5625,0.0
277,2.399,-0.78125,0.0,0.0
278,2.409,-0.78125,-1.5625,0.0
279,2.419,-0.78125,-0.78125,0.0
280,2.429,0.0,-0.78125,0.0
281,2.439,-0.78125,-0.78125,0.0
282,2.449,0.0,-0.78125,0.0
283,2.459,-0.78125,-0.78125,0.0
284,2.469,-0.78125,-0.78125,0.0
285,2.479,0.0,-0.78125,0.0
286,2.489,-0.78125,-1.5625,0.0
287,2.499,0.0,-0.78125,0.0
288,2.509,0.0,-1.5625,0.0
289,2.519,0.0,-0.78125,0.0
290,2.529,0.0,-1.5625,0.0
291,2.539,0.0,-0.78125,0.0
292,2.549,-0.78125,-0.78125,0.0
293,2.559,0.0,-0.78125,0.0
294,2.569,-0.78125,-0.78125,0.0
295,2.579,0.0,-1.5625,0.0
296,2.589,0.0,0.0,0.0
297,2.599,0.0,-1.5625,0.0
298,2.609,0.0,0.0,0.0
299,2.619,-0.78125,-0.78125,0.0
300,2.629,0.0,-0.78125,0.0
301,2.639,-0.78125,-0.78125,0.0
302,2.649,0.0,-0.78125,0.0
303,2.659,0.0,-0.78125,0.0
304,2.669,0.0,-0.78125,0.0
305,2.679,0.0,-0.78125,0.0
306,2.689,-0.78125,-0.78125,0.0
307,2.699,0.0,-0.78125,0.0
308,2.709,-0.78125,-1.5625,0.0
309,2.719,0.0,-0.78125,0.0
310,2.729,-0.78125,-0.78125,0.0
311,2.739,0.0,0.0,0.0
312,2.749,0.0,-0.78125,0.0
313,2.759,0.0,-0.78125,0.0
314,2.769,0.0,-0.78125,0.0
315,2.779,0.0,-0.78125,0.0
316,2.789,0.0,-0.78125,0.0
317,2.799,0.0,-0.78125,0.0
318,2.809,0.0,-0.78125,0.0
319,2.819,0.0,-0.78125,0.0
320,2.829,0.0,-0.78125,0.0
321,2.839,0.0,-0.78125,0.0
322,2.849,0.0,-1.5625,0.0
323,2.859,0.0,-0.78125,0.0
324,2.869,0.0,-0.78125,0.0
325,2.879,0.0,0.0,0.0
326,2.889,0.0,-0.78125,0.0
327,2.899,0.0,-0.78125,0.0
328,2.909,0.0,-0.78125,0.0
329,2.919,0.0,-0.78125,0.0
330,2.929,0.0,-0.78125,0.0
331,2.939,0.0,0.0,0.0
332,2.949,0.0,-0.78125,0.0
333,2.959,0.0,-0.78125,0.0
334,2.969,-0.78125,-1.5625,0.0
335,2.979,0.0,0.0,0.0
336,2.989,-0.78125,-1.5625,0.0
337,2.999,0.0,-0.78125,0.0
338,3.009,0.0,-0.78125,0.0
339,3.019,0.0,-1.5625,0.0
340,3.029,0.0,-0.78125,0.0
341,3.039,-0.78125,-1.5625,0.0
342,3.049,0.0,-0.78125,0.0
343,3.059,0.0,-0.78125,0.0
344,3.069,0.0,-0.78125,0.0
345,3.079,0.0,-0.78125,0.0
346,3.089,-0.78125,-0.78125,0.0
347,3.099,0.0,-0.78125,0.0
348,3.109,-0.78125,-0.78125,0.0
349,3.119,0.0,-0.78125,0.0
350,3.129,-0.78125,0.0,0.0
351,3.139,0.0,-1.5625,0.0
352,3.149,0.0,-0.78125,0.0
353,3.159,-0.78125,-0.78125,0.0
354,3.169,0.0,-0.78125,0.0
355,3.179,-0.78125,-0.78125,0.0
356,3.189,0.0,-0.78125,0.0
357,3.199,-0.78125,0.0,0.0
358,3.209,-0.78125,-1.5625,0.0
359,3.219,-0.78125,-0.78125,0.0
360,3.229,-0.78125,-0.78125,0.0
361,3.239,0.0,-0.78125,0.0
362,3.249,0.0,-0.78125,0.0
363,3.259,0.0,-0.78125,0.0
364,3.269,0.0,-0.78125,0.0
365,3.279,0.0,-0.78125,0.0
366,3.289,-0.78125,-1.5625,0.0
367,3.299,0.0,-0.78125,0.0
368,3.309,0.0,-0.78125,0.0
369,3.319,0.0,-0.78125,0.0
370,3.329,0.0,-0.78125,0.0
371,3.339,0.0,-0.78125,0.0
372,3.349,0.0,-0.78125,0.0
373,3.359,0.0,-1.5625,0.0
374,3.369,0.0,-0.78125,0.0
375,3.379,0.0,-0.78125,0.0
376,3.389,0.0,-0.78125,0.0
377,3.399,-0.78125,-0.78125,0.0
378,3.409,0.0,-0.78125,0.0
379,3.419,-0.78125,-0.78125,0.0
380,3.429,0.0,-1.5625,0.0
381,3.439,0.0,-0.78125,0.0
382,3.449,0.0,-1.5625,0.0
383,3.459,0.0,-0.78125,0.0
384,3.469,0.0,-1.5625,0.0
385,3.479,0.0,-0.78125,0.0
386,3.489,0.0,-0.78125,0.0
387,3.499,-0.78125,-0.78125,0.0
388,3.509,-0.78125,-0.78125,0.0
389,3.519,0.0,-0.78125,0.0
390,3.529,0.0,-0.78125,0.0
391,3.539,-0.78125,-0.78125,0.0
392,3.549,0.0,0.0,0.0
393,3.559,0.0,-1.5625,0.0
394,3.569,0.0,-0.78125,0.0
395,3.579,-0.78125,-0.78125,0.0
396,3.589,0.0,-0.78125,0.0
397,3.599,0.0,-0.78125,0.0
398,3.609,0.0,-1.5625,0.0
399,3.619,0.0,-0.78125,0.0
400,3.629,-0.78125,-1.5625,0.0
401,3.639,-0.78125,-0.78125,0.0
402,3.649,-0.78125,-1.5625,0.0
403,3.659,0.0,-0.78125,0.0
404,3.669,0.0,-0.78125,0.0
405,3.679,0.0,-0.78125,0.0
406,3.689,0.0,-0.78125,0.0
407,3.699,-0.78125,-0.78125,0.0
408,3.709,0.0,-0.78125,0.0
409,3.719,0.0,-0.78125,0.0
410,3.729,0.0,-0.78125,0.0
411,3.739,0.0,-1.5625,0.0
412,3.749,0.0,-0.78125,0.0
413,3.759,-0.78125,-0.78125,0.0
414,3.769,0.0,-0.78125,0.0
415,3.779,0.0,-0.78125,0.0
416,3.789,-0.78125,-0.78125,0.0
417,3.799,0.0,-0.78125,0.0
418,3.809,0.0,-0.78125,0.0
419,3.819,-0.78125,-0.78125,0.0
420,3.829,0.0,-0.78125,0.0
421,3.839,-0.78125,-0.78125,0.0
422,3.849,0.0,-0.78125,0.0
423,3.859,0.0,-1.5625,0.0
424,3.869,0.0,-0.78125,0.0
425,3.879,0.0,-0.78125,0.0
426,3.889,0.0,-0.78125,0.0
427,3.899,0.0,-0.78125,0.0
428,3.909,-0.78125,-0.78125,0.0
429,3.919,-0.78125,-0.78125,0.0
430,3.929,0.0,-0.78125,0.0
431,3.939,0.0,-0.78125,0.0
432,3.949,0.0,-0.78125,0.0
433,3.959,0.0,-0.78125,0.0
434,3.969,-0.78125,-0.78125,0.0
435,3.979,0.0,-0.78125,0.0
436,3.989,0.0,-0.78125,0.0
437,3.999,0.0,-0.78125,0.0
438,4.009,0.0,-0.78125,0.0
439,4.019,0.0,-0.78125,0.0
440,4.029,-0.78125,-0.78125,0.0
441,4.039,-0.78125,-0.78125,0.0
442,4.049,-0.78125,-1.5625,0.0
443,4.059,-0.78125,-0.78125,0.0
444,4.069,0.0,-0.78125,0.0
445,4.079,0.0,-0.78125,0.0
446,4.089,-0.78125,-0.78125,0.0
447,4.099,-0.78125,-1.5625,0.0
448,4.109,-0.78125,-0.78125,0.0
449,4.119,0.0,-0.78125,0.0
450,4.129,0.0,-0.78125,0.0
451,4.139,-0.78125,-0.78125,0.0
452,4.149,-0.78125,-0.78125,0.0
453,4.159,-0.78125,-0.78125,0.0
454,4.169,0.0,-0.78125,0.0
455,4.179,0.0,-0.78125,0.0
456,4.189,0.0,-0.78125,0.0
457,4.199,0.0,-0.78125,0.0
458,4.209,0.0,-1.5625,0.0
459,4.219,0.0,-0.78125,0.0
460,4.229,0.0,-0.78125,0.0
461,4.239,0.0,-0.78125,0.0
462,4.249,-0.78125,-0.78125,0.0
463,4.259,0.0,-0.78125,0.0
464,4.269,0.0,-0.78125,0.0
465,4.279,0.0,-0.78125,0.0
466,4.289,0.0,-0.78125,0.0
467,4.299,0.0,-0.78125,0.0
468,4.309,-0.78125,-0.78125,0.0
469,4.319,-0.78125,-0.78125,0.0
470,4.329,0.0,-0.78125,0.0
471,4.339,0.0,-0.78125,0.0
472,4.349,-0.78125,-0.78125,0.0
473,4.359,-0.78125,-0.78125,0.0
474,4.369,-0.78125,-0.78125,0.0
475,4.379,-0.78125,-0.78125,0.0
476,4.389,0.0,-0.78125,0.0
477,4.399,0.0,-0.78125,0.0
478,4.409,0.0,-1.5625,0.0
479,4.419,-0.78125,-0.78125,0.0
480,4.429,-0.78125,-0.78125,0.0
481,4.439,-0.78125,-0.78125,0.0
482,4.449,0.0,-0.78125,0.0
483,4.459,-0.78125,-0.78125,0.0
484,4.469,0.0,-0.78125,0.0
485,4.479,0.0,-0.78125,0.0
486,4.489,0.0,-0.78125,0.0
487,4.499,-0.78125,-0.78125,0.0
488,4.509,-0.78125,-0.78125,0.0
489,4.519,0.0,-0.78125,0.0
490,4.529,0.0,-0.78125,0.0
491,4.539,0.0,-0.78125,0.0
492,4.549,0.0,-0.78125,0.0
493,4.559,0.0,-0.78125,0.0
494,4.569,0.0,-0.78125,0.0
495,4.579,-0.78125,-0.78125,0.0
496,4.589,-0.78125,-0.78125,0.0
497,4.599,-0.78125,-0.78125,0.0
498,4.609,0.0,-0.78125,0.0
499,4.619,0.0,-0.78125,0.0
500,4.629,0.0,-0.78125,0.0
501,4.639,0.0,-0.78125,0.0
502,4.649,0.0,0.0,0.0
503,4.659,0.0,-0.78125,0.0
504,4.669,-0.78125,-0.78125,0.0
505,4.679,-0.78125,-0.78125,0.0
506,4.689,0.0,-0.78125,0.0
507,4.699,0.0,-0.78125,0.0
508,4.709,-0.78125,-0.78125,0.0
509,4.719,0.0,-0.78125,0.0
510,4.729,0.0,-0.78125,0.0
511,4.739,0.0,-0.78125,0.0
512,4.749,-0.78125,-0.78125,0.0
513,4.759,0.0,-0.78125,0.0
514,4.769,0.0,-0.78125,0.0
515,4.779,0.0,-0.78125,0.0
516,4.789,0.0,-0.78125,0.0
517,4.799,0.0,0.0,0.0
518,4.809,-0.78125,-0.78125,0.0
519,4.819,-0.78125,-0.78125,0.0
520,4.829,0.0,-0.78125,0.0
521,4.839,0.0,-0.78125,0.0
522,4.849,0.0,-0.78125,0.0
523,4.859,0.0,-0.78125,0.0
524,4.869,0.0,-0.78125,0.0
525,4.879,0.0,-0.78125,0.0
526,4.889,0.0,-1.5625,0.0
527,4.899,0.0,-0.78125,0.0
528,4.909,-0.78125,-0.78125,0.0
529,4.919,-0.78125,-0.78125,0.0
530,4.929,-0.78125,-0.78125,0.0
531,4.939,0.0,-0.78125,0.0
532,4.949,0.0,-0.78125,0.0
533,4.959,0.0,-0.78125,0.0
534,4.969,0.0,-0.78125,0.0
535,4.979,0.0,-0.78125,0.0
536,4.989,0.0,-0.78125,0.0
537,4.999,0.0,-0.78125,0.0
538,5.009,-0.78125,-0.78125,0.0
539,5.019,-0.78125,-0.78125,0.0
540,5.029,-0.78125,-0.78125,0.0
541,5.039,-0.78125,-0.78125,0.0
542,5.049,-0.78125,-0.78125,0.0
543,5.059,0.0,-0.78125,0.0
544,5.069,0.0,-0.78125,0.0
545,5.079,0.0,-0.78125,0.0
546,5.089,0.0,-0.78125,0.0
547,5.099,-0.78125,-0.78125,0.0
548,5.109,0.0,-0.78125,0.0
549,5.119,0.0,-0.78125,0.0
550,5.129,-0.78125,-0.78125,0.0
551,5.139,-0.78125,-0.78125,0.0
552,5.149,0.0,-0.78125,0.0
553,5.159,-0.78125,-0.78125,0.0
554,5.169,-0.78125,-0.78125,0.0
555,5.179,0.0,-0.78125,0.0
556,5.189,0.0,-0.78125,0.0
557,5.199,0.0,-0.78125,0.0
558,5.209,0.0,-0.78125,0.0
559,5.219,0.0,-0.78125,0.0
560,5.229,0.0,-0.78125,0.0
561,5.239,0.0,-0.78125,0.0
562,5.249,-0.78125,-0.78125,0.0
563,5.259,-0.78125,-0.78125,0.0
564,5.269,-0.78125,-0.78125,0.0
565,5.279,0.0,-0.78125,0.0
566,5.289,-0.78125,-0.78125,0.0
567,5.299,-0.78125,-0.78125,0.0
568,5.309,0.0,-0.78125,0.0
569,5.319,-0.78125,-0.78125,0.0
570,5.329,-0.78125,-0.78125,0.0
571,5.339,-0.78125,-0.78125,0.0
572,5.349,0.0,-1.5625,0.0
573,5.359,0.0,-1.5625,0.0
574,5.369,0.0,-0.78125,0.0
575,5.379,0.0,-0.78125,0.0
576,5.389,0.0,-0.78125,0.0
577,5.399,0.0,-0.78125,0.0
578,5.409,0.0,-0.78125,0.0
579,5.419,0.0,-0.78125,0.0
580,5.429,0.0,-0.78125,0.0
581,5.439,0.0,-0.78125,0.0
582,5.449,0.0,-0.78125,0.0
583,5.459,0.0,-0.78125,0.0
584,5.469,-0.78125,-0.78125,0.0
585,5.479,-0.78125,-0.78125,0.0
586,5.489,-0.78125,-0.78125,0.0
587,5.499,-0.78125,-0.78125,0.0
588,5.509,-0.78125,-0.78125,0.0
589,5.519,-0.78125,-0.78125,0.0
590,5.529,-0.78125,-0.78125,0.0
591,5.539,-0.78125,-0.78125,0.0
592,5.549,-0.78125,-0.78125,0.0
593,5.559,-0.78125,-1.5625,0.0
594,5.569,-0.78125,-0.78125,0.0
595,5.579,0.0,-0.78125,0.0
596,5.589,0.0,-0.78125,0.0
597,5.599,0.0,-0.78125,0.0
598,5.609,0.0,-0.78125,0.0
599,5.619,0.0,-0.78125,0.0
600,5.629,0.0,-0.78125,0.0
601,5.639,-0.78125,-0.78125,0.0
602,5.649,0.0,-0.78125,0.0
603,5.659,0.0,-0.78125,0.0
604,5.669,0.0,-0.78125,0.0
605,5.679,0.0,-0.78125,0.0
606,5.689,0.0,-0.78125,0.0
607,5.699,0.0,-0.78125,0.0
608,5.709,0.0,-0.78125,0.0
609,5.719,0.0,-0.78125,0.0
610,5.729,0.0,-0.78125,0.0
611,5.739,-0.78125,-0.78125,0.0
612,5.749,-0.78125,-0.78125,0.0
613,5.759,-0.78125,-0.78125,0.0
614,5.769,-0.78125,-0.78125,0.0
615,5.779,-0.78125,-0.78125,0.0
616,5.789,-0.78125,-0.78125,0.0
617,5.799,0.0,-0.78125,0.0
618,5.809,-0.78125,-0.78125,0.0
619,5.819,0.0,-0.78125,0.0
620,5.829,0.0,-0.78125,0.0
621,5.839,0.0,-0.78125,0.0
622,5.849,0.0,-0.78125,0.0
623,5.859,0.0,-0.78125,0.0
624,5.869,0.0,-0.78125,0.0
625,5.879,0.0,-0.78125,0.0
626,5.889,0.0,-0.78125,0.0
627,5.899,-0.78125,-0.78125,0.0
628,5.909,-0.78125,-0.78125,0.0
629,5.919,-0.78125,-0.78125,0.0
630,5.929,-0.78125,-0.78125,0.0
631,5.939,-0.78125,-0.78125,0.0
632,5.949,-0.78125,-0.78125,0.0
633,5.959,-0.78125,-0.78125,0.0
634,5.969,-0.78125,-1.5625,0.0
635,5.979,-0.78125,-1.5625,0.0
636,5.989,-0.78125,-0.78125,0.0
637,5.999,-0.78125,-0.78125,0.0
638,6.009,0.0,-0.78125,0.0
639,6.019,-0.78125,-0.78125,0.0
640,6.029,-0.78125,-0.78125,0.0
641,6.039,0.0,-0.78125,0.0
642,6.049,0.0,-0.78125,0.0
643,6.059,0.0,-0.78125,0.0
644,6.069,0.0,-0.78125,0.0
645,6.079,-0.78125,-0.78125,0.0
646,6.089,-0.78125,-0.78125,0.0
647,6.099,-0.78125,-0.78125,0.0
648,6.109,-0.78125,-0.78125,0.0
649,6.119,-0.78125,-0.78125,0.0
650,6.129,-0.78125,-0.78125,0.0
651,6.139,0.0,-0.78125,0.0
652,6.149,0.0,-0.78125,0.0
653,6.159,0.0,-0.78125,0.0
654,6.169,-0.78125,-0.78125,0.0
655,6.179,-0.78125,-0.78125,0.0
656,6.189,-0.78125,-0.78125,0.0
657,6.199,-0.78125,-0.78125,0.0
658,6.209,0.0,-0.78125,0.0
659,6.219,-0.78125,-0.78125,0.0
660,6.229,-0.78125,-0.78125,0.0
661,6.239,0.0,-0.78125,0.0
662,6.249,0.0,-0.78125,0.0
663,6.259,-0.78125,-0.78125,0.0
664,6.269,-0.78125,-0.78125,0.0
665,6.279,-0.78125,-0.78125,0.0
666,6.289,-0.78125,-0.78125,0.0
667,6.299,0.0,-0.78125,0.0
668,6.309,-0.78125,-0.78125,0.0
669,6.319,-0.78125,-0.78125,0.0
670,6.329,0.0,-0.78125,0.0
671,6.339,0.0,-0.78125,0.0
672,6.349,0.0,-0.78125,0.0
673,6.359,0.0,-0.78125,0.0
674,6.369,-0.78125,-0.78125,0.0
675,6.379,-0.78125,-0.78125,0.0
676,6.389,-0.78125,-0.78125,0.0
677,6.399,0.0,-0.78125,0.0
678,6.409,-0.78125,-0.78125,0.0
679,6.419,-0.78125,-0.78125,0.0
680,6.429,-0.78125,-0.78125,0.0
681,6.439,-0.78125,-0.78125,0.0
682,6.449,-0.78125,-0.78125,0.0
683,6.459,-0.78125,-0.78125,0.0
684,6.469,0.0,-0.78125,0.0
685,6.479,-0.78125,-0.78125,0.0
686,6.489,-0.78125,-0.78125,0.0
687,6.499,-0.78125,-0.78125,0.0
688,6.509,-0.78125,-0.78125,0.0
689,6.519,-0.78125,-1.5625,0.0
690,6.529,-0.78125,-0.78125,0.0
691,6.539,-0.78125,-0.78125,0.0
692,6.549,-0.78125,-0.78125,0.0
693,6.559,-0.78125,-0.78125,0.0
694,6.569,-0.78125,-0.78125,0.0
695,6.579,-0.78125,-0.78125,0.0
696,6.589,-0.78125,-1.5625,0.0
697,6.599,-0.78125,-1.5625,0.0
698,6.609,-0.78125,-0.78125,0.0
699,6.619,-0.78125,-0.78125,0.0
700,6.629,-0.78125,-0.78125,0.0
701,6.639,-0.78125,-0.78125,0.0
702,6.649,-0.78125,-0.78125,0.0
703,6.659,-0.78125,-0.78125,0.0
704,6.669,-0.78125,-1.5625,0.0
705,6.679,-0.78125,-1.5625,0.0
706,6.689,-0.78125,-0.78125,0.0
707,6.699,-0.78125,-0.78125,0.0
708,6.709,-0.78125,-0.78125,0.0
709,6.719,0.0,-0.78125,0.0
710,6.729,-0.78125,-0.78125,0.0
711,6.739,-0.78125,-0.78125,0.0
712,6.749,-0.78125,-0.78125,0.0
713,6.759,-0.78125,-0.78125,0.0
714,6.769,-0.78125,-0.78125,0.0
715,6.779,-0.78125,-0.78125,0.0
716,6.789,0.0,-0.78125,0.0
717,6.799,-0.78125,-0.78125,0.0
718,6.809,-0.78125,-0.78125,0.0
719,6.819,-0.78125,-1.5625,0.0
720,6.829,-0.78125,-0.78125,0.0
721,6.839,-0.78125,-0.78125,0.0
722,6.849,0.0,-0.78125,0.0
723,6.859,0.0,-0.78125,0.0
724,6.869,0.0,-0.78125,0.0
725,6.879,-0.78125,-0.78125,0.0
726,6.889,-0.78125,-0.78125,0.0
727,6.899,-0.78125,-0.78125,0.0
728,6.909,-0.78125,-0.78125,0.0
729,6.919,0.0,-1.5625,0.0
730,6.929,-0.78125,-1.5625,0.0
731,6.939,0.0,-0.78125,0.0
732,6.949,-0.78125,-0.78125,0.0
733,6.959,-0.78125,-0.78125,0.0
734,6.969,-0.78125,-0.78125,0.0
735,6.979,0.0,-0.78125,0.0
736,6.989,0.0,-0.78125,0.0
737,6.999,0.0,-0.78125,0.0
738,7.009,0.0,-0.78125,0.0
739,7.019,-0.78125,-0.78125,0.0
740,7.029,0.0,-0.78125,0.0
741,7.039,0.0,-0.78125,0.0
742,7.049,0.0,-0.78125,0.0
743,7.059,-0.78125,-1.5625,0.0
744,7.069,-0.78125,-1.5625,0.0
745,7.079,-0.78125,-0.78125,0.0
746,7.089,-0.78125,-0.78125,0.0
747,7.099,0.0,-0.78125,0.0
748,7.109,0.0,-0.78125,0.0
749,7.119,0.0,-0.78125,0.0
750,7.129,0.0,-0.78125,0.0
751,7.139,0.0,-0.78125,0.0
752,7.149,0.0,-0.78125,0.0
753,7.159,-0.78125,-0.78125,0.0
754,7.169,-0.78125,-0.78125,0.0
755,7.179,-0.78125,-0.78125,0.0
756,7.189,-0.78125,-0.78125,0.0
757,7.199,-0.78125,-0.78125,0.0
758,7.209,-0.78125,-0.78125,0.0
759,7.219,-0.78125,-1.5625,0.0
760,7.229,-0.78125,-0.78125,0.0
761,7.239,0.0,-0.78125,0.0
762,7.249,0.0,-0.78125,0.0
763,7.259,0.0,-0.78125,0.0
764,7.269,0.0,-0.78125,0.0
765,7.279,0.0,-0.78125,0.0
766,7.289,0.0,-0.78125,0.0
767,7.299,0.0,-0.78125,0.0
768,7.309,0.0,-0.78125,0.0
769,7.319,-0.78125,-0.78125,0.0
770,7.329,-0.78125,-0.78125,0.0
771,7.339,-0.78125,-0.78125,0.0
772,7.349,-0.78125,-0.78125,0.0
773,7.359,-0.78125,-1.5625,0.0
774,7.369,-0.78125,-0.78125,0.0
775,7.379,-0.78125,-0.78125,0.0
776,7.389,0.0,-0.78125,0.0
777,7.399,-0.78125,-0.78125,0.0
778,7.409,0.0,-0.78125,0.0
779,7.419,0.0,-0.78125,0.0
780,7.429,0.0,-0.78125,0.0
781,7.439,0.0,-0.78125,0.0
782,7.449,0.0,-0.78125,0.0
783,7.459,0.0,-0.78125,0.0
784,7.469,-0.78125,-0.78125,0.0
785,7.479,-0.78125,-0.78125,0.0
786,7.489,-0.78125,-0.78125,0.0
787,7.499,-0.78125,-0.78125,0.0
788,7.509,-0.78125,-1.5625,0.0
789,7.519,-0.78125,-0.78125,0.0
790,7.529,-0.78125,-0.78125,0.0
791,7.539,0.0,-0.78125,0.0
792,7.549,0.0,-0.78125,0.0
793,7.559,0.0,-0.78125,0.0
794,7.569,0.0,-0.78125,0.0
795,7.579,0.0,-0.78125,0.0
796,7.589,0.0,-0.78125,0.0
797,7.599,-0.78125,-0.78125,0.0
798,7.609,-0.78125,-0.78125,0.0
799,7.619,-0.78125,-0.78125,0.0
800,7.629,-0.78125,-0.78125,0.0
801,7.639,-0.78125,-0.78125,0.0
802,7.649,-0.78125,-0.78125,0.0
803,7.659,-0.78125,-1.5625,0.0
804,7.669,-0.78125,-1.5625,0.0
805,7.679,-0.78125,-1.5625,0.0
806,7.689,-0.78125,-0.78125,0.0
807,7.699,-0.78125,-0.78125,0.0
808,7.709,-0.78125,-0.78125,0.0
809,7.719,-0.78125,-0.78125,0.0
810,7.729,-0.78125,-0.78125,0.0
811,7.739,-0.78125,-0.78125,0.0
812,7.749,-0.78125,-0.78125,0.0
813,7.759,-0.78125,-1.5625,0.0
814,7.769,-0.78125,-0.78125,0.0
815,7.779,0.0,-0.78125,0.0
816,7.789,-0.78125,-0.78125,0.0
817,7.799,-0.78125,-0.78125,0.0
818,7.809,-0.78125,-0.78125,0.0
819,7.819,-0.78125,-0.78125,0.0
820,7.829,0.0,-0.78125,0.0
821,7.839,0.0,-0.78125,0.0
822,7.849,0.0,-0.78125,0.0
823,7.859,0.0,-0.78125,0.0
824,7.869,0.0,-0.78125,0.0
825,7.879,0.0,-0.78125,0.0
826,7.889,-0.78125,-0.78125,0.0
827,7.899,-0.78125,-0.78125,0.0
828,7.909,0.0,-0.78125,0.0
829,7.919,-0.78125,-0.78125,0.0
830,7.929,-0.78125,-0.78125,0.0
831,7.939,-0.78125,-0.78125,0.0
832,7.949,-0.78125,-0.78125,0.0
833,7.959,-0.78125,-0.78125,0.0
834,7.969,0.0,-0.78125,0.0
835,7.979,0.0,-0.78125,0.0
836,7.989,-0.78125,-0.78125,0.0
837,7.999,0.0,-0.78125,0.0
838,8.009,0.0,-0.78125,0.0
839,8.019,0.0,-0.78125,0.0
840,8.029,0.0,-0.78125,0.0
841,8.039,0.0,-0.78125,0.0
842,8.049,-0.78125,-0.78125,0.0
843,8.059,-0.78125,-0.78125,0.0
844,8.069,-0.78125,-0.78125,0.0
845,8.079,-0.78125,-0.78125,0.0
846,8.089,-0.78125,-0.78125,0.0
847,8.099,-0.78125,-0.78125,0.0
848,8.109,-0.78125,-0.78125,0.0
849,8.119,-0.78125,-1.5625,0.0
850,8.129,0.0,-0.78125,0.0
851,8.139,0.0,-0.78125,0.0
852,8.149,-0.78125,-0.78125,0.0
853,8.159,0.0,-0.78125,0.0
854,8.169,0.0,-0.78125,0.0
855,8.179,0.0,-0.78125,0.0
856,8.189,-0.78125,-0.78125,0.0
857,8.199,-0.78125,-0.78125,0.0
858,8.209,-0.78125,-0.78125,0.0
859,8.219,-0.78125,-0.78125,0.0
860,8.229,-0.78125,-0.78125,0.0
861,8.239,0.0,-0.78125,0.0
862,8.249,0.0,-0.78125,0.0
863,8.259,0.0,-0.78125,0.0
864,8.269,0.0,-0.78125,0.0
865,8.279,-0.78125,-0.78125,0.0
866,8.289,-0.78125,-0.78125,0.0
867,8.299,-0.78125,-0.78125,0.0
868,8.309,-0.78125,-0.78125,0.0
869,8.319,0.0,-0.78125,0.0
870,8.329,0.0,-0.78125,0.0
871,8.339,0.0,-0.78125,0.0
872,8.349,-0.78125,-0.78125,0.0
873,8.359,-0.78125,-0.78125,0.0
874,8.369,-0.78125,-0.78125,0.0
875,8.379,-0.78125,-0.78125,0.0
876,8.389,-0.78125,-0.78125,0.0
877,8.399,0.0,-0.78125,0.0
878,8.409,0.0,-0.78125,0.0
879,8.419,-0.78125,-0.78125,0.0
880,8.429,-0.78125,-0.78125,0.0
881,8.439,-0.78125,-0.78125,0.0
882,8.449,-0.78125,-0.78125,0.0
883,8.459,-0.78125,-0.78125,0.0
884,8.469,0.0,-0.78125,0.0
885,8.479,0.0,-0.78125,0.0
886,8.489,-0.78125,-0.78125,0.0
887,8.499,0.0,-0.78125,0.0
888,8.509,-0.78125,-0.78125,0.0
889,8.519,-0.78125,-0.78125,0.0
890,8.529,-0.78125,-0.78125,0.0
891,8.539,0.0,-0.78125,0.0
892,8.549,0.0,-0.78125,0.0
893,8.559,-0.78125,-0.78125,0.0
894,8.569,-0.78125,-0.78125,0.0
895,8.579,-0.78125,-0.78125,0.0
896,8.589,-0.78125,-1.5625,0.0
897,8.599,0.0,-0.78125,0.0
898,8.609,0.0,-0.78125,0.0
899,8.619,0.0,-0.78125,0.0
900,8.629,0.0,-0.78125,0.0
901,8.639,-0.78125,-0.78125,0.0
902,8.649,-0.78125,-0.78125,0.0
903,8.659,-0.78125,-1.5625,0.0
904,8.669,-0.78125,-0.78125,0.0
905,8.679,0.0,-0.78125,0.0
906,8.689,0.0,-0.78125,0.0
907,8.699,0.0,-0.78125,0.0
908,8.709,-0.78125,-0.78125,0.0
909,8.719,-0.78125,-0.78125,0.0
910,8.729,-0.78125,-0.78125,0.0
911,8.739,-0.78125,-0.78125,0.0
912,8.749,0.0,-0.78125,0.0
913,8.759,0.0,-0.78125,0.0
914,8.769,0.0,-0.78125,0.0
915,8.779,-0.78125,-0.78125,0.0
916,8.789,-0.78125,-0.78125,0.0
917,8.799,-0.78125,-0.78125,0.0
918,8.809,-0.78125,-0.78125,0.0
919,8.819,-0.78125,-0.78125,0.0
920,8.829,0.0,-0.78125,0.0
921,8.839,0.0,-0.78125,0.0
922,8.849,-0.78125,-0.78125,0.0
923,8.859,-0.78125,-0.78125,0.0
924,8.869,0.0,-0.78125,0.0
925,8.879,0.0,-0.78125,0.0
926,8.889,0.0,-0.78125,0.0
927,8.899,-0.78125,-0.78125,0.0
928,8.909,-0.78125,-0.78125,0.0
929,8.919,0.0,-0.78125,0.0
930,8.929,0.0,-0.78125,0.0
931,8.939,0.0,-0.78125,0.0
932,8.949,0.0,-0.78125,0.0
933,8.959,0.0,-0.78125,0.0
934,8.969,0.0,-0.78125,0.0
935,8.979,0.0,-0.78125,0.0
936,8.989,-0.78125,-0.78125,0.0
937,8.999,-0.78125,-0.78125,0.0
938,9.009,-0.78125,-0.78125,0.0
939,9.019,-0.78125,-1.5625,0.0
940,9.029,0.0,-0.78125,0.0
941,9.039,0.0,-0.78125,0.0
942,9.049,0.0,-0.78125,0.0
943,9.059,-0.78125,-0.78125,0.0
944,9.069,-0.78125,-0.78125,0.0
945,9.079,-0.78125,-0.78125,0.0
946,9.089,-0.78125,-0.78125,0.0
947,9.099,-0.78125,-1.5625,0.0
948,9.109,0.0,-0.78125,0.0
949,9.119,0.0,-0.78125,0.0
950,9.129,0.0,-0.78125,0.0
951,9.139,0.0,-0.78125,0.0
952,9.149,-0.78125,-0.78125,0.0
953,9.159,0.0,-0.78125,0.0
954,9.169,-0.78125,-0.78125,0.0
955,9.179,-0.78125,-0.78125,0.0
956,9.189,-0.78125,-0.78125,0.0
957,9.199,-0.78125,-0.78125,0.0
958,9.209,-0.78125,-0.78125,0.0
959,9.219,-0.78125,-0.78125,0.0
960,9.229,-0.78125,-0.78125,0.0
961,9.239,-0.78125,-0.78125,0.0
962,9.249,-0.78125,-0.78125,0.0
963,9.259,-0.78125,-0.78125,0.0
964,9.269,0.0,-0.78125,0.0
965,9.279,0.0,-0.78125,0.0
966,9.289,0.0,-0.78125,0.0
967,9.299,0.0,-0.78125,0.0
968,9.309,0.0,-0.78125,0.0
969,9.319,0.0,-0.78125,0.0
970,9.329,0.0,-0.78125,0.0
971,9.339,-0.78125,-0.78125,0.0
972,9.349,-0.78125,-0.78125,0.0
973,9.359,-0.78125,-0.78125,0.0
974,9.369,-0.78125,-0.78125,0.0
975,9.379,0.0,-0.78125,0.0
976,9.389,-0.78125,-0.78125,0.0
977,9.399,0.0,-0.78125,0.0
978,9.409,0.0,-0.78125,0.0
979,9.419,0.0,-0.78125,0.0
980,9.429,-0.78125,-0.78125,0.0
981,9.439,-0.78125,-0.78125,0.0
982,9.449,-0.78125,-0.78125,0.0
983,9.459,-0.78125,-0.78125,0.0
984,9.469,0.0,-0.78125,0.0
985,9.479,0.0,-0.78125,0.0
986,9.489,0.0,-0.78125,0.0
987,9.499,-0.78125,-0.78125,0.0
988,9.509,-0.78125,-0.78125,0.0
989,9.519,-0.78125,-0.78125,0.0
990,9.529,0.0,-0.78125,0.0
991,9.539,0.0,-0.78125,0.0
992,9.549,-0.78125,-0.78125,0.0
993,9.559,0.0,-0.78125,0.0
994,9.569,-0.78125,-0.78125,0.0
995,9.579,0.0,-0.78125,0.0
996,9.589,0.0,-0.78125,0.0
997,9.599,0.0,-0.78125,0.0
998,9.609,-0.78125,-0.78125,0.0
999,9.619,-0.78125,-0.78125,0.0
1000,9.629,0.0,-0.78125,0.0
1001,9.639,0.0,-0.78125,0.0
1002,9.649,0.0,-0.78125,0.0
1003,9.659,-0.78125,-0.78125,0.0
1004,9.669,0.0,-0.78125,0.0
1005,9.679,0.0,-0.78125,0.0
1006,9.689,0.0,-0.78125,0.0
1007,9.699,-0.78125,-0.78125,0.0
1008,9.709,-0.78125,-0.78125,0.0
1009,9.719,0.0,-0.78125,0.0
1010,9.729,-0.78125,-0.78125,0.0
1011,9.739,-0.78125,-0.78125,0.0
1012,9.749,0.0,-0.78125,0.0
1013,9.759,-0.78125,-0.78125,0.0
1014,9.769,-0.78125,-0.78125,0.0
1015,9.779,0.0,-0.78125,0.0
1016,9.789,-0.78125,-0.78125,0.0
1017,9.799,-0.78125,-0.78125,0.0
1018,9.809,0.0,-0.78125,0.0
1019,9.819,0.0,-0.78125,0.0
1020,9.829,-0.78125,-0.78125,0.0
1021,9.839,0.0,-0.78125,0.0
1022,9.849,-0.78125,-0.78125,0.0
1023,9.859,0.0,-0.78125,0.0
1024,9.869,-0.78125,-0.78125,0.0
1025,9.879,-0.78125,-0.78125,0.0
1026,9.889,-0.78125,-0.78125,0.0
1027,9.899,-0.78125,-0.78125,0.0
1028,9.909,0.0,-0.78125,0.0
1029,9.919,0.0,-0.78125,0.0
1030,9.929,0.0,-0.78125,0.0
1031,9.939,0.0,-0.78125,0.0
1032,9.949,-0.78125,-0.78125,0.0
1033,9.959,0.0,-0.78125,0.0
1034,9.969,-0.78125,-0.78125,0.0
1035,9.979,-0.78125,-0.78125,0.0
1036,9.989,0.0,-0.78125,0.0
1037,9.999,0.0,-0.78125,0.0
1038,10.009,-0.78125,-0.78125,0.0
1039,10.019,-0.78125,-0.78125,0.0
1040,10.029,-0.78125,-0.78125,0.0
1041,10.039,0.0,-0.78125,0.0
1042,10.049,-0.78125,-0.78125,0.0
1043,10.059,0.0,-0.78125,0.0
1044,10.069,0.0,-0.78125,0.0
1045,10.079,-0.78125,-0.78125,0.0
1046,10.089,0.0,-0.78125,0.0
1047,10.099,-0.78125,-0.78125,0.0
1048,10.109,0.0,-0.78125,0.0
1049,10.119,0.0,-0.78125,0.0
1050,10.129,0.0,-0.78125,0.0
1051,10.139,0.0,-0.78125,0.0
1052,10.149,-0.78125,-0.78125,0.0
1053,10.159,0.0,-0.78125,0.0
1054,10.169,-0.78125,-0.78125,0.0
1055,10.179,-0.78125,-0.78125,0.0
1056,10.189,-0.78125,-0.78125,0.0
1057,10.199,0.0,-0.78125,0.0
1058,10.209,-0.78125,-0.78125,0.0
1059,10.219,-0.78125,-0.78125,0.0
1060,10.229,-0.78125,-0.78125,0.0
1061,10.239,-0.78125,-0.78125,0.0
1062,10.249,-0.78125,-1.5625,0.0
1063,10.259,0.0,-0.78125,0.0
1064,10.269,-0.78125,-0.78125,0.0
1065,10.279,0.0,-0.78125,0.0
1066,10.289,0.0,-0.78125,0.0
1067,10.299,-0.78125,-0.78125,0.0
1068,10.309,0.0,-0.78125,0.0
1069,10.319,-0.78125,-0.78125,0.0
1070,10.329,0.0,-1.5625,0.0
1071,10.339,0.0,-0.78125,0.0
1072,10.349,-0.78125,-0.78125,0.0
1073,10.359,-0.78125,-0.78125,0.0
1074,10.369,-0.78125,-0.78125,0.0
1075,10.379,-0.78125,-0.78125,0.0
1076,10.389,0.0,-0.78125,0.0
1077,10.399,-0.78125,-0.78125,0.0
1078,10.409,0.0,-0.78125,0.0
1079,10.419,-0.78125,-0.78125,0.0
1080,10.429,0.0,-0.78125,0.0
1081,10.439,-0.78125,-0.78125,0.0
1082,10.449,-0.78125,-0.78125,0.0
1083,10.459,0.0,-0.78125,0.0
1084,10.469,-0.78125,-0.78125,0.0
1085,10.479,-0.78125,-0.78125,0.0
1086,10.489,0.0,-0.78125,0.0
1087,10.499,-0.78125,-0.78125,0.0
1088,10.509,0.0,-0.78125,0.0
1089,10.519,0.0,-0.78125,0.0
1090,10.529,0.0,-0.78125,0.0
1091,10.539,-0.78125,-0.78125,0.0
1092,10.549,-0.78125,-0.78125,0.0
1093,10.559,0.0,-0.78125,0.0
1094,10.569,-0.78125,-0.78125,0.0
1095,10.579,-0.78125,-0.78125,0.0
1096,10.589,0.0,-0.78125,0.0
1097,10.599,0.0,-0.78125,0.0
1098,10.609,0.0,-0.78125,0.0
1099,10.619,-0.78125,-0.78125,0.0
1100,10.629,0.0,-0.78125,0.0
1101,10.639,0.0,-0.78125,0.0
1102,10.649,-0.78125,-0.78125,0.0
1103,10.659,-0.78125,-0.78125,0.0
1104,10.669,0.0,-0.78125,0.0
1105,10.679,-0.78125,-0.78125,0.0
1106,10.689,0.0,-1.5625,0.0
1107,10.699,-0.78125,-0.78125,0.0
1108,10.709,0.0,-0.78125,0.0
1109,10.719,0.0,-0.78125,0.0
1110,10.729,-0.78125,-0.78125,0.0
1111,10.739,0.0,-1.5625,0.0
1112,10.749,0.0,-0.78125,0.0
1113,10.759,-0.78125,-0.78125,0.0
1114,10.769,0.0,-0.78125,0.0
1115,10.779,0.0,-0.78125,0.0
1116,10.789,0.0,-0.78125,0.0
1117,10.799,0.0,-0.78125,0.0
1118,10.809,0.0,-0.78125,0.0
1119,10.819,-0.78125,-0.78125,0.0
1120,10.829,-0.78125,-0.78125,0.0
1121,10.839,-0.78125,-0.78125,0.0
1122,10.849,0.0,-0.78125,0.0
1123,10.859,0.78125,-0.78125,0.0
1124,10.869,0.78125,-0.78125,0.0
1125,10.879,0.78125,-0.78125,0.0
1126,10.889,0.0,-0.78125,0.0
1127,10.899,0.0,-0.78125,0.0
1128,10.909,0.0,-0.78125,0.0
1129,10.919,0.0,-0.78125,0.0
1130,10.929,0.0,-0.78125,0.0
1131,10.939,0.0,-0.78125,0.0
1132,10.949,-0.78125,-0.78125,0.0
1133,10.959,-0.78125,-0.78125,0.0
1134,10.969,0.0,-0.78125,0.0
1135,10.979,-0.78125,-0.78125,0.0
1136,10.989,0.0,-0.78125,0.0
1137,10.999,-0.78125,-0.78125,0.0
1138,11.009,0.0,-0.78125,0.0
1139,11.019,-0.78125,-0.78125,0.0
1140,11.029,-0.78125,-0.78125,0.0
1141,11.039,0.0,-0.78125,0.0
1142,11.049,0.0,-0.78125,0.0
1143,11.059,0.0,-0.78125,0.0
1144,11.069,0.0,-0.78125,0.0
1145,11.079,-0.78125,-0.78125,0.0
1146,11.089,0.0,-0.78125,0.0
1147,11.099,0.0,-0.78125,0.0
1148,11.109,0.0,-0.78125,0.0
1149,11.119,0.0,-0.78125,0.0
1150,11.129,0.0,-0.78125,0.0
1151,11.139,0.0,-0.78125,0.0
1152,11.149,-0.78125,-0.78125,0.0
1153,11.159,0.0,-1.5625,0.0
1154,11.169,-0.78125,-0.78125,0.0
1155,11.179,-0.78125,-0.78125,0.0
1156,11.189,0.0,-0.78125,0.0
1157,11.199,0.0,-0.78125,0.0
1158,11.209,0.0,-0.78125,0.0
1159,11.219,0.0,-0.78125,0.0
1160,11.229,0.0,-0.78125,0.0
1161,11.239,0.0,-1.5625,0.0
1162,11.249,-0.78125,-0.78125,0.0
1163,11.259,0.0,-0.78125,0.0
1164,11.269,0.0,-0.78125,0.0
1165,11.279,0.0,-0.78125,0.0
1166,11.289,0.0,-0.78125,0.0
1167,11.299,0.0,-0.78125,0.0
1168,11.309,0.0,-0.78125,0.0
1169,11.319,0.0,-0.78125,0.0
1170,11.329,0.0,-0.78125,0.0
1171,11.339,0.0,-0.78125,0.0
1172,11.349,0.0,-0.78125,0.0
1173,11.359,-0.78125,-0.78125,0.0
1174,11.369,0.0,-0.78125,0.0
1175,11.379,0.0,-0.78125,0.0
1176,11.389,-0.78125,-0.78125,0.0
1177,11.399,0.0,-0.78125,0.0
1178,11.409,0.0,-0.78125,0.0
1179,11.419,-0.78125,-0.78125,0.0
1180,11.429,0.0,-0.78125,0.0
1181,11.439,0.0,-0.78125,0.0
1182,11.449,0.0,-0.78125,0.0
1183,11.459,-0.78125,-0.78125,0.0
1184,11.469,0.0,-0.78125,0.0
1185,11.479,0.0,-0.78125,0.0
1186,11.489,-0.78125,-0.78125,0.0
1187,11.499,0.0,-0.78125,0.0
1188,11.509,0.0,-0.78125,0.0
1189,11.519,-0.78125,-0.78125,0.0
1190,11.529,0.0,-0.78125,0.0
1191,11.539,-0.78125,-0.78125,0.0
1192,11.549,0.0,-0.78125,0.0
1193,11.559,-0.78125,-0.78125,0.0
1194,11.569,0.0,-0.78125,0.0
1195,11.579,0.0,-0.78125,0.0
1196,11.589,0.0,-0.78125,0.0
1197,11.599,0.0,-0.78125,0.0
1198,11.609,0.0,-0.78125,0.0
1199,11.619,-0.78125,-0.78125,0.0
1200,11.629,0.0,-0.78125,0.0
1201,11.639,-0.78125,-0.78125,0.0
1202,11.649,0.0,-0.78125,0.0
1203,11.659,-0.78125,-0.78125,0.0
1204,11.669,0.0,-0.78125,0.0
1205,11.679,0.0,-0.78125,0.0
1206,11.689,-0.78125,-0.78125,0.0
1207,11.699,0.0,-0.78125,0.0
1208,11.709,0.0,-0.78125,0.0
1209,11.719,0.0,-0.78125,0.0
1210,11.729,0.0,-0.78125,0.0
1211,11.739,0.0,-0.78125,0.0
1212,11.749,-0.78125,-0.78125,0.0
1213,11.759,0.0,-0.78125,0.0
1214,11.769,0.0,-0.78125,0.0
1215,11.779,0.0,-0.78125,0.0
1216,11.789,-0.78125,-0.78125,0.0
1217,11.799,0.0,-0.78125,0.0
1218,11.809,-0.78125,-0.78125,0.0
1219,11.819,0.0,-0.78125,0.0
1220,11.829,0.0,-0.78125,0.0
1221,11.839,0.0,-0.78125,0.0
1222,11.849,0.0,-0.78125,0.0
1223,11.859,0.0,-0.78125,0.0
1224,11.869,-0.78125,-0.78125,0.0
1225,11.879,-0.78125,-0.78125,0.0
1226,11.889,0.0,-0.78125,0.0
1227,11.899,0.0,-0.78125,0.0
1228,11.909,0.0,-0.78125,0.0
1229,11.919,0.0,-0.78125,0.0
1230,11.929,-0.78125,-0.78125,0.0
1231,11.939,-0.78125,-0.78125,0.0
1232,11.949,-0.78125,-0.78125,0.0
1233,11.959,0.0,-0.78125,0.0
1234,11.969,0.0,-0.78125,0.0
1235,11.979,0.0,-0.78125,0.0
1236,11.989,-0.78125,-0.78125,0.0
1237,11.999,0.0,-0.78125,0.0
1238,12.009,0.0,-0.78125,0.0
1239,12.019,0.0,-0.78125,0.0
1240,12.029,-0.78125,-0.78125,0.0
1241,12.039,-0.78125,-0.78125,0.0
1242,12.049,-0.78125,-0.78125,0.0
1243,12.059,0.0,-0.78125,0.0
1244,12.069,0.0,-0.78125,0.0
1245,12.079,0.0,-0.78125,0.0
1246,12.089,0.0,-0.78125,0.0
1247,12.099,0.0,-0.78125,0.0
1248,12.109,0.0,-0.78125,0.0
1249,12.119,0.0,-0.78125,0.0
1250,12.129,0.0,-0.78125,0.0
1251,12.139,0.0,-0.78125,0.0
1252,12.149,-0.78125,-0.78125,0.0
1253,12.159,-0.78125,-0.78125,0.0
1254,12.169,-0.78125,-0.78125,0.0
1255,12.179,-0.78125,-0.78125,0.0
1256,12.189,0.0,-0.78125,0.0
1257,12.199,0.0,-0.78125,0.0
1258,12.209,-0.78125,-0.78125,0.0
1259,12.219,0.0,-0.78125,0.0
1260,12.229,-0.78125,-0.78125,0.0
1261,12.239,0.0,-0.78125,0.0
1262,12.249,0.0,-0.78125,0.0
1263,12.259,-0.78125,-0.78125,0.0
1264,12.269,0.0,-0.78125,0.0
1265,12.279,-0.78125,-0.78125,0.0
1266,12.289,0.0,-0.78125,0.0
1267,12.299,-0.78125,-0.78125,0.0
1268,12.309,0.0,-0.78125,0.0
1269,12.319,-0.78125,-1.5625,0.0
1270,12.329,-0.78125,-0.78125,0.0
1271,12.339,0.0,-0.78125,0.0
1272,12.349,0.0,-0.78125,0.0
1273,12.359,0.0,-0.78125,0.0
1274,12.369,0.0,-0.78125,0.0
1275,12.379,0.0,-0.78125,0.0
1276,12.389,0.0,-0.78125,0.0
1277,12.399,-0.78125,-0.78125,0.0
1278,12.409,-0.78125,-0.78125,0.0
1279,12.419,0.0,-0.78125,0.0
1280,12.429,0.0,-0.78125,0.0
1281,12.439,0.0,-0.78125,0.0
1282,12.449,-0.78125,-0.78125,0.0
1283,12.459,0.0,-0.78125,0.0
1284,12.469,-0.78125,-0.78125,0.0
1285,12.479,-0.78125,-0.78125,0.0
1286,12.489,-0.78125,-0.78125,0.0
1287,12.499,0.0,-0.78125,0.0
1288,12.509,0.0,-0.78125,0.0
1289,12.519,0.0,-0.78125,0.0
1290,12.529,0.0,-0.78125,0.0
1291,12.539,-0.78125,-0.78125,0.0
1292,12.549,-0.78125,-0.78125,0.0
1293,12.559,0.0,-0.78125,0.0
1294,12.569,0.0,-1.5625,0.0
1295,12.579,0.0,-0.78125,0.0
1296,12.589,0.0,-0.78125,0.0
1297,12.599,0.0,-0.78125,0.0
1298,12.609,0.0,-0.78125,0.0
1299,12.619,-0.78125,-0.78125,0.0
1300,12.629,0.0,-0.78125,0.0
1301,12.639,-0.78125,-0.78125,0.0
1302,12.649,0.0,-0.78125,0.0
1303,12.659,-0.78125,-0.78125,0.0
1304,12.669,0.0,-0.78125,0.0
1305,12.679,0.0,-0.78125,0.0
1306,12.689,-0.78125,-0.78125,0.0
1307,12.699,0.0,-0.78125,0.0
1308,12.709,-0.78125,-0.78125,0.0
1309,12.719,0.0,-0.78125,0.0
1310,12.729,0.0,-0.78125,0.0
1311,12.739,0.0,-0.78125,0.0
1312,12.749,0.0,-0.78125,0.0
1313,12.759,-0.78125,-0.78125,0.0
1314,12.769,0.0,-0.78125,0.0
1315,12.779,-0.78125,-0.78125,0.0
1316,12.789,0.0,-0.78125,0.0
1317,12.799,0.0,-0.78125,0.0
1318,12.809,-0.78125,-0.78125,0.0
1319,12.819,-0.78125,-0.78125,0.0
1320,12.829,-0.78125,-0.78125,0.0
1321,12.839,0.0,-0.78125,0.0
1322,12.849,0.0,-0.78125,0.0
1323,12.859,-0.78125,-0.78125,0.0
1324,12.869,-0.78125,-0.78125,0.0
1325,12.879,0.0,-0.78125,0.0
1326,12.889,0.0,-0.78125,0.0
1327,12.899,0.0,-0.78125,0.0
1328,12.909,0.0,-0.78125,0.0
1329,12.919,0.0,-0.78125,0.0
1330,12.929,0.0,-0.78125,0.0
1331,12.939,0.0,-0.78125,0.0
1332,12.949,0.0,-0.78125,0.0
1333,12.959,-0.78125,-0.78125,0.0
1334,12.969,0.0,-0.78125,0.0
1335,12.979,-0.78125,-0.78125,0.0
1336,12.989,0.0,-0.78125,0.0
1337,12.999,0.0,-0.78125,0.0
1338,13.009,0.0,-0.78125,0.0
1339,13.019,0.0,-0.78125,0.0
1340,13.029,0.0,-0.78125,0.0
1341,13.039,0.0,-0.78125,0.0
1342,13.049,0.0,-0.78125,0.0
1343,13.059,0.0,-0.78125,0.0
1344,13.069,0.0,-0.78125,0.0
1345,13.079,0.0,-0.78125,0.0
1346,13.089,-0.78125,-0.78125,0.0
1347,13.099,-0.78125,-0.78125,0.0
1348,13.109,0.0,-0.78125,0.0
1349,13.119,-0.78125,-0.78125,0.0
1350,13.129,0.0,-0.78125,0.0
1351,13.139,-0.78125,-0.78125,0.0
1352,13.149,-0.78125,-0.78125,0.0
1353,13.159,0.0,-0.78125,0.0
1354,13.169,0.0,-0.78125,0.0
1355,13.179,0.0,-0.78125,0.0
1356,13.189,0.0,-0.78125,0.0
1357,13.199,0.0,-0.78125,0.0
1358,13.209,0.0,-0.78125,0.0
1359,13.219,0.0,-0.78125,0.0
1360,13.229,0.0,-0.78125,0.0
1361,13.239,0.0,-0.78125,0.0
1362,13.249,0.0,-0.78125,0.0
1363,13.259,-0.78125,-0.78125,0.0
1364,13.269,0.0,-0.78125,0.0
1365,13.279,-0.78125,-0.78125,0.0
1366,13.289,0.0,-0.78125,0.0
1367,13.299,0.0,-0.78125,0.0
1368,13.309,-0.78125,-0.78125,0.0
1369,13.319,0.0,-0.78125,0.0
1370,13.329,0.0,-0.78125,0.0
1371,13.339,0.0,-0.78125,0.0
1372,13.349,-0.78125,-0.78125,0.0
1373,13.359,-0.78125,-0.78125,0.0
1374,13.369,-0.78125,-0.78125,0.0
1375,13.379,0.0,-0.78125,0.0
1376,13.389,-0.78125,-0.78125,0.0
1377,13.399,0.0,-0.78125,0.0
1378,13.409,-0.78125,-0.78125,0.0
1379,13.419,-0.78125,-0.78125,0.0
1380,13.429,0.0,-0.78125,0.0
1381,13.439,0.0,-0.78125,0.0
1382,13.449,0.0,-0.78125,0.0
1383,13.459,0.0,-0.78125,0.0
1384,13.469,-0.78125,-0.78125,0.0
1385,13.479,0.0,-0.78125,0.0
1386,13.489,0.0,-0.78125,0.0
1387,13.499,0.0,-0.78125,0.0
1388,13.509,-0.78125,-0.78125,0.0
1389,13.519,0.0,-0.78125,0.0
1390,13.529,0.0,-0.78125,0.0
1391,13.539,0.0,-0.78125,0.0
1392,13.549,-0.78125,-0.78125,0.0
1393,13.559,0.0,-0.78125,0.0
1394,13.569,-0.78125,-0.78125,0.0
1395,13.579,0.0,-0.78125,0.0
1396,13.589,0.0,-0.78125,0.0
1397,13.599,0.0,-0.78125,0.0
1398,13.609,-0.78125,-0.78125,0.0
1399,13.619,-0.78125,-0.78125,0.0
1400,13.629,0.0,-0.78125,0.0
1401,13.639,0.0,-0.78125,0.0
1402,13.649,0.0,-0.78125,0.0
1403,13.659,0.0,-0.78125,0.0
1404,13.669,0.0,-0.78125,0.0
1405,13.679,0.0,-0.78125,0.0
1406,13.689,-0.78125,-0.78125,0.0
1407,13.699,-0.78125,-0.78125,0.0
1408,13.709,0.0,-0.78125,0.0
1409,13.719,0.0,-0.78125,0.0
1410,13.729,0.0,-0.78125,0.0
1411,13.739,-0.78125,-0.78125,0.0
1412,13.749,-0.78125,-0.78125,0.0
1413,13.759,0.0,-0.78125,0.0
1414,13.769,-0.78125,-0.78125,0.0
1415,13.779,0.0,-0.78125,0.0
1416,13.789,0.0,-0.78125,0.0
1417,13.799,0.0,-0.78125,0.0
1418,13.809,0.0,-0.78125,0.0
1419,13.819,-0.78125,-0.78125,0.0
1420,13.829,0.0,-0.78125,0.0
1421,13.839,0.0,-0.78125,0.0
1422,13.849,0.0,-0.78125,0.0
1423,13.859,0.0,-0.78125,0.0
1424,13.869,-0.78125,-0.78125,0.0
1425,13.879,0.0,-0.78125,0.0
1426,13.889,-0.78125,-0.78125,0.0
1427,13.899,-0.78125,-0.78125,0.0
1428,13.909,0.0,-0.78125,0.0
1429,13.919,0.0,-0.78125,0.0
1430,13.929,-0.78125,-0.78125,0.0
1431,13.939,0.0,-0.78125,0.0
1432,13.949,-0.78125,-0.78125,0.0
1433,13.959,0.0,-0.78125,0.0
1434,13.969,0.0,-0.78125,0.0
1435,13.979,-0.78125,-0.78125,0.0
1436,13.989,0.0,-0.78125,0.0
1437,13.999,-0.78125,-0.78125,0.0
1438,14.009,0.0,-0.78125,0.0
1439,14.019,-0.78125,-0.78125,0.0
1440,14.029,0.0,-0.78125,0.0
1441,14.039,-0.78125,-0.78125,0.0
1442,14.049,-0.78125,-0.78125,0.0
1443,14.059,-0.78125,-0.78125,0.0
1444,14.069,-0.78125,-0.78125,0.0
1445,14.079,-0.78125,-0.78125,0.0
1446,14.089,-0.78125,-0.78125,0.0
1447,14.099,-0.78125,-0.78125,0.0
1448,14.109,0.0,-0.78125,0.0
1449,14.119,-0.78125,-0.78125,0.0
1450,14.129,0.0,-0.78125,0.0
1451,14.139,0.0,-0.78125,0.0
1452,14.149,0.0,-0.78125,0.0
1453,14.159,0.0,-0.78125,0.0
1454,14.169,0.0,-0.78125,0.0
1455,14.179,-0.78125,-0.78125,0.0
1456,14.189,-0.78125,-0.78125,0.0
1457,14.199,-0.78125,-0.78125,0.0
1458,14.209,-0.78125,-0.78125,0.0
1459,14.219,-0.78125,-0.78125,0.0
1460,14.229,0.0,-0.78125,0.0
1461,14.239,-0.78125,-0.78125,0.0
1462,14.249,0.0,-0.78125,0.0
1463,14.259,-0.78125,-0.78125,0.0
1464,14.269,-0.78125,-1.5625,0.0
1465,14.279,-0.78125,-0.78125,0.0
1466,14.289,0.0,-0.78125,0.0
1467,14.299,-0.78125,-0.78125,0.0
1468,14.309,0.0,-0.78125,0.0
1469,14.319,0.0,-0.78125,0.0
1470,14.329,-0.78125,-0.78125,0.0
1471,14.339,-0.78125,-0.78125,0.0
1472,14.349,-0.78125,-0.78125,0.0
1473,14.359,-0.78125,-0.78125,0.0
1474,14.369,-0.78125,-0.78125,0.0
1475,14.379,-0.78125,-0.78125,0.0
1476,14.389,-0.78125,-0.78125,0.0
1477,14.399,-0.78125,-0.78125,0.0
1478,14.409,-0.78125,-0.78125,0.0
1479,14.419,0.0,-0.78125,0.0
1480,14.429,-0.78125,-0.78125,0.0
1481,14.439,-0.78125,-0.78125,0.0
1482,14.449,-0.78125,-0.78125,0.0
1483,14.459,-0.78125,-0.78125,0.0
1484,14.469,-0.78125,-0.78125,0.0
1485,14.479,-0.78125,-0.78125,0.0
1486,14.489,0.0,-0.78125,0.0
1487,14.499,-0.78125,-0.78125,0.0
1488,14.509,0.0,-0.78125,0.0
1489,14.519,-0.78125,-0.78125,0.0
1490,14.529,0.0,-0.78125,0.0
1491,14.539,-0.78125,-0.78125,0.0
1492,14.549,-0.78125,-0.78125,0.0
1493,14.559,-0.78125,-0.78125,0.0
1494,14.569,-0.78125,-0.78125,0.0
1495,14.579,0.0,-0.78125,0.0
1496,14.589,-0.78125,-0.78125,0.0
1497,14.599,-0.78125,-0.78125,0.0
1498,14.609,0.0,-0.78125,0.0
1499,14.619,-0.78125,-0.78125,0.0
1500,14.629,0.0,-0.78125,0.0
1501,14.639,-0.78125,-0.78125,0.0
1502,14.649,-0.78125,-0.78125,0.0
1503,14.659,0.0,-0.78125,0.0
1504,14.669,0.0,-0.78125,0.0
1505,14.679,-0.78125,-0.78125,0.0
1506,14.689,-0.78125,-0.78125,0.0
1507,14.699,0.0,-1.5625,0.0
1508,14.709,-0.78125,-0.78125,0.0
1509,14.719,-0.78125,-0.78125,0.0
1510,14.729,0.0,-0.78125,0.0
1511,14.739,-0.78125,-0.78125,0.0
1512,14.749,0.0,-0.78125,0.0
1513,14.759,-0.78125,-0.78125,0.0
1514,14.769,-0.78125,-0.78125,0.0
1515,14.779,-0.78125,-0.78125,0.0
1516,14.789,-0.78125,-0.78125,0.0
1517,14.799,-0.78125,-0.78125,0.0
1518,14.809,0.0,-0.78125,0.0
1519,14.819,-0.78125,-0.78125,0.0
1520,14.829,-0.78125,-0.78125,0.0
1521,14.839,-0.78125,-0.78125,0.0
1522,14.849,0.0,-0.78125,0.0
1523,14.859,-0.78125,-0.78125,0.0
1524,14.869,-0.78125,-0.78125,0.0
1525,14.879,-0.78125,-0.78125,0.0
1526,14.889,-0.78125,-0.78125,0.0
1527,14.899,-0.78125,-0.78125,0.0
1528,14.909,-0.78125,-0.78125,0.0
1529,14.919,-0.78125,-0.78125,0.0
1530,14.929,-0.78125,-0.78125,0.0
1531,14.939,0.0,-0.78125,0.0
1532,14.949,-0.78125,-0.78125,0.0
1533,14.959,-0.78125,-0.78125,0.0
1534,14.969,-0.78125,-0.78125,0.0
1535,14.979,-0.78125,-0.78125,0.0
1536,14.989,-0.78125,-0.78125,0.0
1537,14.999,-0.78125,-0.78125,0.0
1538,15.009,-0.78125,-0.78125,0.0
1539,15.019,-0.78125,-0.78125,0.0
1540,15.029,0.0,-0.78125,0.0
1541,15.039,-0.78125,-0.78125,0.0
1542,15.049,-0.78125,-0.78125,0.0
1543,15.059,-0.78125,-0.78125,0.0
1544,15.069,-0.78125,-0.78125,0.0
1545,15.079,-0.78125,-0.78125,0.0
1546,15.089,0.0,-0.78125,0.0
1547,15.099,-0.78125,-0.78125,0.0
1548,15.109,-0.78125,-0.78125,0.0
1549,15.119,-0.78125,-0.78125,0.0
1550,15.129,-0.78125,-0.78125,0.0
1551,15.139,-0.78125,-0.78125,0.0
1552,15.149,-0.78125,-0.78125,0.0
1553,15.159,-0.78125,-0.78125,0.0
1554,15.169,-0.78125,-0.78125,0.0
1555,15.179,-0.78125,-0.78125,0.0
1556,15.189,-0.78125,-0.78125,0.0
1557,15.199,0.0,-0.78125,0.0
1558,15.209,-0.78125,-0.78125,0.0
1559,15.219,-0.78125,-0.78125,0.0
1560,15.229,-0.78125,-0.78125,0.0
1561,15.239,-0.78125,-0.78125,0.0
1562,15.249,0.0,-0.78125,0.0
1563,15.259,-0.78125,-0.78125,0.0
1564,15.269,-0.78125,-0.78125,0.0
1565,15.279,-0.78125,-0.78125,0.0
1566,15.289,-0.78125,-0.78125,0.0
1567,15.299,-0.78125,-0.78125,0.0
1568,15.309,-0.78125,-0.78125,0.0
1569,15.319,-0.78125,-0.78125,0.0
1570,15.329,0.0,-0.78125,0.0
1571,15.339,0.0,-0.78125,0.0
1572,15.349,-0.78125,-0.78125,0.0
1573,15.359,-0.78125,-0.78125,0.0
1574,15.369,-0.78125,-0.78125,0.0
1575,15.379,-0.78125,-0.78125,0.0
1576,15.389,0.0,-0.78125,0.0
1577,15.399,-0.78125,-0.78125,0.0
1578,15.409,-0.78125,-1.5625,0.0
1579,15.419,-0.78125,-0.78125,0.0
1580,15.429,-0.78125,-0.78125,0.0
1581,15.439,0.0,-0.78125,0.0
1582,15.449,-0.78125,-0.78125,0.0
1583,15.459,-0.78125,-0.78125,0.0
1584,15.469,-0.78125,-0.78125,0.0
1585,15.479,-0.78125,-0.78125,0.0
1586,15.489,-0.78125,-0.78125,0.0
1587,15.499,-0.78125,-0.78125,0.0
1588,15.509,0.0,-0.78125,0.0
1589,15.519,-0.78125,-0.78125,0.0
1590,15.529,0.0,-0.78125,0.0
1591,15.539,-0.78125,-0.78125,0.0
1592,15.549,-0.78125,-0.78125,0.0
1593,15.559,-0.78125,-0.78125,0.0
1594,15.569,-0.78125,-0.78125,0.0
1595,15.579,0.0,-0.78125,0.0
1596,15.589,0.0,-0.78125,0.0
1597,15.599,-0.78125,-0.78125,0.0
1598,15.609,-0.78125,-0.78125,0.0
1599,15.619,-0.78125,-0.78125,0.0
1600,15.629,-0.78125,-0.78125,0.0
1601,15.639,-0.78125,-0.78125,0.0
1602,15.649,-0.78125,-0.78125,0.0
1603,15.659,-0.78125,-0.78125,0.0
1604,15.669,0.0,-0.78125,0.0
1605,15.679,-0.78125,-0.78125,0.0
1606,15.689,0.0,-0.78125,0.0
1607,15.699,-0.78125,-0.78125,0.0
1608,15.709,-0.78125,-0.78125,0.0
1609,15.719,-0.78125,-0.78125,0.0
1610,15.729,0.0,-0.78125,0.0
1611,15.739,-0.78125,-0.78125,0.0
1612,15.749,-0.78125,-0.78125,0.0
1613,15.759,-0.78125,-0.78125,0.0
1614,15.769,0.0,-0.78125,0.0
1615,15.779,0.0,-1.5625,0.0
1616,15.789,0.0,-0.78125,0.0
1617,15.799,-0.78125,-0.78125,0.0
1618,15.809,0.0,-0.78125,0.0
1619,15.819,-0.78125,-0.78125,0.0
1620,15.829,-0.78125,0.0,0.0
1621,15.839,0.0,-0.78125,0.0
1622,15.849,-0.78125,-0.78125,0.0
1623,15.859,-0.78125,-0.78125,0.0
1624,15.869,-0.78125,-1.5625,0.0
1625,15.879,-0.78125,-0.78125,0.0
1626,15.889,0.0,-0.78125,0.0
1627,15.899,-0.78125,-0.78125,0.0
1628,15.909,0.0,-0.78125,0.0
1629,15.919,0.0,-0.78125,0.0
1630,15.929,-0.78125,-0.78125,0.0
1631,15.939,-0.78125,-1.5625,0.0
1632,15.949,-0.78125,-1.5625,0.0
1633,15.959,-0.78125,-1.5625,0.0
1634,15.969,0.0,-0.78125,0.0
1635,15.979,-0.78125,-0.78125,0.0
1636,15.989,-0.78125,-1.5625,0.0
1637,15.999,0.0,-1.5625,0.0
1638,16.009,-0.78125,-0.78125,0.0
1639,16.019,0.0,-0.78125,0.0
1640,16.029,-0.78125,-0.78125,0.0
1641,16.039,-0.78125,-0.78125,0.0
1642,16.049,0.0,-0.78125,0.0
1643,16.059,-0.78125,-0.78125,0.0
1644,16.069,-0.78125,-1.5625,0.0
1645,16.079,0.0,-1.5625,0.0
1646,16.089,-0.78125,-0.78125,0.0
1647,16.099,-0.78125,-0.78125,0.0
1648,16.109,-0.78125,-0.78125,0.0
1649,16.119,-0.78125,-0.78125,0.0
1650,16.129,0.0,-0.78125,0.0
1651,16.139,-0.78125,-0.78125,0.0
1652,16.149,0.0,-0.78125,0.0
1653,16.159,-0.78125,-0.78125,0.0
1654,16.169,-0.78125,-0.78125,0.0
1655,16.179,-0.78125,-0.78125,0.0
1656,16.189,-0.78125,-0.78125,0.0
1657,16.199,-0.78125,-0.78125,0.0
1658,16.209,-0.78125,-0.78125,0.0
1659,16.219,-0.78125,-0.78125,0.0
1660,16.229,-0.78125,-0.78125,0.0
1661,16.239,-0.78125,-0.78125,0.0
1662,16.249,-0.78125,-0.78125,0.0
1663,16.259,-0.78125,-0.78125,0.0
1664,16.269,-0.78125,-0.78125,0.0
1665,16.279,-0.78125,-0.78125,0.0
1666,16.289,-0.78125,-0.78125,0.0
1667,16.299,-0.78125,-0.78125,0.0
1668,16.309,0.0,-0.78125,0.0
1669,16.319,-0.78125,-0.78125,0.0
1670,16.329,-0.78125,-0.78125,0.0
1671,16.339,0.0,-0.78125,0.0
1672,16.349,-0.78125,-0.78125,0.0
1673,16.359,0.0,-0.78125,0.0
1674,16.369,-0.78125,-0.78125,0.0
1675,16.379,-0.78125,-0.78125,0.0
1676,16.389,-0.78125,-0.78125,0.0
1677,16.399,-0.78125,-0.78125,0.0
1678,16.409,-0.78125,-0.78125,0.0
1679,16.419,-0.78125,-1.5625,0.0
1680,16.429,0.0,-0.78125,0.0
1681,16.439,-0.78125,-0.78125,0.0
1682,16.449,-0.78125,-0.78125,0.0
1683,16.459,0.0,-1.5625,0.0
1684,16.469,0.0,-0.78125,0.0
1685,16.479,0.0,-0.78125,0.0
1686,16.489,-0.78125,-0.78125,0.0
1687,16.499,-0.78125,-0.78125,0.0
1688,16.509,-0.78125,-0.78125,0.0
1689,16.519,-0.78125,-0.78125,0.0
1690,16.529,0.0,-0.78125,0.0
1691,16.539,0.0,-0.78125,0.0
1692,16.549,-0.78125,-0.78125,0.0
1693,16.559,-0.78125,-0.78125,0.0
1694,16.569,-0.78125,-0.78125,0.0
1695,16.579,-0.78125,-0.78125,0.0
1696,16.589,0.0,-0.78125,0.0
1697,16.599,-0.78125,-0.78125,0.0
1698,16.609,0.0,-0.78125,0.0
1699,16.619,-0.78125,-0.78125,0.0
1700,16.629,0.0,-0.78125,0.0
1701,16.639,-0.78125,-0.78125,0.0
1702,16.649,-0.78125,-0.78125,0.0
1703,16.659,-0.78125,-0.78125,0.0
1704,16.669,-0.78125,-0.78125,0.0
1705,16.679,-0.78125,-0.78125,0.0
1706,16.689,-0.78125,-0.78125,0.0
1707,16.699,-0.78125,-0.78125,0.0
1708,16.709,-0.78125,-0.78125,0.0
1709,16.719,-0.78125,-0.78125,0.0
1710,16.729,-0.78125,-0.78125,0.0
1711,16.739,0.0,-0.78125,0.0
1712,16.749,-0.78125,-0.78125,0.0
1713,16.759,-0.78125,-0.78125,0.0
1714,16.769,-0.78125,-0.78125,0.0
1715,16.779,-0.78125,-0.78125,0.0
1716,16.789,-0.78125,-0.78125,0.0
1717,16.799,-0.78125,-0.78125,0.0
1718,16.809,-0.78125,-0.78125,0.0
1719,16.819,-0.78125,-0.78125,0.0
1720,16.829,-0.78125,-0.78125,0.0
1721,16.839,-0.78125,-0.78125,0.0
1722,16.849,-0.78125,-0.78125,0.0
1723,16.859,-0.78125,-0.78125,0.0
1724,16.869,-0.78125,-0.78125,0.0
1725,16.879,-0.78125,-1.5625,0.0
1726,16.889,-0.78125,-0.78125,0.0
1727,16.899,0.0,-0.78125,0.0
1728,16.909,-0.78125,-0.78125,0.0
1729,16.919,-0.78125,-0.78125,0.0
1730,16.929,-0.78125,-0.78125,0.0
1731,16.939,-0.78125,-0.78125,0.0
1732,16.949,-0.78125,-0.78125,0.0
1733,16.959,0.0,-0.78125,0.0
1734,16.969,0.0,-0.78125,0.0
1735,16.979,0.0,-0.78125,0.0
1736,16.989,0.0,-0.78125,0.0
1737,16.999,0.0,-0.78125,0.0
1738,17.009,-0.78125,-0.78125,0.0
1739,17.019,-0.78125,-0.78125,0.0
1740,17.029,-0.78125,-0.78125,0.0
1741,17.039,-0.78125,-0.78125,0.0
1742,17.049,-0.78125,-0.78125,0.0
1743,17.059,0.0,-0.78125,0.0
1744,17.069,-0.78125,-0.78125,0.0
1745,17.079,-0.78125,-0.78125,0.0
1746,17.089,0.0,-0.78125,0.0
1747,17.099,-0.78125,-0.78125,0.0
1748,17.109,-0.78125,-0.78125,0.0
1749,17.119,0.0,-0.78125,0.0
1750,17.129,-0.78125,-0.78125,0.0
1751,17.139,-0.78125,-0.78125,0.0
1752,17.149,0.0,-0.78125,0.0
1753,17.159,-0.78125,-0.78125,0.0
1754,17.169,-0.78125,-0.78125,0.0
1755,17.179,-0.78125,-0.78125,0.0
1756,17.189,-0.78125,-0.78125,0.0
1757,17.199,-0.78125,-0.78125,0.0
1758,17.209,-0.78125,-0.78125,0.0
1759,17.219,-0.78125,-0.78125,0.0
1760,17.229,-0.78125,-0.78125,0.0
1761,17.239,-0.78125,-0.78125,0.0
1762,17.249,-0.78125,-0.78125,0.0
1763,17.259,-0.78125,-0.78125,0.0
1764,17.269,0.0,-0.78125,0.0
1765,17.279,-0.78125,-0.78125,0.0
1766,17.289,0.0,-0.78125,0.0
1767,17.299,-0.78125,-0.78125,0.0
1768,17.309,-0.78125,-0.78125,0.0
1769,17.319,-0.78125,-0.78125,0.0
1770,17.329,-0.78125,-0.78125,0.0
1771,17.339,-0.78125,-0.78125,0.0
1772,17.349,-0.78125,-0.78125,0.0
1773,17.359,0.0,-0.78125,0.0
1774,17.369,-0.78125,-1.5625,0.0
1775,17.379,-0.78125,-0.78125,0.0
1776,17.389,-0.78125,-0.78125,0.0
1777,17.399,-0.78125,-1.5625,0.0
1778,17.409,-0.78125,-0.78125,0.0
1779,17.419,-0.78125,-0.78125,0.0
1780,17.429,-0.78125,-0.78125,0.0
1781,17.439,-0.78125,-0.78125,0.0
1782,17.449,0.0,-0.78125,0.0
1783,17.459,-0.78125,-0.78125,0.0
1784,17.469,-0.78125,-0.78125,0.0
1785,17.479,-0.78125,-0.78125,0.0
1786,17.489,-0.78125,-0.78125,0.0
1787,17.499,-0.78125,-0.78125,0.0
1788,17.509,-0.78125,0.0,0.0
1789,17.519,-0.78125,-0.78125,0.0
1790,17.529,-0.78125,-0.78125,0.0
1791,17.539,-0.78125,-0.78125,0.0
1792,17.549,-0.78125,0.0,0.0
1793,17.559,0.0,0.0,0.0
1794,17.569,-0.78125,-0.78125,0.0
1795,17.579,-0.78125,-2.34375,0.0
1796,17.589,-0.78125,-1.5625,0.0
1797,17.599,-0.78125,-0.78125,0.0
1798,17.609,0.0,0.78125,0.0
1799,17.619,-0.78125,-0.78125,0.0
1800,17.629,-0.78125,-3.125,0.0
1801,17.639,0.0,-1.5625,0.0
1802,17.649,0.0,0.0,0.0
1803,17.659,0.0,0.0,0.0
1804,17.669,-0.78125,-0.78125,0.0
1805,17.679,-0.78125,-2.34375,0.0
1806,17.689,-0.78125,-0.78125,0.0
1807,17.699,-0.78125,-0.78125,0.0
1808,17.709,-0.78125,-1.5625,0.0
1809,17.719,-0.78125,-0.78125,0.0
1810,17.729,-0.78125,-0.78125,0.0
1811,17.739,-0.78125,-0.78125,0.0
1812,17.749,0.0,-0.78125,0.0
1813,17.759,-0.78125,-1.5625,0.0
1814,17.769,-0.78125,-0.78125,0.0
1815,17.779,-0.78125,-1.5625,0.0
1816,17.789,-0.78125,-0.78125,0.0
1817,17.799,0.0,-0.78125,0.0
1818,17.809,-0.78125,-0.78125,0.0
1819,17.819,-0.78125,-0.78125,0.0
1820,17.829,-0.78125,-0.78125,0.0
1821,17.839,-0.78125,-1.5625,0.0
1822,17.849,0.0,-1.5625,0.0
1823,17.859,0.0,-0.78125,0.0
1824,17.869,-0.78125,-0.78125,0.0
1825,17.879,-0.78125,-0.78125,0.0
1826,17.889,0.0,-0.78125,0.0
1827,17.899,-1.5625,-0.78125,0.0
1828,17.909,-0.78125,-0.78125,0.0
1829,17.919,0.0,-0.78125,0.0
1830,17.929,-0.78125,-0.78125,0.0
1831,17.939,-0.78125,-0.78125,0.0
1832,17.949,-0.78125,-0.78125,0.0
1833,17.959,-0.78125,-0.78125,0.0
1834,17.969,-0.78125,-0.78125,0.0
1835,17.979,0.0,-0.78125,0.0
1836,17.989,0.0,-0.78125,0.0
1837,17.999,-0.78125,-0.78125,0.0
1838,18.009,-0.78125,-0.78125,0.0
1839,18.019,0.0,-0.78125,0.0
1840,18.029,0.0,-0.78125,0.0
1841,18.039,-0.78125,-0.78125,0.0
1842,18.049,-0.78125,-0.78125,0.0
1843,18.059,-0.78125,-0.78125,0.0
1844,18.069,-0.78125,-0.78125,0.0
1845,18.079,-0.78125,-0.78125,0.0
1846,18.089,0.0,-0.78125,0.0
1847,18.099,0.0,-0.78125,0.0
1848,18.109,-0.78125,-0.78125,0.0
1849,18.119,-0.78125,-0.78125,0.0
1850,18.129,-0.78125,-0.78125,0.0
1851,18.139,-0.78125,-0.78125,0.0
1852,18.149,0.0,-0.78125,0.0
1853,18.159,-0.78125,-0.78125,0.0
1854,18.169,-0.78125,-0.78125,0.0
1855,18.179,-0.78125,-0.78125,0.0
1856,18.189,-0.78125,-0.78125,0.0
1857,18.199,-0.78125,-0.78125,0.0
1858,18.209,0.0,-0.78125,0.0
1859,18.219,-0.78125,-0.78125,0.0
1860,18.229,-0.78125,-1.5625,0.0
1861,18.239,-0.78125,-0.78125,0.0
1862,18.249,-0.78125,-0.78125,0.0
1863,18.259,-0.78125,-0.78125,0.0
1864,18.269,-0.78125,-0.78125,0.0
1865,18.279,-0.78125,-0.78125,0.0
1866,18.289,-0.78125,-0.78125,0.0
1867,18.299,-0.78125,-0.78125,0.0
1868,18.309,-0.78125,-0.78125,0.0
1869,18.319,-0.78125,-0.78125,0.0
1870,18.329,-0.78125,-0.78125,0.0
1871,18.339,-0.78125,-0.78125,0.0
1872,18.349,0.0,-0.78125,0.0
1873,18.359,-0.78125,-0.78125,0.0
1874,18.369,0.0,-0.78125,0.0
1875,18.379,-0.78125,-0.78125,0.0
1876,18.389,-0.78125,-0.78125,0.0
1877,18.399,-0.78125,-0.78125,0.0
1878,18.409,0.0,-1.5625,0.0
1879,18.419,-0.78125,-1.5625,0.0
1880,18.429,-0.78125,-0.78125,0.0
1881,18.439,-0.78125,-0.78125,0.0
1882,18.449,-0.78125,-0.78125,0.0
1883,18.459,0.0,-0.78125,0.0
1884,18.469,-0.78125,-0.78125,0.0
1885,18.479,-0.78125,-0.78125,0.0
1886,18.489,-0.78125,-0.78125,0.0
1887,18.499,-0.78125,-1.5625,0.0
1888,18.509,-0.78125,-1.5625,0.0
1889,18.519,0.0,-0.78125,0.0
1890,18.529,-0.78125,0.0,0.0
1891,18.539,-0.78125,-1.5625,0.0
1892,18.549,-0.78125,-1.5625,0.0
1893,18.559,-0.78125,-0.78125,0.0
1894,18.569,-0.78125,-0.78125,0.0
1895,18.579,0.0,0.0,0.0
1896,18.589,-0.78125,-0.78125,0.0
1897,18.599,-0.78125,-1.5625,0.0
1898,18.609,-0.78125,-1.5625,0.0
1899,18.619,-0.78125,-1.5625,0.0
1900,18.629,0.0,-0.78125,0.0
1901,18.639,-0.78125,0.0,0.0
1902,18.649,-0.78125,-0.78125,0.0
1903,18.659,-0.78125,-1.5625,0.0
1904,18.669,0.0,-0.78125,0.0
1905,18.679,-0.78125,-0.78125,0.0
1906,18.689,-0.78125,-0.78125,0.0
1907,18.699,-0.78125,-1.5625,0.0
1908,18.709,-0.78125,-1.5625,0.0
1909,18.719,-0.78125,-0.78125,0.0
1910,18.729,-0.78125,-0.78125,0.0
1911,18.739,-0.78125,-0.78125,0.0
1912,18.749,-0.78125,-0.78125,0.0
1913,18.759,-0.78125,-1.5625,0.0
1914,18.769,-0.78125,-0.78125,0.0
1915,18.779,-0.78125,-0.78125,0.0
1916,18.789,0.0,-0.78125,0.0
1917,18.799,0.0,-0.78125,0.0
1918,18.809,-0.78125,-0.78125,0.0
1919,18.819,-0.78125,-0.78125,0.0
1920,18.829,0.0,-1.5625,0.0
1921,18.839,-0.78125,-0.78125,0.0
1922,18.849,-0.78125,-0.78125,0.0
1923,18.859,0.0,-0.78125,0.0
1924,18.869,-0.78125,0.0,0.0
1925,18.879,-0.78125,-0.78125,0.0
1926,18.889,-0.78125,-0.78125,0.0
1927,18.899,-0.78125,-0.78125,0.0
1928,18.909,-0.78125,-1.5625,0.0
1929,18.919,-0.78125,-0.78125,0.0
1930,18.929,-0.78125,-0.78125,0.0
1931,18.939,-0.78125,-0.78125,0.0
1932,18.949,-0.78125,-0.78125,0.0
1933,18.959,-0.78125,-0.78125,0.0
1934,18.969,-0.78125,-0.78125,0.0
1935,18.979,-0.78125,-0.78125,0.0
1936,18.989,-0.78125,-1.5625,0.0
1937,18.999,-0.78125,-0.78125,0.0
1938,19.009,-0.78125,-1.5625,0.0
1939,19.019,0.0,-0.78125,0.0
1940,19.029,-0.78125,-0.78125,0.0
1941,19.039,-0.78125,-0.78125,0.0
1942,19.049,-0.78125,-0.78125,0.0
1943,19.059,-0.78125,-1.5625,0.0
1944,19.069,-0.78125,-0.78125,0.0
1945,19.079,0.0,-0.78125,0.0
1946,19.089,0.0,-1.5625,0.0
1947,19.099,-0.78125,-0.78125,0.0
1948,19.109,-0.78125,-1.5625,0.0
1949,19.119,-0.78125,-0.78125,0.0
1950,19.129,-0.78125,-1.5625,0.0
1951,19.139,-0.78125,-0.78125,0.0
1952,19.149,0.0,-0.78125,0.0
1953,19.159,-0.78125,-0.78125,0.0
1954,19.169,-0.78125,-0.78125,0.0
1955,19.179,-0.78125,-1.5625,0.0
1956,19.189,-1.5625,-0.78125,0.0
1957,19.199,0.0,-0.78125,0.0
1958,19.209,-0.78125,-1.5625,0.0
1959,19.219,-0.78125,-0.78125,0.0
1960,19.229,-0.78125,-0.78125,0.0
1961,19.239,-0.78125,-0.78125,0.0
1962,19.249,0.0,-0.78125,0.0
1963,19.259,-0.78125,-0.78125,0.0
1964,19.269,-0.78125,-0.78125,0.0
1965,19.279,-0.78125,-0.78125,0.0
1966,19.289,-0.78125,-0.78125,0.0
1967,19.299,-0.78125,-0.78125,0.0
1968,19.309,-0.78125,-0.78125,0.0
1969,19.319,-0.78125,-0.78125,0.0
1970,19.329,-0.78125,-0.78125,0.0
1971,19.339,-0.78125,-0.78125,0.0
1972,19.349,-0.78125,-0.78125,0.0
1973,19.359,-0.78125,-0.78125,0.0
1974,19.369,-0.78125,-0.78125,0.0
1975,19.379,-0.78125,-0.78125,0.0
1976,19.389,-0.78125,-0.78125,0.0
1977,19.399,0.0,-0.78125,0.0
1978,19.409,-0.78125,-0.78125,0.0
1979,19.419,-1.5625,-0.78125,0.0
1980,19.429,-0.78125,-0.78125,0.0
1981,19.439,-0.78125,-0.78125,0.0
1982,19.449,-0.78125,-0.78125,0.0
1983,19.459,-0.78125,-0.78125,0.0
1984,19.469,-0.78125,-0.78125,0.0
1985,19.479,-0.78125,-0.78125,0.0
1986,19.489,-0.78125,-0.78125,0.0
1987,19.499,-0.78125,-0.78125,0.0
1988,19.509,-0.78125,-0.78125,0.0
1989,19.519,-0.78125,-0.78125,0.0
1990,19.529,-0.78125,-0.78125,0.0
1991,19.539,-0.78125,-0.78125,0.0
1992,19.549,-0.78125,-0.78125,0.0
1993,19.559,-0.78125,-0.78125,0.0
1994,19.569,-0.78125,-0.78125,0.0
1995,19.579,-0.78125,-0.78125,0.0
1996,19.589,-0.78125,-0.78125,0.0
1997,19.599,-1.5625,-0.78125,0.0
1998,19.609,-0.78125,-0.78125,0.0
1999,19.619,-1.5625,-1.5625,0.0
2000,19.629,-0.78125,-1.5625,0.0
2001,19.639,-0.78125,-0.78125,0.0
2002,19.649,-0.78125,-0.78125,0.0
2003,19.659,-0.78125,-0.78125,0.0
2004,19.669,-0.78125,0.0,0.0
2005,19.679,-0.78125,0.0,0.0
2006,19.689,0.0,0.0,0.0
2007,19.699,-0.78125,-0.78125,0.0
2008,19.709,-0.78125,0.0,0.0
2009,19.719,-0.78125,-0.78125,0.0
2010,19.729,-0.78125,-0.78125,0.0
2011,19.739,-0.78125,0.0,0.0
2012,19.749,-1.5625,-0.78125,0.0
2013,19.759,-0.78125,0.0,0.0
2014,19.769,-0.78125,-0.78125,0.0
2015,19.779,-0.78125,-0.78125,0.0
2016,19.789,-0.78125,-0.78125,0.0
2017,19.799,-0.78125,0.0,0.0
2018,19.809,-0.78125,-0.78125,0.0
2019,19.819,0.0,-0.78125,0.0
2020,19.829,-0.78125,-0.78125,0.0
2021,19.839,-0.78125,-1.5625,0.0
2022,19.849,-0.78125,-1.5625,0.0
2023,19.859,-0.78125,-0.78125,0.0
2024,19.869,-0.78125,-0.78125,0.0
2025,19.879,-0.78125,-0.78125,0.0
2026,19.889,-0.78125,-0.78125,0.0
2027,19.899,-0.78125,-0.78125,0.0
2028,19.909,0.0,-0.78125,0.0
2029,19.919,-0.78125,-0.78125,0.0
2030,19.929,-0.78125,0.0,0.0
2031,19.939,-0.78125,-0.78125,0.0
2032,19.949,-0.78125,-0.78125,0.0
2033,19.959,-0.78125,-1.5625,0.0
2034,19.969,-0.78125,-1.5625,0.0
2035,19.979,-0.78125,-0.78125,0.0
2036,19.989,-0.78125,-0.78125,0.0
2037,19.999,-0.78125,-0.78125,0.0
2038,20.009,-0.78125,-0.78125,0.0
2039,20.019,-0.78125,-0.78125,0.0
2040,20.029,-0.78125,-0.78125,0.0
2041,20.039,0.0,-0.78125,0.0
2042,20.049,0.0,-0.78125,0.0
2043,20.059,0.0,-0.78125,0.0
2044,20.069,-0.78125,-0.78125,0.0
2045,20.079,0.0,-0.78125,0.0
2046,20.089,-0.78125,-1.5625,0.0
2047,20.099,-0.78125,-0.78125,0.0
2048,20.109,-0.78125,-0.78125,0.0
2049,20.119,-1.5625,-1.5625,0.0
2050,20.129,-0.78125,-0.78125,0.0
2051,20.139,-0.78125,0.0,0.0
2052,20.149,-0.78125,-0.78125,0.0
2053,20.159,0.0,-0.78125,0.0
2054,20.169,-0.78125,-0.78125,0.0
2055,20.179,-0.78125,-1.5625,0.0
2056,20.189,-1.5625,-0.78125,0.0
2057,20.199,-0.78125,-0.78125,0.0
2058,20.209,-0.78125,-0.78125,0.0
2059,20.219,0.0,-0.78125,0.0
2060,20.229,-0.78125,-0.78125,0.0
2061,20.239,-0.78125,-0.78125,0.0
2062,20.249,-0.78125,-0.78125,0.0
2063,20.259,-0.78125,-0.78125,0.0
2064,20.269,-1.5625,-1.5625,0.0
2065,20.279,-1.5625,-1.5625,0.0
2066,20.289,-0.78125,-0.78125,0.0
2067,20.299,-0.78125,-0.78125,0.0
2068,20.309,-0.78125,-0.78125,0.0
2069,20.319,-0.78125,-0.78125,0.0
2070,20.329,-0.78125,-0.78125,0.0
2071,20.339,0.0,-0.78125,0.0
2072,20.349,-0.78125,-0.78125,0.0
2073,20.359,-0.78125,-0.78125,0.0
2074,20.369,0.0,-0.78125,0.0
2075,20.379,-0.78125,-0.78125,0.0
2076,20.389,0.0,0.0,0.0
2077,20.399,-0.78125,-0.78125,0.0
2078,20.409,0.0,0.0,0.0
2079,20.419,-0.78125,-0.78125,0.0
2080,20.429,-0.78125,-0.78125,0.0
2081,20.439,0.0,-0.78125,0.0
2082,20.449,-0.78125,-0.78125,0.0
2083,20.459,-0.78125,-0.78125,0.0
2084,20.469,-0.78125,-0.78125,0.0
2085,20.479,-0.78125,-0.78125,0.0
2086,20.489,-0.78125,-0.78125,0.0
2087,20.499,-1.5625,-0.78125,0.0
2088,20.509,-0.78125,-0.78125,0.0
2089,20.519,-0.78125,-1.5625,0.0
2090,20.529,0.0,-0.78125,0.0
2091,20.539,-0.78125,-1.5625,0.0
2092,20.549,-0.78125,-0.78125,0.0
2093,20.559,-0.78125,-0.78125,0.0
2094,20.569,-0.78125,-1.5625,0.0
2095,20.579,0.0,-0.78125,0.0
2096,20.589,-0.78125,-0.78125,0.0
2097,20.599,-0.78125,-0.78125,0.0
2098,20.609,-1.5625,-0.78125,0.0
2099,20.619,-0.78125,-0.78125,0.0
2100,20.629,-0.78125,-0.78125,0.0
2101,20.639,0.0,-0.78125,0.0
2102,20.649,-0.78125,-0.78125,0.0
2103,20.659,-0.78125,-0.78125,0.0
2104,20.669,-0.78125,-0.78125,0.0
2105,20.679,-0.78125,-0.78125,0.0
2106,20.689,0.0,-0.78125,0.0
2107,20.699,-0.78125,-1.5625,0.0
2108,20.709,-0.78125,-0.78125,0.0
2109,20.719,-0.78125,-1.5625,0.0
2110,20.729,0.0,-0.78125,0.0
2111,20.739,-0.78125,-0.78125,0.0
2112,20.749,-0.78125,-0.78125,0.0
2113,20.759,-0.78125,-0.78125,0.0
2114,20.769,-0.78125,-0.78125,0.0
2115,20.779,-0.78125,-0.78125,0.0
2116,20.789,0.0,-0.78125,0.0
2117,20.799,-1.5625,-1.5625,0.0
2118,20.809,-0.78125,-0.78125,0.0
2119,20.819,0.0,-0.78125,0.0
2120,20.829,-0.78125,-0.78125,0.0
2121,20.839,-0.78125,-0.78125,0.0
2122,20.849,-0.78125,-0.78125,0.0
2123,20.859,0.0,-0.78125,0.0
2124,20.869,-0.78125,-0.78125,0.0
2125,20.879,-0.78125,-0.78125,0.0
2126,20.889,0.0,-0.78125,0.0
2127,20.899,-1.5625,-1.5625,0.0
2128,20.909,-0.78125,-0.78125,0.0
2129,20.919,0.0,-0.78125,0.0
2130,20.929,-1.5625,-1.5625,0.0
2131,20.939,0.0,-0.78125,0.0
2132,20.949,-0.78125,-0.78125,0.0
2133,20.959,-0.78125,-0.78125,0.0
2134,20.969,-0.78125,-0.78125,0.0
2135,20.979,-0.78125,-1.5625,0.0
2136,20.989,-0.78125,-0.78125,0.0
2137,20.999,-0.78125,-0.78125,0.0
2138,21.009,0.0,-0.78125,0.0
2139,21.019,-0.78125,-0.78125,0.0
2140,21.029,-0.78125,-0.78125,0.0
2141,21.039,-0.78125,-0.78125,0.0
2142,21.049,-0.78125,-0.78125,0.0
2143,21.059,-0.78125,-0.78125,0.0
2144,21.069,-0.78125,-1.5625,0.0
2145,21.079,-0.78125,-0.78125,0.0
2146,21.089,-0.78125,-0.78125,0.0
2147,21.099,-0.78125,-0.78125,0.0
2148,21.109,-0.78125,-1.5625,0.0
2149,21.119,-0.78125,-0.78125,0.0
2150,21.129,-0.78125,-1.5625,0.0
2151,21.139,-0.78125,-0.78125,0.0
2152,21.149,-0.78125,-0.78125,0.0
2153,21.159,-0.78125,-0.78125,0.0
2154,21.169,-0.78125,-0.78125,0.0
2155,21.179,-0.78125,-1.5625,0.0
2156,21.189,-0.78125,-0.78125,0.0
2157,21.199,-0.78125,-1.5625,0.0
2158,21.209,-0.78125,-0.78125,0.0
2159,21.219,-0.78125,-0.78125,0.0
2160,21.229,-0.78125,-0.78125,0.0
2161,21.239,-0.78125,-1.5625,0.0
2162,21.249,-0.78125,-1.5625,0.0
2163,21.259,-0.78125,-0.78125,0.0
2164,21.269,-0.78125,-0.78125,0.0
2165,21.279,-0.78125,-0.78125,0.0
2166,21.289,-0.78125,-0.78125,0.0
2167,21.299,-0.78125,-1.5625,0.0
2168,21.309,-0.78125,-1.5625,0.0
2169,21.319,-0.78125,-1.5625,0.0
2170,21.329,-0.78125,-0.78125,0.0
2171,21.339,-0.78125,-0.78125,0.0
2172,21.349,-0.78125,0.0,0.0
2173,21.359,-0.78125,0.0,0.0
2174,21.369,-0.78125,-0.78125,0.0
2175,21.379,-0.78125,-0.78125,0.0
2176,21.389,-0.78125,0.0,0.0
2177,21.399,-0.78125,-0.78125,0.0
2178,21.409,-0.78125,-1.5625,0.0
2179,21.419,-0.78125,-1.5625,0.0
2180,21.429,-0.78125,-0.78125,0.0
2181,21.439,-0.78125,-0.78125,0.0
2182,21.449,-0.78125,-1.5625,0.0
2183,21.459,0.0,-1.5625,0.0
2184,21.469,-0.78125,-1.5625,0.0
2185,21.479,-0.78125,-0.78125,0.0
2186,21.489,-0.78125,-1.5625,0.0
2187,21.499,-0.78125,-0.78125,0.0
2188,21.509,-0.78125,-1.5625,0.0
2189,21.519,0.0,-1.5625,0.0
2190,21.529,-1.5625,-1.5625,0.0
2191,21.539,-0.78125,-1.5625,0.0
2192,21.549,-0.78125,-1.5625,0.0
2193,21.559,-0.78125,-1.5625,0.0
2194,21.569,0.0,-1.5625,0.0
2195,21.579,-1.5625,-1.5625,0.0
2196,21.589,-0.78125,-2.34375,0.0
2197,21.599,-1.5625,-1.5625,0.0
2198,21.609,-0.78125,-1.5625,0.0
2199,21.619,-1.5625,-1.5625,0.0
2200,21.629,0.0,-1.5625,0.0
2201,21.639,-1.5625,-1.5625,0.0
2202,21.649,-0.78125,-1.5625,0.0
2203,21.659,-1.5625,-1.5625,0.0
2204,21.669,-0.78125,-0.78125,0.0
2205,21.679,-0.78125,-0.78125,0.0
2206,21.689,-0.78125,-1.5625,0.0
2207,21.699,-0.78125,-2.34375,0.0
2208,21.709,-0.78125,-1.5625,0.0
2209,21.719,-0.78125,-1.5625,0.0
2210,21.729,-0.78125,-1.5625,0.0
2211,21.739,-0.78125,-0.78125,0.0
2212,21.749,-0.78125,-0.78125,0.0
2213,21.759,-0.78125,-1.5625,0.0
2214,21.769,-0.78125,-1.5625,0.0
2215,21.779,0.0,-0.78125,0.0
2216,21.789,-0.78125,-1.5625,0.0
2217,21.799,-0.78125,-0.78125,0.0
2218,21.809,0.0,-0.78125,0.0
2219,21.819,-0.78125,-0.78125,0.0
2220,21.829,0.0,-1.5625,0.0
2221,21.839,-1.5625,-1.5625,0.0
2222,21.849,0.0,-1.5625,0.0
2223,21.859,-1.5625,-0.78125,0.0
2224,21.869,0.0,-2.34375,0.0
2225,21.879,-0.78125,-0.78125,0.0
2226,21.889,-0.78125,-2.34375,0.0
2227,21.899,-0.78125,-0.78125,0.0
2228,21.909,-0.78125,-1.5625,0.0
2229,21.919,-0.78125,-1.5625,0.0
2230,21.929,-0.78125,-0.78125,0.0
2231,21.939,-0.78125,-2.34375,0.0
2232,21.949,-0.78125,-0.78125,0.0
2233,21.959,0.0,-0.78125,0.0
2234,21.969,-0.78125,-1.5625,0.0
2235,21.979,-0.78125,-2.34375,0.0
2236,21.989,-1.5625,-2.34375,0.0
2237,21.999,-0.78125,-1.5625,0.0
2238,22.009,-0.78125,-0.78125,0.0
2239,22.019,-0.78125,0.0,0.0
2240,22.029,0.0,-0.78125,0.0
2241,22.039,-0.78125,-1.5625,0.0
2242,22.049,-0.78125,-1.5625,0.0
2243,22.059,0.0,-1.5625,0.0
2244,22.069,-0.78125,-1.5625,0.0
2245,22.079,-0.78125,-2.34375,0.0
2246,22.089,0.0,-2.34375,0.0
2247,22.099,-0.78125,-0.78125,0.0
2248,22.109,0.0,-0.78125,0.0
2249,22.119,-0.78125,-0.78125,0.0
2250,22.129,-0.78125,-0.78125,0.0
2251,22.139,-0.78125,-0.78125,0.0
2252,22.149,-0.78125,-1.5625,0.0
2253,22.159,-0.78125,-1.5625,0.0
2254,22.169,-0.78125,-1.5625,0.0
2255,22.179,-0.78125,-1.5625,0.0
2256,22.189,-0.78125,-0.78125,0.0
2257,22.199,-0.78125,-1.5625,0.0
2258,22.209,-0.78125,-1.5625,0.0
2259,22.219,0.0,-0.78125,0.0
2260,22.229,-0.78125,-0.78125,0.0
2261,22.239,-0.78125,-2.34375,0.0
2262,22.249,0.0,-0.78125,0.0
2263,22.259,-0.78125,-1.5625,0.0
2264,22.269,0.0,-1.5625,0.0
2265,22.279,-0.78125,-0.78125,0.0
2266,22.289,-0.78125,-0.78125,0.0
2267,22.299,0.0,-2.34375,0.0
2268,22.309,-0.78125,-1.5625,0.0
2269,22.319,0.0,-0.78125,0.0
2270,22.329,-0.78125,-1.5625,0.0
2271,22.339,-0.78125,-2.34375,0.0
2272,22.349,-0.78125,-0.78125,0.0
2273,22.359,-0.78125,-0.78125,0.0
2274,22.369,-0.78125,-2.34375,0.0
2275,22.379,-0.78125,-1.5625,0.0
2276,22.389,0.0,-0.78125,0.0
2277,22.399,-0.78125,-1.5625,0.0
2278,22.409,-0.78125,-2.34375,0.0
2279,22.419,0.0,-0.78125,0.0
2280,22.429,-0.78125,-0.78125,0.0
2281,22.439,-0.78125,-1.5625,0.0
2282,22.449,-0.78125,-1.5625,0.0
2283,22.459,0.0,-0.78125,0.0
2284,22.469,0.0,-0.78125,0.0
2285,22.479,-0.78125,-0.78125,0.0
2286,22.489,0.0,-1.5625,0.0
2287,22.499,-0.78125,-1.5625,0.0
2288,22.509,-0.78125,-1.5625,0.0
2289,22.519,0.0,-1.5625,0.0
2290,22.529,-0.78125,-1.5625,0.0
2291,22.539,-0.78125,-1.5625,0.0
2292,22.549,0.0,-1.5625,0.0
2293,22.559,-0.78125,-0.78125,0.0
2294,22.569,0.0,-1.5625,0.0
2295,22.579,-0.78125,-0.78125,0.0
2296,22.589,-0.78125,-1.5625,0.0
2297,22.599,0.0,-1.5625,0.0
2298,22.609,-0.78125,-0.78125,0.0
2299,22.619,0.0,-1.5625,0.0
2300,22.629,-0.78125,-1.5625,0.0
2301,22.639,-0.78125,-0.78125,0.0
2302,22.649,0.0,-1.5625,0.0
2303,22.659,-0.78125,-1.5625,0.0
2304,22.669,-0.78125,-1.5625,0.0
2305,22.679,0.0,-1.5625,0.0
2306,22.689,-0.78125,-1.5625,0.0
2307,22.699,-0.78125,-1.5625,0.0
2308,22.709,-0.78125,-0.78125,0.0
2309,22.719,0.0,-0.78125,0.0
2310,22.729,0.0,-0.78125,0.0
2311,22.739,0.0,-0.78125,0.0
2312,22.749,0.0,-1.5625,0.0
2313,22.759,0.0,-1.5625,0.0
2314,22.769,0.0,-1.5625,0.0
2315,22.779,-0.78125,-0.78125,0.0
2316,22.789,-0.78125,-1.5625,0.0
2317,22.799,0.0,-0.78125,0.0
2318,22.809,-0.78125,-0.78125,0.0
2319,22.819,-0.78125,-1.5625,0.0
2320,22.829,-0.78125,-0.78125,0.0
2321,22.839,0.0,-1.5625,0.0
2322,22.849,-0.78125,-1.5625,0.0
2323,22.859,-0.78125,-1.5625,0.0
2324,22.869,-0.78125,-1.5625,0.0
2325,22.879,0.0,-1.5625,0.0
2326,22.889,0.0,-0.78125,0.0
2327,22.899,-0.78125,-1.5625,0.0
2328,22.909,-0.78125,-1.5625,0.0
2329,22.919,0.0,-1.5625,0.0
2330,22.929,-0.78125,-1.5625,0.0
2331,22.939,-0.78125,-1.5625,0.0
2332,22.949,0.0,-0.78125,0.0
2333,22.959,0.0,-0.78125,0.0
2334,22.969,0.0,-0.78125,0.0
2335,22.979,-0.78125,-0.78125,0.0
2336,22.989,0.0,-1.5625,0.0
2337,22.999,0.0,-1.5625,0.0
2338,23.009,-0.78125,-1.5625,0.0
2339,23.019,-0.78125,-1.5625,0.0
2340,23.029,0.0,-0.78125,0.0
2341,23.039,-0.78125,-0.78125,0.0
2342,23.049,0.0,-0.78125,0.0
2343,23.059,0.0,-0.78125,0.0
2344,23.069,0.0,-0.78125,0.0
2345,23.079,0.0,-0.78125,0.0
2346,23.089,-0.78125,-1.5625,0.0
2347,23.099,-0.78125,-0.78125,0.0
2348,23.109,-0.78125,-1.5625,0.0
2349,23.119,-0.78125,-0.78125,0.0
2350,23.129,0.0,-0.78125,0.0
2351,23.139,0.0,-0.78125,0.0
2352,23.149,0.78125,0.0,0.0
2353,23.159,0.0,-0.78125,0.0
2354,23.169,0.78125,-1.5625,0.0
2355,23.179,0.78125,-1.5625,0.0
2356,23.189,0.0,-1.5625,0.0
2357,23.199,0.0,-1.5625,0.0
2358,23.209,0.0,-1.5625,0.0
2359,23.219,0.0,-0.78125,0.0
2360,23.229,-0.78125,-1.5625,0.0
2361,23.239,-0.78125,-0.78125,0.0
2362,23.249,-0.78125,-0.78125,0.0
2363,23.259,0.0,-0.78125,0.0
2364,23.269,0.0,-1.5625,0.0
2365,23.279,0.0,-0.78125,0.0
2366,23.289,-0.78125,-0.78125,0.0
2367,23.299,0.0,-0.78125,0.0
2368,23.309,0.0,-0.78125,0.0
2369,23.319,-0.78125,-0.78125,0.0
2370,23.329,-0.78125,-0.78125,0.0
2371,23.339,0.0,-1.5625,0.0
2372,23.349,0.0,-1.5625,0.0
2373,23.359,0.0,-1.5625,0.0
2374,23.369,-0.78125,-0.78125,0.0
2375,23.379,-0.78125,-0.78125,0.0
2376,23.389,0.0,-0.78125,0.0
2377,23.399,0.0,-0.78125,0.0
2378,23.409,-0.78125,-0.78125,0.0
2379,23.419,0.0,-1.5625,0.0
2380,23.429,-0.78125,-0.78125,0.0
2381,23.439,-0.78125,-1.5625,0.0
2382,23.449,0.0,-0.78125,0.0
2383,23.459,-0.78125,-0.78125,0.0
2384,23.469,0.0,-0.78125,0.0
2385,23.479,0.0,-0.78125,0.0
2386,23.489,0.0,-0.78125,0.0
2387,23.499,-0.78125,-0.78125,0.0
2388,23.509,0.0,-0.78125,0.0
2389,23.519,-0.78125,-0.78125,0.0
2390,23.529,0.0,-0.78125,0.0
2391,23.539,-0.78125,-1.5625,0.0
2392,23.549,0.0,-1.5625,0.0
2393,23.559,-0.78125,-1.5625,0.0
2394,23.569,0.0,-0.78125,0.0
2395,23.579,-0.78125,-0.78125,0.0
2396,23.589,0.0,-0.78125,0.0
2397,23.599,-0.78125,-0.78125,0.0
2398,23.609,0.0,-0.78125,0.0
2399,23.619,-0.78125,-1.5625,0.0
2400,23.629,0.0,-0.78125,0.0
2401,23.639,-0.78125,-0.78125,0.0
2402,23.649,0.0,-0.78125,0.0
2403,23.659,-0.78125,-0.78125,0.0
2404,23.669,0.0,-0.78125,0.0
2405,23.679,-0.78125,-1.5625,0.0
2406,23.689,-0.78125,-0.78125,0.0
2407,23.699,0.0,-0.78125,0.0
2408,23.709,-0.78125,-0.78125,0.0
2409,23.719,-0.78125,-0.78125,0.0
2410,23.729,0.0,-0.78125,0.0
2411,23.739,-0.78125,-1.5625,0.0
2412,23.749,0.0,-0.78125,0.0
2413,23.759,0.0,-1.5625,0.0
2414,23.769,-0.78125,-0.78125,0.0
2415,23.779,-0.78125,-1.5625,0.0
2416,23.789,0.0,-0.78125,0.0
2417,23.799,-0.78125,-0.78125,0.0
2418,23.809,-0.78125,-1.5625,0.0
2419,23.819,0.0,-1.5625,0.0
2420,23.829,0.0,-0.78125,0.0
2421,23.839,-0.78125,-0.78125,0.0
2422,23.849,0.0,-1.5625,0.0
2423,23.859,0.0,-1.5625,0.0
2424,23.869,0.0,-0.78125,0.0
2425,23.879,0.0,-1.5625,0.0
2426,23.889,0.0,-0.78125,0.0
2427,23.899,0.0,-0.78125,0.0
2428,23.909,-0.78125,-1.5625,0.0
2429,23.919,0.0,-0.78125,0.0
2430,23.929,-0.78125,-0.78125,0.0
2431,23.939,0.0,-0.78125,0.0
2432,23.949,-0.78125,-1.5625,0.0
2433,23.959,0.0,-0.78125,0.0
2434,23.969,-0.78125,-0.78125,0.0
2435,23.979,-0.78125,-0.78125,0.0
2436,23.989,-0.78125,-0.78125,0.0
2437,23.999,0.0,-0.78125,0.0
2438,24.009,0.0,-0.78125,0.0
2439,24.019,-0.78125,-1.5625,0.0
2440,24.029,-0.78125,-0.78125,0.0
2441,24.039,0.0,-0.78125,0.0
2442,24.049,0.0,-0.78125,0.0
2443,24.059,0.0,-0.78125,0.0
2444,24.069,0.0,-0.78125,0.0
2445,24.079,0.0,-0.78125,0.0
2446,24.089,0.0,-0.78125,0.0
2447,24.099,0.0,-0.78125,0.0
2448,24.109,0.0,-1.5625,0.0
2449,24.119,-0.78125,-0.78125,0.0
2450,24.129,0.0,-0.78125,0.0
2451,24.139,-0.78125,-1.5625,0.0
2452,24.149,0.0,-0.78125,0.0
2453,24.159,0.0,-0.78125,0.0
2454,24.169,-0.78125,-1.5625,0.0
2455,24.179,0.0,-0.78125,0.0
2456,24.189,-0.78125,-0.78125,0.0
2457,24.199,-0.78125,-0.78125,0.0
2458,24.209,0.0,-0.78125,0.0
2459,24.219,-0.78125,-1.5625,0.0
2460,24.229,-0.78125,-0.78125,0.0
2461,24.239,-0.78125,-0.78125,0.0
2462,24.249,-0.78125,-1.5625,0.0
2463,24.259,0.0,-0.78125,0.0
2464,24.269,-0.78125,-0.78125,0.0
2465,24.279,-0.78125,-0.78125,0.0
2466,24.289,0.0,-0.78125,0.0
2467,24.299,0.0,-1.5625,0.0
2468,24.309,-0.78125,-1.5625,0.0
2469,24.319,0.0,-0.78125,0.0
2470,24.329,-0.78125,-0.78125,0.0
2471,24.339,-0.78125,-0.78125,0.0
2472,24.349,0.0,-0.78125,0.0
2473,24.359,-0.78125,-0.78125,0.0
2474,24.369,-0.78125,-1.5625,0.0
2475,24.379,0.0,-1.5625,0.0
2476,24.389,0.0,-0.78125,0.0
2477,24.399,-0.78125,-0.78125,0.0
2478,24.409,-0.78125,-0.78125,0.0
2479,24.419,0.0,-0.78125,0.0
2480,24.429,0.0,-0.78125,0.0
2481,24.439,-0.78125,-0.78125,0.0
2482,24.449,0.0,-1.5625,0.0
2483,24.459,0.0,-0.78125,0.0
2484,24.469,-0.78125,-0.78125,0.0
2485,24.479,-0.78125,-1.5625,0.0
2486,24.489,-0.78125,-0.78125,0.0
2487,24.499,0.0,-0.78125,0.0
2488,24.509,-0.78125,-0.78125,0.0
2489,24.519,-0.78125,-0.78125,0.0
2490,24.529,-0.78125,-0.78125,0.0
2491,24.539,0.0,-0.78125,0.0
2492,24.549,0.0,-0.78125,0.0
2493,24.559,-0.78125,-0.78125,0.0
2494,24.569,0.0,-0.78125,0.0
2495,24.579,-0.78125,-0.78125,0.0
2496,24.589,-0.78125,-1.5625,0.0
2497,24.599,-0.78125,-1.5625,0.0
2498,24.609,0.0,-0.78125,0.0
2499,24.619,-0.78125,-1.5625,0.0
2500,24.629,-0.78125,-1.5625,0.0
2501,24.639,-0.78125,-0.78125,0.0
2502,24.649,-0.78125,-0.78125,0.0
2503,24.659,0.0,-0.78125,0.0
2504,24.669,-0.78125,-1.5625,0.0
2505,24.679,-0.78125,-1.5625,0.0
2506,24.689,0.0,-1.5625,0.0
2507,24.699,-0.78125,-1.5625,0.0
2508,24.709,0.0,-1.5625,0.0
2509,24.719,0.0,-1.5625,0.0
2510,24.729,0.0,-0.78125,0.0
2511,24.739,-0.78125,-0.78125,0.0
2512,24.749,0.0,-0.78125,0.0
2513,24.759,-0.78125,-0.78125,0.0
2514,24.769,-0.78125,-1.5625,0.0
2515,24.779,-0.78125,-0.78125,0.0
2516,24.789,0.0,0.0,0.0
2517,24.799,0.0,-0.78125,0.0
2518,24.809,-0.78125,-0.78125,0.0
2519,24.819,-0.78125,-1.5625,0.0
2520,24.829,0.0,-0.78125,0.0
2521,24.839,-0.78125,-1.5625,0.0
2522,24.849,0.0,-0.78125,0.0
2523,24.859,0.0,-0.78125,0.0
2524,24.869,-0.78125,-0.78125,0.0
2525,24.879,-0.78125,-1.5625,0.0
2526,24.889,-0.78125,-1.5625,0.0
2527,24.899,0.0,-0.78125,0.0
2528,24.909,0.0,-0.78125,0.0
2529,24.919,-0.78125,-1.5625,0.0
2530,24.929,-0.78125,-1.5625,0.0
2531,24.939,0.0,-0.78125,0.0
2532,24.949,0.0,-0.78125,0.0
2533,24.959,-0.78125,-1.5625,0.0
2534,24.969,-0.78125,-1.5625,0.0
2535,24.979,-0.78125,-0.78125,0.0
2536,24.989,-0.78125,-0.78125,0.0
2537,24.999,-0.78125,-0.78125,0.0
2538,25.009,-0.78125,-0.78125,0.0
2539,25.019,-0.78125,-0.78125,0.0
2540,25.029,0.0,-0.78125,0.0
2541,25.039,-0.78125,-0.78125,0.0
2542,25.049,0.0,-1.5625,0.0
2543,25.059,0.0,-0.78125,0.0
2544,25.069,-0.78125,-0.78125,0.0
2545,25.079,-0.78125,-0.78125,0.0
2546,25.089,0.0,-0.78125,0.0
2547,25.099,-0.78125,-0.78125,0.0
2548,25.109,-0.78125,-1.5625,0.0
2549,25.119,-0.78125,-1.5625,0.0
2550,25.129,0.0,-0.78125,0.0
2551,25.139,-0.78125,-0.78125,0.0
2552,25.149,0.0,-0.78125,0.0
2553,25.159,-0.78125,-0.78125,0.0
2554,25.169,-0.78125,-1.5625,0.0
2555,25.179,0.0,-1.5625,0.0
2556,25.189,-0.78125,-1.5625,0.0
2557,25.199,0.0,-0.78125,0.0
2558,25.209,-0.78125,-0.78125,0.0
2559,25.219,0.0,-0.78125,0.0
2560,25.229,-0.78125,-0.78125,0.0
2561,25.239,0.0,-0.78125,0.0
2562,25.249,-0.78125,-1.5625,0.0
2563,25.259,-0.78125,-0.78125,0.0
2564,25.269,-0.78125,-1.5625,0.0
2565,25.279,0.0,-0.78125,0.0
2566,25.289,-0.78125,-0.78125,0.0
2567,25.299,0.0,-0.78125,0.0
2568,25.309,-0.78125,-0.78125,0.0
2569,25.319,-0.78125,-0.78125,0.0
2570,25.329,0.0,-0.78125,0.0
2571,25.339,-0.78125,-0.78125,0.0
2572,25.349,-0.78125,-0.78125,0.0
2573,25.359,0.0,-0.78125,0.0
2574,25.369,0.0,-0.78125,0.0
2575,25.379,0.0,-0.78125,0.0
2576,25.389,-0.78125,-1.5625,0.0
2577,25.399,-0.78125,-1.5625,0.0
2578,25.409,-0.78125,-1.5625,0.0
2579,25.419,-0.78125,-1.5625,0.0
2580,25.429,0.0,-1.5625,0.0
2581,25.439,-0.78125,-1.5625,0.0
2582,25.449,-0.78125,-0.78125,0.0
2583,25.459,-0.78125,-0.78125,0.0
2584,25.469,-0.78125,-0.78125,0.0
2585,25.479,-0.78125,-0.78125,0.0
2586,25.489,0.0,-0.78125,0.0
2587,25.499,-0.78125,-0.78125,0.0
2588,25.509,-0.78125,-0.78125,0.0
2589,25.519,-0.78125,-0.78125,0.0
2590,25.529,-0.78125,-0.78125,0.0
2591,25.539,0.0,-0.78125,0.0
2592,25.549,0.0,-0.78125,0.0
2593,25.559,-0.78125,-0.78125,0.0
2594,25.569,-0.78125,-1.5625,0.0
2595,25.579,-0.78125,-0.78125,0.0
2596,25.589,0.0,-0.78125,0.0
2597,25.599,-0.78125,-1.5625,0.0
2598,25.609,-0.78125,-1.5625,0.0
2599,25.619,-0.78125,-0.78125,0.0
2600,25.629,-0.78125,-1.5625,0.0
2601,25.639,0.0,-0.78125,0.0
2602,25.649,0.0,-0.78125,0.0
2603,25.659,0.0,-0.78125,0.0
2604,25.669,-0.78125,-0.78125,0.0
2605,25.679,-0.78125,-0.78125,0.0
2606,25.689,-0.78125,-1.5625,0.0
2607,25.699,-0.78125,-0.78125,0.0
2608,25.709,-0.78125,-1.5625,0.0
2609,25.719,0.0,-0.78125,0.0
2610,25.729,-0.78125,-0.78125,0.0
2611,25.739,0.0,-1.5625,0.0
2612,25.749,-0.78125,-1.5625,0.0
2613,25.759,-0.78125,-0.78125,0.0
2614,25.769,0.0,-0.78125,0.0
2615,25.779,-0.78125,-0.78125,0.0
2616,25.789,-0.78125,-0.78125,0.0
2617,25.799,0.0,-0.78125,0.0
2618,25.809,-0.78125,-0.78125,0.0
2619,25.819,-0.78125,-1.5625,0.0
2620,25.829,-0.78125,-1.5625,0.0
2621,25.839,-0.78125,-0.78125,0.0
2622,25.849,-0.78125,-0.78125,0.0
2623,25.859,-0.78125,-0.78125,0.0
2624,25.869,0.0,-1.5625,0.0
2625,25.879,-0.78125,-0.78125,0.0
2626,25.889,0.0,-0.78125,0.0
2627,25.899,-0.78125,-0.78125,0.0
2628,25.909,0.0,-0.78125,0.0
2629,25.919,-0.78125,-1.5625,0.0
2630,25.929,0.0,-1.5625,0.0
2631,25.939,-0.78125,-1.5625,0.0
2632,25.949,-0.78125,-1.5625,0.0
2633,25.959,0.0,-0.78125,0.0
2634,25.969,-0.78125,-0.78125,0.0
2635,25.979,0.0,-1.5625,0.0
2636,25.989,-0.78125,-1.5625,0.0
2637,25.999,-0.78125,-2.34375,0.0
2638,26.009,-0.78125,-1.5625,0.0
2639,26.019,-0.78125,-0.78125,0.0
2640,26.029,-0.78125,-0.78125,0.0
2641,26.039,0.0,-1.5625,0.0
2642,26.049,-0.78125,-1.5625,0.0
2643,26.059,0.0,-0.78125,0.0
2644,26.069,-0.78125,-1.5625,0.0
2645,26.079,-0.78125,-0.78125,0.0
2646,26.089,0.0,-1.5625,0.0
2647,26.099,-0.78125,0.0,0.0
2648,26.109,-0.78125,-1.5625,0.0
2649,26.119,-0.78125,-2.34375,0.0
2650,26.129,-0.78125,-2.34375,0.0
2651,26.139,0.0,-0.78125,0.0
2652,26.149,0.0,-0.78125,0.0
2653,26.159,0.0,-0.78125,0.0
2654,26.169,0.0,-0.78125,0.0
2655,26.179,0.0,-0.78125,0.0
2656,26.189,-0.78125,-0.78125,0.0
2657,26.199,-0.78125,-0.78125,0.0
2658,26.209,0.0,0.0,0.0
2659,26.219,-0.78125,0.78125,0.0
2660,26.229,0.0,0.0,0.0
2661,26.239,-0.78125,0.0,0.0
2662,26.249,0.0,0.0,0.0
2663,26.259,-0.78125,-0.78125,0.0
2664,26.269,-0.78125,-0.78125,0.0
2665,26.279,-0.78125,-0.78125,0.0
2666,26.289,-0.78125,-0.78125,0.0
2667,26.299,-0.78125,-1.5625,0.0
2668,26.309,-0.78125,0.78125,0.0
2669,26.319,0.0,-1.5625,0.0
2670,26.329,-0.78125,-0.78125,0.0
2671,26.339,0.0,-1.5625,0.0
2672,26.349,-0.78125,-0.78125,0.0
2673,26.359,-0.78125,-0.78125,0.0
2674,26.369,-0.78125,-1.5625,0.0
2675,26.379,0.0,-0.78125,0.0
2676,26.389,-0.78125,-0.78125,0.0
2677,26.399,-0.78125,-0.78125,0.0
2678,26.409,0.0,-0.78125,0.0
2679,26.419,0.0,-0.78125,0.0
2680,26.429,0.0,-0.78125,0.0
2681,26.439,0.0,-0.78125,0.0
2682,26.449,-0.78125,-0.78125,0.0
2683,26.459,-0.78125,-0.78125,0.0
2684,26.469,-0.78125,-1.5625,0.0
2685,26.479,-0.78125,-1.5625,0.0
2686,26.489,-0.78125,-0.78125,0.0
2687,26.499,-0.78125,-0.78125,0.0
2688,26.509,-0.78125,-0.78125,0.0
2689,26.519,0.0,-0.78125,0.0
2690,26.529,0.0,-0.78125,0.0
2691,26.539,-0.78125,-0.78125,0.0
2692,26.549,0.0,-0.78125,0.0
2693,26.559,-0.78125,-0.78125,0.0
2694,26.569,-0.78125,-0.78125,0.0
2695,26.579,0.0,-1.5625,0.0
2696,26.589,-0.78125,-0.78125,0.0
2697,26.599,-0.78125,-0.78125,0.0
2698,26.609,-0.78125,-0.78125,0.0
2699,26.619,-0.78125,-1.5625,0.0
2700,26.629,0.0,-0.78125,0.0
2701,26.639,-0.78125,-0.78125,0.0
2702,26.649,-0.78125,-1.5625,0.0
2703,26.659,-0.78125,0.0,0.0
2704,26.669,-0.78125,-2.34375,0.0
2705,26.679,-0.78125,0.0,0.0
2706,26.689,-0.78125,-1.5625,0.0
2707,26.699,-0.78125,-0.78125,0.0
2708,26.709,-0.78125,-0.78125,0.0
2709,26.719,-0.78125,-0.78125,0.0
2710,26.729,-0.78125,-0.78125,0.0
2711,26.739,0.0,-0.78125,0.0
2712,26.749,-0.78125,-0.78125,0.0
2713,26.759,-0.78125,-1.5625,0.0
2714,26.769,0.0,-0.78125,0.0
2715,26.779,-0.78125,-1.5625,0.0
2716,26.789,-0.78125,-0.78125,0.0
2717,26.799,-0.78125,-0.78125,0.0
2718,26.809,-0.78125,-0.78125,0.0
2719,26.819,-0.78125,-0.78125,0.0
2720,26.829,-0.78125,-2.34375,0.0
2721,26.839,0.0,0.0,0.0
2722,26.849,-0.78125,-2.34375,0.0
2723,26.859,-0.78125,0.0,0.0
2724,26.869,-0.78125,-1.5625,0.0
2725,26.879,-0.78125,-0.78125,0.0
2726,26.889,-0.78125,-1.5625,0.0
2727,26.899,-0.78125,0.0,0.0
2728,26.909,-0.78125,-1.5625,0.0
2729,26.919,0.0,-0.78125,0.0
2730,26.929,-1.5625,-0.78125,0.0
2731,26.939,0.0,-0.78125,0.0
2732,26.949,-0.78125,-0.78125,0.0
2733,26.959,-0.78125,-0.78125,0.0
2734,26.969,0.0,-0.78125,0.0
2735,26.979,-0.78125,-0.78125,0.0
2736,26.989,0.0,-0.78125,0.0
2737,26.999,-0.78125,-1.5625,0.0
2738,27.009,-0.78125,-1.5625,0.0
2739,27.019,-1.5625,-1.5625,0.0
2740,27.029,0.0,-1.5625,0.0
2741,27.039,-0.78125,-0.78125,0.0
2742,27.049,-0.78125,-0.78125,0.0
2743,27.059,0.0,-0.78125,0.0
2744,27.069,-0.78125,-1.5625,0.0
2745,27.079,0.0,-1.5625,0.0
2746,27.089,-0.78125,-1.5625,0.0
2747,27.099,-0.78125,-2.34375,0.0
2748,27.109,-0.78125,-1.5625,0.0
2749,27.119,-0.78125,-1.5625,0.0
2750,27.129,0.0,-0.78125,0.0
2751,27.139,-0.78125,0.0,0.0
2752,27.149,-0.78125,-0.78125,0.0
2753,27.159,-0.78125,-2.34375,0.0
2754,27.169,-0.78125,-0.78125,0.0
2755,27.179,-0.78125,-0.78125,0.0
2756,27.189,-0.78125,-0.78125,0.0
2757,27.199,-0.78125,-1.5625,0.0
2758,27.209,-0.78125,-2.34375,0.0
2759,27.219,-0.78125,-1.5625,0.0
2760,27.229,0.0,-1.5625,0.0
2761,27.239,0.0,-0.78125,0.0
2762,27.249,0.0,0.0,0.0
2763,27.259,0.0,-0.78125,0.0
2764,27.269,0.0,-1.5625,0.0
2765,27.279,0.0,-0.78125,0.0
2766,27.289,0.0,-0.78125,0.0
2767,27.299,0.0,-1.5625,0.0
2768,27.309,0.0,-2.34375,0.0
2769,27.319,0.0,-2.34375,0.0
2770,27.329,0.0,-1.5625,0.0
2771,27.339,0.0,-1.5625,0.0
2772,27.349,-0.78125,-2.34375,0.0
2773,27.359,-0.78125,-2.34375,0.0
2774,27.369,-0.78125,-0.78125,0.0
2775,27.379,0.0,-0.78125,0.0
2776,27.389,-0.78125,-2.34375,0.0
2777,27.399,-0.78125,-0.78125,0.0
2778,27.409,-0.78125,-0.78125,0.0
2779,27.419,-1.5625,-0.78125,0.0
2780,27.429,-0.78125,0.0,0.0
2781,27.439,-0.78125,-1.5625,0.0
2782,27.449,0.0,-0.78125,0.0
2783,27.459,-0.78125,-0.78125,0.0
2784,27.469,-0.78125,-0.78125,0.0
2785,27.479,0.0,-2.34375,0.0
2786,27.489,-0.78125,0.0,0.0
2787,27.499,-0.78125,-0.78125,0.0
2788,27.509,-0.78125,-1.5625,0.0
2789,27.519,0.0,-2.34375,0.0
2790,27.529,-0.78125,-1.5625,0.0
2791,27.539,-0.78125,-2.34375,0.0
2792,27.549,-0.78125,-1.5625,0.0
2793,27.559,-1.5625,-2.34375,0.0
2794,27.569,-0.78125,-2.34375,0.0
2795,27.579,-0.78125,-1.5625,0.0
2796,27.589,-0.78125,-0.78125,0.0
2797,27.599,0.0,0.0,0.0
2798,27.609,-0.78125,0.0,0.0
2799,27.619,-0.78125,-1.5625,0.0
2800,27.629,-0.78125,-2.34375,0.0
2801,27.639,-0.78125,-0.78125,0.0
2802,27.649,0.0,0.0,0.0
2803,27.659,-0.78125,-0.78125,0.0
2804,27.669,-0.78125,-2.34375,0.0
2805,27.679,0.0,-0.78125,0.0
2806,27.689,-0.78125,-0.78125,0.0
2807,27.699,-0.78125,-1.5625,0.0
2808,27.709,0.0,-0.78125,0.0
2809,27.719,-0.78125,-0.78125,0.0
2810,27.729,-0.78125,-2.34375,0.0
2811,27.739,-0.78125,0.0,0.0
2812,27.749,-0.78125,-2.34375,0.0
2813,27.759,-0.78125,-0.78125,0.0
2814,27.769,-0.78125,-1.5625,0.0
2815,27.779,0.0,-0.78125,0.0
2816,27.789,-1.5625,-0.78125,0.0
2817,27.799,0.0,-1.5625,0.0
2818,27.809,-0.78125,-0.78125,0.0
2819,27.819,-0.78125,-0.78125,0.0
2820,27.829,-0.78125,-2.34375,0.0
2821,27.839,-0.78125,-3.125,0.0
2822,27.849,-0.78125,-0.78125,0.0
2823,27.859,-0.78125,-1.5625,0.0
2824,27.869,-0.78125,-0.78125,0.0
2825,27.879,-0.78125,-1.5625,0.0
2826,27.889,-0.78125,-2.34375,0.0
2827,27.899,-1.5625,-0.78125,0.0
2828,27.909,-0.78125,-0.78125,0.0
2829,27.919,-0.78125,-1.5625,0.0
2830,27.929,0.0,-1.5625,0.0
2831,27.939,0.0,-1.5625,0.0
2832,27.949,-0.78125,-1.5625,0.0
2833,27.959,-0.78125,-1.5625,0.0
2834,27.969,-0.78125,-0.78125,0.0
2835,27.979,-1.5625,-0.78125,0.0
2836,27.989,-0.78125,-1.5625,0.0
2837,27.999,-0.78125,-1.5625,0.0
2838,28.009,0.0,-0.78125,0.0
2839,28.019,-0.78125,-1.5625,0.0
2840,28.029,0.0,-0.78125,0.0
2841,28.039,-0.78125,-2.34375,0.0
2842,28.049,-1.5625,-0.78125,0.0
2843,28.059,-1.5625,-0.78125,0.0
2844,28.069,-0.78125,-0.78125,0.0
2845,28.079,0.0,-1.5625,0.0
2846,28.089,-0.78125,-0.78125,0.0
2847,28.099,-1.5625,-1.5625,0.0
2848,28.109,-1.5625,-0.78125,0.0
2849,28.119,-0.78125,-1.5625,0.0
2850,28.129,0.0,0.0,0.0
2851,28.139,0.0,-2.34375,0.0
2852,28.149,-1.5625,-1.5625,0.0
2853,28.159,-0.78125,0.0,0.0
2854,28.169,-0.78125,-2.34375,0.0
2855,28.179,0.0,-0.78125,0.0
2856,28.189,0.0,-0.78125,0.0
2857,28.199,-0.78125,-1.5625,0.0
2858,28.209,-0.78125,0.0,0.0
2859,28.219,-1.5625,-1.5625,0.0
2860,28.229,-0.78125,-0.78125,0.0
2861,28.239,0.0,-1.5625,0.0
2862,28.249,-0.78125,-1.5625,0.0
2863,28.259,0.0,-0.78125,0.0
2864,28.269,0.0,-0.78125,0.0
2865,28.279,0.0,-0.78125,0.0
2866,28.289,-0.78125,-0.78125,0.0
2867,28.299,-0.78125,0.0,0.0
2868,28.309,-0.78125,-1.5625,0.0
2869,28.319,-1.5625,-0.78125,0.0
2870,28.329,-0.78125,0.0,0.0
2871,28.339,-1.5625,-1.5625,0.0
2872,28.349,-0.78125,-1.5625,0.0
2873,28.359,-0.78125,-0.78125,0.0
2874,28.369,0.0,-0.78125,0.0
2875,28.379,0.0,-1.5625,0.0
2876,28.389,0.0,-0.78125,0.0
2877,28.399,0.0,-0.78125,0.0
2878,28.409,-0.78125,-0.78125,0.0
2879,28.419,-0.78125,-1.5625,0.0
2880,28.429,-1.5625,-1.5625,0.0
2881,28.439,-0.78125,0.0,0.0
2882,28.449,-0.78125,-1.5625,0.0
2883,28.459,-0.78125,-0.78125,0.0
2884,28.469,0.0,-0.78125,0.0
2885,28.479,0.0,-2.34375,0.0
2886,28.489,-1.5625,-1.5625,0.0
2887,28.499,-0.78125,-0.78125,0.0
2888,28.509,-0.78125,-1.5625,0.0
2889,28.519,-0.78125,-0.78125,0.0
2890,28.529,-0.78125,-1.5625,0.0
2891,28.539,-0.78125,-1.5625,0.0
2892,28.549,-1.5625,-1.5625,0.0
2893,28.559,0.0,-1.5625,0.0
2894,28.569,-0.78125,-1.5625,0.0
2895,28.579,-1.5625,-1.5625,0.0
2896,28.589,-0.78125,-0.78125,0.0
2897,28.599,0.0,-0.78125,0.0
2898,28.609,-1.5625,-0.78125,0.0
2899,28.619,-0.78125,-1.5625,0.0
2900,28.629,-0.78125,-1.5625,0.0
2901,28.639,-0.78125,-1.5625,0.0
2902,28.649,0.0,-1.5625,0.0
2903,28.659,-1.5625,-0.78125,0.0
2904,28.669,-1.5625,-0.78125,0.0
2905,28.679,-0.78125,-0.78125,0.0
2906,28.689,-0.78125,-1.5625,0.0
2907,28.699,0.0,-0.78125,0.0
2908,28.709,0.0,-0.78125,0.0
2909,28.719,-0.78125,-1.5625,0.0
2910,28.729,-0.78125,0.0,0.0
2911,28.739,-0.78125,-1.5625,0.0
2912,28.749,-0.78125,-1.5625,0.0
2913,28.759,-0.78125,-1.5625,0.0
2914,28.769,-0.78125,-2.34375,0.0
2915,28.779,0.0,-1.5625,0.0
2916,28.789,-0.78125,-0.78125,0.0
2917,28.799,-0.78125,-2.34375,0.0
2918,28.809,-0.78125,-1.5625,0.0
2919,28.819,-0.78125,-2.34375,0.0
2920,28.829,-0.78125,-1.5625,0.0
2921,28.839,-0.78125,-0.78125,0.0
2922,28.849,-0.78125,0.0,0.0
2923,28.859,-0.78125,0.0,0.0
2924,28.869,-0.78125,-0.78125,0.0
2925,28.879,-0.78125,-1.5625,0.0
2926,28.889,-0.78125,-2.34375,0.0
2927,28.899,-0.78125,-1.5625,0.0
2928,28.909,-0.78125,0.78125,0.0
2929,28.919,0.0,0.0,0.0
2930,28.929,-0.78125,-2.34375,0.0
2931,28.939,-0.78125,-2.34375,0.0
2932,28.949,-0.78125,-1.5625,0.0
2933,28.959,-0.78125,-0.78125,0.0
2934,28.969,-0.78125,-0.78125,0.0
2935,28.979,-0.78125,-1.5625,0.0
2936,28.989,-0.78125,-0.78125,0.0
2937,28.999,-0.78125,-0.78125,0.0
2938,29.009,0.0,-0.78125,0.0
2939,29.019,-0.78125,-1.5625,0.0
2940,29.029,-0.78125,-0.78125,0.0
2941,29.039,-0.78125,-0.78125,0.0
2942,29.049,-0.78125,-2.34375,0.0
2943,29.059,0.0,-0.78125,0.0
2944,29.069,0.0,-0.78125,0.0
2945,29.079,0.0,-0.78125,0.0
2946,29.089,0.0,-1.5625,0.0
2947,29.099,0.0,-0.78125,0.0
2948,29.109,-0.78125,-1.5625,0.0
2949,29.119,-0.78125,-0.78125,0.0
2950,29.129,-1.5625,-2.34375,0.0
2951,29.139,-0.78125,-0.78125,0.0
2952,29.149,-0.78125,-1.5625,0.0
2953,29.159,0.0,-0.78125,0.0
2954,29.169,-0.78125,-2.34375,0.0
2955,29.179,-0.78125,0.0,0.0
2956,29.189,-1.5625,-2.34375,0.0
2957,29.199,-0.78125,0.0,0.0
2958,29.209,0.0,-2.34375,0.0
2959,29.219,0.0,-0.78125,0.0
2960,29.229,-1.5625,-2.34375,0.0
2961,29.239,-0.78125,-0.78125,0.0
2962,29.249,0.0,-1.5625,0.0
2963,29.259,-0.78125,-1.5625,0.0
2964,29.269,-0.78125,-0.78125,0.0
2965,29.279,-0.78125,-2.34375,0.0
2966,29.289,0.0,-0.78125,0.0
2967,29.299,-1.5625,-2.34375,0.0
2968,29.309,-0.78125,-1.5625,0.0
2969,29.319,0.0,-1.5625,0.0
2970,29.329,0.0,-1.5625,0.0
2971,29.339,-1.5625,-1.5625,0.0
2972,29.349,-0.78125,-1.5625,0.0
2973,29.359,-0.78125,-1.5625,0.0
2974,29.369,0.0,-0.78125,0.0
2975,29.379,0.0,-1.5625,0.0
2976,29.389,0.0,-2.34375,0.0
2977,29.399,-0.78125,-0.78125,0.0
2978,29.409,-0.78125,-1.5625,0.0
2979,29.419,0.0,-1.5625,0.0
2980,29.429,-0.78125,-0.78125,0.0
2981,29.439,0.0,-0.78125,0.0
2982,29.449,-0.78125,-0.78125,0.0
2983,29.459,0.0,-1.5625,0.0
2984,29.469,-0.78125,-1.5625,0.0
2985,29.479,0.0,-1.5625,0.0
2986,29.489,0.0,-1.5625,0.0
2987,29.499,-0.78125,-1.5625,0.0
2988,29.509,-0.78125,-1.5625,0.0
2989,29.519,-0.78125,-0.78125,0.0
2990,29.529,-1.5625,-2.34375,0.0
2991,29.539,-0.78125,0.0,0.0
2992,29.549,0.0,-2.34375,0.0
2993,29.559,-0.78125,0.0,0.0
2994,29.569,-0.78125,-2.34375,0.0
2995,29.579,0.0,-0.78125,0.0
2996,29.589,0.0,-0.78125,0.0
2997,29.599,-0.78125,-2.34375,0.0
2998,29.609,-0.78125,0.78125,0.0
2999,29.619,0.0,-2.34375,0.0
3000,29.629,-0.78125,-0.78125,0.0
3001,29.639,0.0,-0.78125,0.0
3002,29.649,-0.78125,-1.5625,0.0
3003,29.659,0.0,-1.5625,0.0
3004,29.669,0.0,-1.5625,0.0
3005,29.679,-0.78125,0.0,0.0
3006,29.689,0.0,-1.5625,0.0
3007,29.699,-0.78125,0.0,0.0
3008,29.709,-0.78125,-1.5625,0.0
3009,29.719,0.0,-0.78125,0.0
3010,29.729,-0.78125,-2.34375,0.0
3011,29.739,0.0,-0.78125,0.0
3012,29.749,-0.78125,-2.34375,0.0
3013,29.759,-0.78125,-1.5625,0.0
3014,29.769,0.0,-1.5625,0.0
3015,29.779,-0.78125,-2.34375,0.0
3016,29.789,0.0,-2.34375,0.0
3017,29.799,-0.78125,-0.78125,0.0
3018,29.809,-0.78125,-1.5625,0.0
3019,29.819,-0.78125,-0.78125,0.0
3020,29.829,-0.78125,-0.78125,0.0
3021,29.839,0.0,-1.5625,0.0
3022,29.849,-0.78125,-1.5625,0.0
3023,29.859,-0.78125,-2.34375,0.0
3024,29.869,0.0,-2.34375,0.0
3025,29.879,-0.78125,-2.34375,0.0
3026,29.889,0.0,-2.34375,0.0
3027,29.899,0.0,-2.34375,0.0
3028,29.909,-0.78125,-0.78125,0.0
3029,29.919,0.0,-0.78125,0.0
3030,29.929,0.0,-0.78125,0.0
3031,29.939,-0.78125,-0.78125,0.0
3032,29.949,-0.78125,-0.78125,0.0
3033,29.959,0.0,-0.78125,0.0
3034,29.969,-0.78125,-1.5625,0.0
3035,29.979,-0.78125,-0.78125,0.0
3036,29.989,0.0,-0.78125,0.0
3037,29.999,0.0,-0.78125,0.0
3038,30.009,-0.78125,-1.5625,0.0
3039,30.019,-0.78125,-1.5625,0.0
3040,30.029,-0.78125,-0.78125,0.0
3041,30.039,0.0,-2.34375,0.0
3042,30.049,0.0,-0.78125,0.0
3043,30.059,0.78125,-0.78125,0.0
3044,30.069,0.0,-2.34375,0.0
3045,30.079,0.0,-0.78125,0.0
3046,30.089,0.0,-1.5625,0.0
3047,30.099,0.0,-1.5625,0.0
3048,30.109,0.0,-0.78125,0.0
3049,30.119,0.0,-2.34375,0.0
3050,30.129,0.0,-0.78125,0.0
3051,30.139,-0.78125,-0.78125,0.0
3052,30.149,-0.78125,-1.5625,0.0
3053,30.159,-0.78125,-1.5625,0.0
3054,30.169,-0.78125,-0.78125,0.0
3055,30.179,-0.78125,-1.5625,0.0
3056,30.189,-0.78125,-1.5625,0.0
3057,30.199,-0.78125,-0.78125,0.0
3058,30.209,-0.78125,-1.5625,0.0
3059,30.219,-0.78125,-2.34375,0.0
3060,30.229,-0.78125,-1.5625,0.0
3061,30.239,-1.5625,-1.5625,0.0
3062,30.249,-0.78125,-1.5625,0.0
3063,30.259,-0.78125,-1.5625,0.0
3064,30.269,-0.78125,-1.5625,0.0
3065,30.279,-0.78125,-1.5625,0.0
3066,30.289,-0.78125,-1.5625,0.0
3067,30.299,-0.78125,-1.5625,0.0
3068,30.309,-0.78125,-0.78125,0.0
3069,30.319,0.0,-1.5625,0.0
3070,30.329,0.0,-0.78125,0.0
3071,30.339,0.0,-1.5625,0.0
3072,30.349,0.0,-1.5625,0.0
3073,30.359,-0.78125,-1.5625,0.0
3074,30.369,-0.78125,-1.5625,0.0
3075,30.379,-0.78125,-0.78125,0.0
3076,30.389,0.0,-1.5625,0.0
3077,30.399,0.0,-1.5625,0.0
3078,30.409,0.78125,-0.78125,0.0
3079,30.419,-0.78125,-1.5625,0.0
