,ts,acc_x,acc_y,acc_z
0,26884,0,0,0
1,26894,0,-1,0
2,26904,0,-1,0
3,26914,0,-1,0
4,26924,0,-1,0
5,26934,0,-1,0
6,26944,0,-1,0
7,26954,0,-1,0
8,26964,0,-1,0
9,26974,0,-1,0
10,26984,0,-1,0
11,26994,0,-1,0
12,27004,0,-1,0
13,27014,-1,-1,0
14,27024,0,-1,0
15,27034,0,-1,0
16,27044,0,-1,0
17,27054,0,-1,0
18,27064,0,-1,0
19,27074,-1,-1,0
20,27084,0,-1,0
21,27094,-1,-1,0
22,27104,0,-1,0
23,27114,-1,-1,0
24,27124,0,-1,0
25,27134,-1,-1,0
26,27144,0,-1,0
27,27154,-1,0,0
28,27164,-1,-1,0
29,27174,-1,-1,0
30,27184,0,-1,0
31,27194,0,-1,0
32,27204,0,-1,0
33,27214,0,-1,0
34,27224,0,-1,0
35,27234,0,0,0
36,27244,0,-1,0
37,27254,0,-1,0
38,27264,0,0,0
39,27274,0,0,0
40,27284,-1,-1,0
41,27294,0,-1,0
42,27304,0,-1,0
43,27314,0,-1,0
44,27324,0,-1,0
45,27334,0,-1,0
46,27344,0,-1,0
47,27354,0,0,0
48,27364,0,-1,0
49,27374,-1,-1,0
50,27384,0,-1,0
51,27394,0,-1,0
52,27404,-1,-1,0
53,27414,-1,-1,0
54,27424,0,0,0
55,27434,0,-1,0
56,27444,-1,-1,0
57,27454,-1,-1,0
58,27464,0,0,0
59,27474,0,-1,0
60,27484,0,-1,0
61,27494,0,-1,0
62,27504,0,-1,0
63,27514,0,-1,0
64,27524,0,-1,0
65,27534,0,0,0
66,27544,0,-1,0
67,27554,0,-1,0
68,27564,-1,-1,0
69,27574,-1,-1,0
70,27584,0,-1,0
71,27594,-1,-1,0
72,27604,0,-1,0
73,27614,0,-1,0
74,27624,0,0,0
75,27634,-1,-1,0
76,27644,-1,-1,0
77,27654,-1,-1,0
78,27664,0,-1,0
79,27674,0,-1,0
80,27684,0,-1,0
81,27694,0,-1,0
82,27704,0,0,0
83,27714,0,-1,0
84,27724,0,-1,0
85,27734,0,-1,0
86,27744,0,-1,0
87,27754,-1,0,0
88,27764,0,0,0
89,27774,0,-1,0
90,27784,-1,-1,0
91,27794,0,-1,0
92,27804,-1,-1,0
93,27814,0,-1,0
94,27824,0,-1,0
95,27834,0,-1,0
96,27844,0,0,0
97,27854,0,0,0
98,27864,-1,-1,0
99,27874,-1,-1,0
100,27884,-1,-1,0
101,27894,0,0,0
102,27904,0,0,0
103,27914,0,0,0
104,27924,-1,-1,0
105,27934,-1,-1,0
106,27944,0,-1,0
107,27954,0,-1,0
108,27964,-1,0,0
109,27974,0,-1,0
110,27984,0,-1,0
111,27994,-1,-1,0
112,28004,-1,-1,0
113,28014,-1,0,0
114,28024,0,-1,0
115,28034,0,0,0
116,28044,0,-1,0
117,28054,0,-1,0
118,28064,-1,-1,0
119,28074,0,-1,0
120,28084,0,-1,0
121,28094,0,-1,0
122,28104,0,-1,0
123,28114,-1,-1,0
124,28124,-1,-1,0
125,28134,-1,-1,0
126,28144,0,-1,0
127,28154,0,-1,0
128,28164,-1,-1,0
129,28174,-1,-1,0
130,28184,-1,-1,0
131,28194,-1,-1,0
132,28204,0,0,0
133,28214,0,0,0
134,28224,0,-1,0
135,28234,0,-1,0
136,28244,-1,-1,0
137,28254,-1,-1,0
138,28264,0,0,0
139,28274,0,-1,0
140,28284,0,-1,0
141,28294,0,-1,0
142,28304,0,-1,0
143,28314,0,0,0
144,28324,0,-1,0
145,28334,0,-1,0
146,28344,-1,-1,0
147,28354,0,-1,0
148,28364,0,-1,0
149,28374,0,-1,0
150,28384,0,-1,0
151,28394,-1,-1,0
152,28404,-1,-1,0
153,28414,0,-1,0
154,28424,0,0,0
155,28434,-1,-1,0
156,28444,-1,-1,0
157,28454,0,-1,0
158,28464,0,-1,0
159,28474,0,-1,0
160,28484,-1,-1,0
161,28494,0,-1,0
162,28504,0,0,0
163,28514,0,-1,0
164,28524,-1,-1,0
165,28534,0,-1,0
166,28544,0,-1,0
167,28554,-1,-1,0
168,28564,-1,-1,0
169,28574,0,0,0
170,28584,0,-1,0
171,28594,-1,-1,0
172,28604,0,-1,0
173,28614,0,-1,0
174,28624,0,-1,0
175,28634,-1,-1,0
176,28644,0,0,0
177,28654,-1,-1,0
178,28664,-1,-1,0
179,28674,0,-1,0
180,28684,0,-1,0
181,28694,0,0,0
182,28704,0,-1,0
183,28714,0,0,0
184,28724,-1,-1,0
185,28734,0,-1,0
186,28744,-1,-1,0
187,28754,-1,0,0
188,28764,0,-1,0
189,28774,0,-1,0
190,28784,0,-1,0
191,28794,-1,-1,0
192,28804,0,-1,0
193,28814,-1,-1,0
194,28824,0,-1,0
195,28834,-1,-1,0
196,28844,0,-1,0
197,28854,0,-1,0
198,28864,-1,-1,0
199,28874,0,-1,0
200,28884,0,-1,0
201,28894,0,0,0
202,28904,-1,-1,0
203,28914,0,-1,0
204,28924,0,-1,0
205,28934,0,0,0
206,28944,0,-1,0
207,28954,-1,-1,0
208,28964,0,-1,0
209,28974,0,-1,0
210,28984,0,-1,0
211,28994,-1,-1,0
212,29004,0,-1,0
213,29014,0,-1,0
214,29024,0,-1,0
215,29034,0,-1,0
216,29044,0,0,0
217,29054,-1,-1,0
218,29064,0,-1,0
219,29074,-1,-1,0
220,29084,0,0,0
221,29094,0,-2,0
222,29104,-1,-1,0
223,29114,0,-1,0
224,29124,-1,-1,0
225,29134,0,-1,0
226,29144,-1,-1,0
227,29154,0,-1,0
228,29164,-1,-1,0
229,29174,0,-1,0
230,29184,0,-1,0
231,29194,0,-1,0
232,29204,-1,0,0
233,29214,0,-1,0
234,29224,-1,-1,0
235,29234,-1,-1,0
236,29244,0,0,0
237,29254,-1,-1,0
238,29264,0,-1,0
239,29274,-1,-1,0
240,29284,0,-1,0
241,29294,0,-1,0
242,29304,-1,-1,0
243,29314,0,-1,0
244,29324,-1,-1,0
245,29334,0,-1,0
246,29344,-1,-1,0
247,29354,0,0,0
248,29364,-1,-1,0
249,29374,0,-1,0
250,29384,-1,-1,0
251,29394,-1,-1,0
252,29404,0,0,0
253,29414,0,-1,0
254,29424,0,0,0
255,29434,-1,-1,0
256,29444,0,0,0
257,29454,-1,-1,0
258,29464,0,-1,0
259,29474,-1,-1,0
260,29484,0,-1,0
261,29494,-1,-1,0
262,29504,0,-1,0
263,29514,0,0,0
264,29524,0,-1,0
265,29534,-1,-1,0
266,29544,0,-1,0
267,29554,-1,-1,0
268,29564,-1,-1,0
269,29574,-1,0,0
270,29584,0,-1,0
271,29594,0,0,0
272,29604,-1,-1,0
273,29614,0,-1,0
274,29624,0,-1,0
275,29634,-1,-1,0
276,29644,0,0,0
277,29654,-1,-1,0
278,29664,0,-1,0
279,29674,0,-1,0
280,29684,0,-1,0
281,29694,0,-1,0
282,29704,-1,-1,0
283,29714,0,0,0
284,29724,-1,-1,0
285,29734,-1,-1,0
286,29744,0,0,0
287,29754,-1,-1,0
288,29764,0,-1,0
289,29774,-1,-1,0
290,29784,0,-1,0
291,29794,0,0,0
292,29804,0,-2,0
293,29814,0,0,0
294,29824,-1,-1,0
295,29834,0,-1,0
296,29844,0,-1,0
297,29854,0,-1,0
298,29864,0,-1,0
299,29874,0,-1,0
300,29884,0,-1,0
301,29894,0,0,0
302,29904,-1,-1,0
303,29914,0,-1,0
304,29924,0,-1,0
305,29934,-1,-1,0
306,29944,0,0,0
307,29954,0,0,0
308,29964,0,-1,0
309,29974,0,-1,0
310,29984,0,-1,0
311,29994,0,-1,0
312,30004,0,0,0
313,30014,-1,-1,0
314,30024,-1,-1,0
315,30034,0,-1,0
316,30044,-1,-1,0
317,30054,0,-1,0
318,30064,-1,-1,0
319,30074,0,-1,0
320,30084,0,0,0
321,30094,0,-1,0
322,30104,0,0,0
323,30114,-1,-1,0
324,30124,-1,0,0
325,30134,0,-1,0
326,30144,-1,-1,0
327,30154,0,-1,0
328,30164,0,-1,0
329,30174,0,-1,0
330,30184,0,0,0
331,30194,-1,-2,0
332,30204,0,0,0
333,30214,0,-1,0
334,30224,0,-1,0
335,30234,0,-1,0
336,30244,-1,-1,0
337,30254,0,-1,0
338,30264,0,0,0
339,30274,0,-1,0
340,30284,0,0,0
341,30294,-1,-2,0
342,30304,0,-1,0
343,30314,0,-1,0
344,30324,-1,-2,0
345,30334,-1,0,0
346,30344,0,-1,0
347,30354,0,-1,0
348,30364,-1,-1,0
349,30374,0,-1,0
350,30384,-1,-1,0
351,30394,0,-1,0
352,30404,0,-1,0
353,30414,-1,-2,0
354,30424,0,0,0
355,30434,-1,-1,0
356,30444,-1,-1,0
357,30454,0,0,0
358,30464,-1,-2,0
359,30474,0,-1,0
360,30484,-1,-1,0
361,30494,-1,-1,0
362,30504,0,0,0
363,30514,0,-1,0
364,30524,0,0,0
365,30534,-1,-1,0
366,30544,0,-1,0
367,30554,0,0,0
368,30564,-1,-1,0
369,30574,0,0,0
370,30584,0,-1,0
371,30594,-1,-1,0
372,30604,0,0,0
373,30614,-1,-1,0
374,30624,0,-1,0
375,30634,-1,-1,0
376,30644,0,-2,0
377,30654,-1,0,0
378,30664,0,-1,0
379,30674,0,0,0
380,30684,0,-1,0
381,30694,-1,-1,0
382,30704,0,-1,0
383,30714,-1,-1,0
384,30724,0,0,0
385,30734,-1,-1,0
386,30744,0,-1,0
387,30754,-1,0,0
388,30764,0,-2,0
389,30774,-1,-1,0
390,30784,0,-1,0
391,30794,0,-1,0
392,30804,0,-2,0
393,30814,0,0,0
394,30824,-1,-1,0
395,30834,-1,-1,0
396,30844,0,-1,0
397,30854,0,-1,0
398,30864,0,-1,0
399,30874,-1,-1,0
400,30884,0,-1,0
401,30894,-1,-1,0
402,30904,-1,-1,0
403,30914,0,-1,0
404,30924,0,-1,0
405,30934,0,-1,0
406,30944,0,-1,0
407,30954,0,-1,0
408,30964,0,-1,0
409,30974,0,0,0
410,30984,0,-1,0
411,30994,0,0,0
412,31004,0,-1,0
413,31014,0,-1,0
414,31024,-1,-1,0
415,31034,0,-1,0
416,31044,-1,-1,0
417,31054,0,0,0
418,31064,0,-2,0
419,31074,0,0,0
420,31084,0,-1,0
421,31094,0,-1,0
422,31104,-1,-1,0
423,31114,0,-1,0
424,31124,-1,-1,0
425,31134,0,-1,0
426,31144,0,-1,0
427,31154,0,-1,0
428,31164,0,-1,0
429,31174,-1,-1,0
430,31184,-1,-1,0
431,31194,0,-1,0
432,31204,0,-1,0
433,31214,0,-1,0
434,31224,-1,-1,0
435,31234,0,-1,0
436,31244,-1,-1,0
437,31254,-1,-1,0
438,31264,-1,-1,0
439,31274,0,0,0
440,31284,-1,-1,0
441,31294,0,-1,0
442,31304,-1,-1,0
443,31314,0,-1,0
444,31324,0,-1,0
445,31334,-1,0,0
446,31344,0,-1,0
447,31354,-1,-1,0
448,31364,0,-1,0
449,31374,-1,-1,0
450,31384,0,0,0
451,31394,0,-1,0
452,31404,-1,-1,0
453,31414,0,-1,0
454,31424,-1,-1,0
455,31434,-1,-1,0
456,31444,0,-1,0
457,31454,0,-1,0
458,31464,0,-1,0
459,31474,-1,-1,0
460,31484,0,-1,0
461,31494,0,-1,0
462,31504,-1,-1,0
463,31514,-1,-1,0
464,31524,0,-1,0
465,31534,0,-1,0
466,31544,0,-1,0
467,31554,0,-1,0
468,31564,-1,-1,0
469,31574,0,-1,0
470,31584,-1,-1,0
471,31594,0,-1,0
472,31604,0,-1,0
473,31614,-1,-1,0
474,31624,0,-1,0
475,31634,0,-1,0
476,31644,-1,-2,0
477,31654,-1,-1,0
478,31664,0,-1,0
479,31674,0,-1,0
480,31684,-1,-1,0
481,31694,0,-1,0
482,31704,0,-1,0
483,31714,-1,-1,0
484,31724,-1,-1,0
485,31734,0,0,0
486,31744,0,-1,0
487,31754,0,-1,0
488,31764,0,-1,0
489,31774,0,-1,0
490,31784,0,-1,0
491,31794,-1,-1,0
492,31804,-1,-1,0
493,31814,-1,-1,0
494,31824,0,-1,0
495,31834,0,-1,0
496,31844,-1,-1,0
497,31854,0,-1,0
498,31864,0,-1,0
499,31874,0,-1,0
500,31884,0,-1,0
501,31894,0,-1,0
502,31904,0,-1,0
503,31914,-1,-1,0
504,31924,-1,-1,0
505,31934,-1,-1,0
506,31944,-1,-1,0
507,31954,-1,-1,0
508,31964,-1,-1,0
509,31974,0,-1,0
510,31984,0,-1,0
511,31994,-1,-1,0
512,32004,-1,-1,0
513,32014,-1,-1,0
514,32024,-1,-1,0
515,32034,0,-1,0
516,32044,0,-1,0
517,32054,0,-1,0
518,32064,-1,-1,0
519,32074,-1,-1,0
520,32084,-1,-1,0
521,32094,0,-1,0
522,32104,0,-1,0
523,32114,0,-1,0
524,32124,0,-1,0
525,32134,-1,-1,0
526,32144,-1,-1,0
527,32154,0,-1,0
528,32164,0,-1,0
529,32174,0,-1,0
530,32184,0,0,0
531,32194,-1,-1,0
532,32204,-1,-1,0
533,32214,-1,-1,0
534,32224,0,-1,0
535,32234,0,-1,0
536,32244,0,-1,0
537,32254,-1,-1,0
538,32264,0,-1,0
539,32274,-1,-1,0
540,32284,-1,-1,0
541,32294,0,-1,0
542,32304,-1,-1,0
543,32314,0,-2,0
544,32324,0,-1,0
545,32334,0,-1,0
546,32344,0,0,0
547,32354,-1,-1,0
548,32364,-1,-1,0
549,32374,-1,-1,0
550,32384,0,-1,0
551,32394,0,-1,0
552,32404,0,-1,0
553,32414,0,0,0
554,32424,0,-1,0
555,32434,-1,-1,0
556,32444,-1,-1,0
557,32454,-1,-1,0
558,32464,0,-1,0
559,32474,0,-1,0
560,32484,-1,0,0
561,32494,-1,-1,0
562,32504,0,-1,0
563,32514,0,-1,0
564,32524,-1,-1,0
565,32534,-1,-1,0
566,32544,0,-1,0
567,32554,0,-1,0
568,32564,-1,-1,0
569,32574,0,-1,0
570,32584,-1,-1,0
571,32594,-1,-1,0
572,32604,0,-1,0
573,32614,0,-1,0
574,32624,-1,-1,0
575,32634,0,-1,0
576,32644,0,-1,0
577,32654,-1,-1,0
578,32664,0,-1,0
579,32674,-1,-1,0
580,32684,0,-1,0
581,32694,0,-1,0
582,32704,-1,-1,0
583,32714,0,-1,0
584,32724,-1,-1,0
585,32734,-1,-1,0
586,32744,0,-1,0
587,32754,-1,-1,0
588,32764,0,-1,0
589,32774,-1,-1,0
590,32784,-1,-1,0
591,32794,0,-1,0
592,32804,-1,-1,0
593,32814,-1,-1,0
594,32824,-1,-1,0
595,32834,-1,-1,0
596,32844,0,-1,0
597,32854,-1,-1,0
598,32864,0,-1,0
599,32874,-1,-1,0
600,32884,0,-1,0
601,32894,-1,-1,0
602,32904,0,-1,0
603,32914,-1,-1,0
604,32924,0,-1,0
605,32934,-1,-1,0
606,32944,0,-1,0
607,32954,-1,-1,0
608,32964,0,-1,0
609,32974,-1,-1,0
610,32984,-1,-1,0
611,32994,0,-1,0
612,33004,-1,-1,0
613,33014,0,-1,0
614,33024,-1,-1,0
615,33034,-1,-1,0
616,33044,0,-1,0
617,33054,0,-1,0
618,33064,0,-1,0
619,33074,0,-1,0
620,33084,-1,-1,0
621,33094,0,-1,0
622,33104,0,-1,0
623,33114,-1,-1,0
624,33124,-1,-1,0
625,33134,-1,-1,0
626,33144,-1,-1,0
627,33154,0,-1,0
628,33164,0,-1,0
629,33174,-1,-1,0
630,33184,-1,-1,0
631,33194,0,-1,0
632,33204,-1,-1,0
633,33214,-2,-1,0
634,33224,1,-1,0
635,33234,1,-1,0
636,33244,0,-1,0
637,33254,-1,-1,0
638,33264,-1,-1,0
639,33274,-1,-1,0
640,33284,-1,-1,0
641,33294,-1,-1,0
642,33304,-1,-1,0
643,33314,0,-1,0
644,33324,0,-1,0
645,33334,-1,-1,0
646,33344,-2,-1,0
647,33354,-1,-1,0
648,33364,0,-1,0
649,33374,1,-1,0
650,33384,1,-1,0
651,33394,1,-1,0
652,33404,0,-1,0
653,33414,-1,-1,0
654,33424,-2,-1,0
655,33434,-2,-1,0
656,33444,-2,-1,0
657,33454,-1,-1,0
658,33464,-1,-1,0
659,33474,0,-1,0
660,33484,0,-1,0
661,33494,0,-1,0
662,33504,0,-1,0
663,33514,-1,-2,0
664,33524,-1,-1,0
665,33534,-1,-1,0
666,33544,-2,-1,0
667,33554,-2,-1,0
668,33564,-2,-1,0
669,33574,-2,-1,0
670,33584,-1,-1,0
671,33594,-1,-1,0
672,33604,-1,-1,0
673,33614,0,-1,0
674,33624,0,-1,0
675,33634,0,-1,0
676,33644,0,-1,0
677,33654,-1,-1,0
678,33664,-1,-1,0
679,33674,0,-1,0
680,33684,-1,-1,0
681,33694,0,-1,0
682,33704,0,-1,0
683,33714,0,-1,0
684,33724,0,-1,0
685,33734,-1,-1,0
686,33744,-1,-1,0
687,33754,0,-1,0
688,33764,0,-1,0
689,33774,-1,-1,0
690,33784,-1,-1,0
691,33794,-1,-1,0
692,33804,-1,-1,0
693,33814,-1,-1,0
694,33824,-1,-1,0
695,33834,-1,-1,0
696,33844,-1,-1,0
697,33854,-1,-1,0
698,33864,-1,-1,0
699,33874,-1,-1,0
700,33884,-1,-1,0
701,33894,-1,-1,0
702,33904,-1,-1,0
703,33914,-1,-1,0
704,33924,-1,-1,0
705,33934,-1,-1,0
706,33944,0,-1,0
707,33954,-1,-1,0
708,33964,-1,-1,0
709,33974,-1,-1,0
710,33984,0,-1,0
711,33994,0,-1,0
712,34004,0,-1,0
713,34014,0,-1,0
714,34024,0,-1,0
715,34034,0,-1,0
716,34044,-1,-1,0
717,34054,-1,-1,0
718,34064,-1,-1,0
719,34074,-1,-1,0
720,34084,-1,-2,0
721,34094,-1,-1,0
722,34104,-1,-1,0
723,34114,-1,-1,0
724,34124,0,-1,0
725,34134,0,-1,0
726,34144,0,-1,0
727,34154,0,0,0
728,34164,0,-1,0
729,34174,-1,-1,0
730,34184,-1,-1,0
731,34194,-1,-1,0
732,34204,-1,-1,0
733,34214,-1,-1,0
734,34224,0,-1,0
735,34234,0,-1,0
736,34244,0,-1,0
737,34254,-1,-1,0
738,34264,-1,-1,0
739,34274,-1,-1,0
740,34284,-1,-1,0
741,34294,0,-1,0
742,34304,0,-1,0
743,34314,-1,-1,0
744,34324,-1,-1,0
745,34334,0,-1,0
746,34344,0,-1,0
747,34354,-1,0,0
748,34364,-1,-1,0
749,34374,-1,-1,0
750,34384,0,-1,0
751,34394,0,-1,0
752,34404,0,-1,0
753,34414,-1,-1,0
754,34424,0,-1,0
755,34434,0,-1,0
756,34444,-1,-1,0
757,34454,0,-1,0
758,34464,-1,-1,0
759,34474,-1,-1,0
760,34484,0,-1,0
761,34494,-1,-1,0
762,34504,0,-1,0
763,34514,0,-1,0
764,34524,-1,-1,0
765,34534,0,-1,0
766,34544,0,-1,0
767,34554,0,-1,0
768,34564,0,-2,0
769,34574,0,-1,0
770,34584,0,-1,0
771,34594,0,-1,0
772,34604,0,-1,0
773,34614,-1,-1,0
774,34624,0,-1,0
775,34634,0,-1,0
776,34644,-1,-1,0
777,34654,0,-1,0
778,34664,-1,-1,0
779,34674,0,-1,0
780,34684,0,-1,0
781,34694,-1,-1,0
782,34704,0,-1,0
783,34714,0,-1,0
784,34724,0,-1,0
785,34734,0,-2,0
786,34744,0,-1,0
787,34754,-1,-1,0
788,34764,-1,-1,0
789,34774,0,-1,0
790,34784,-1,-1,0
791,34794,-1,-1,0
792,34804,0,-1,0
793,34814,-1,-1,0
794,34824,0,-1,0
795,34834,-1,-1,0
796,34844,-1,-1,0
797,34854,-1,-1,0
798,34864,-1,-1,0
799,34874,-1,-2,0
800,34884,0,-1,0
801,34894,-1,-1,0
802,34904,0,-1,0
803,34914,-1,-1,0
804,34924,0,-1,0
805,34934,-1,-1,0
806,34944,0,-1,0
807,34954,-1,-1,0
808,34964,0,-1,0
809,34974,-1,-1,0
810,34984,0,-1,0
811,34994,-1,-1,0
812,35004,-1,-1,0
813,35014,0,-2,0
814,35024,0,-1,0
815,35034,-1,-1,0
816,35044,0,-1,0
817,35054,-1,-1,0
818,35064,0,-1,0
819,35074,-1,-1,0
820,35084,0,-1,0
821,35094,-1,-1,0
822,35104,-1,-2,0
823,35114,0,-1,0
824,35124,-1,-1,0
825,35134,0,-1,0
826,35144,-1,-1,0
827,35154,0,-1,0
828,35164,-1,-1,0
829,35174,0,-1,0
830,35184,-1,-1,0
831,35194,0,-1,0
832,35204,-1,-1,0
833,35214,0,-1,0
834,35224,0,-1,0
835,35234,0,-1,0
836,35244,-1,-1,0
837,35254,0,-1,0
838,35264,0,-1,0
839,35274,0,-1,0
840,35284,-1,-1,0
841,35294,0,-1,0
842,35304,-1,-1,0
843,35314,0,-1,0
844,35324,-1,-1,0
845,35334,0,-1,0
846,35344,0,-1,0
847,35354,-1,-1,0
848,35364,0,-1,0
849,35374,-1,-1,0
850,35384,-1,-1,0
851,35394,0,-1,0
852,35404,-1,-1,0
853,35414,0,-1,0
854,35424,-1,-1,0
855,35434,0,-1,0
856,35444,-1,-1,0
857,35454,-1,-1,0
858,35464,-1,-2,0
859,35474,0,-1,0
860,35484,0,-1,0
861,35494,-1,-1,0
862,35504,0,-1,0
863,35514,0,-1,0
864,35524,-1,-1,0
865,35534,0,-1,0
866,35544,-1,-1,0
867,35554,-1,-1,0
868,35564,0,-1,0
869,35574,-1,-1,0
870,35584,0,-1,0
871,35594,-1,-1,0
872,35604,0,-1,0
873,35614,-1,-1,0
874,35624,0,-2,0
875,35634,-1,-1,0
876,35644,0,-1,0
877,35654,0,-1,0
878,35664,0,-1,0
879,35674,-1,-1,0
880,35684,-1,-1,0
881,35694,0,-1,0
882,35704,-1,-2,0
883,35714,0,-1,0
884,35724,0,-1,0
885,35734,-1,-2,0
886,35744,0,-1,0
887,35754,-1,-1,0
888,35764,-1,-2,0
889,35774,0,-1,0
890,35784,-1,-1,0
891,35794,-1,-1,0
892,35804,0,-1,0
893,35814,0,-1,0
894,35824,-1,-1,0
895,35834,-1,-1,0
896,35844,0,-1,0
897,35854,-1,-1,0
898,35864,0,-1,0
899,35874,0,-1,0
900,35884,-1,-2,0
901,35894,0,-1,0
902,35904,0,-1,0
903,35914,-1,-1,0
904,35924,0,-1,0
905,35934,-1,-1,0
906,35944,-1,-1,0
907,35954,0,-1,0
908,35964,-1,-1,0
909,35974,-1,-1,0
910,35984,0,-1,0
911,35994,-1,-1,0
912,36004,0,-1,0
913,36014,0,-1,0
914,36024,-1,-1,0
915,36034,0,-1,0
916,36044,0,-1,0
917,36054,0,-1,0
918,36064,-1,-1,0
919,36074,-1,-2,0
920,36084,0,-1,0
921,36094,-1,-2,0
922,36104,-1,-1,0
923,36114,-1,-1,0
924,36124,0,-1,0
925,36134,0,-1,0
926,36144,0,-1,0
927,36154,-1,-1,0
928,36164,0,-1,0
929,36174,-1,-1,0
930,36184,-1,-1,0
931,36194,-1,-1,0
932,36204,-1,-1,0
933,36214,0,-1,0
934,36224,-1,-1,0
935,36234,0,-1,0
936,36244,0,-1,0
937,36254,0,-1,0
938,36264,-1,-1,0
939,36274,-1,-1,0
940,36284,-1,-1,0
941,36294,-1,-1,0
942,36304,-1,-1,0
943,36314,0,-1,0
944,36324,0,-1,0
945,36334,0,-1,0
946,36344,0,-1,0
947,36354,0,-1,0
948,36364,0,-1,0
949,36374,-1,-1,0
950,36384,0,-1,0
951,36394,0,-1,0
952,36404,0,-1,0
953,36414,0,-1,0
954,36424,-1,-1,0
955,36434,-1,-1,0
956,36444,-1,-1,0
957,36454,-1,-2,0
958,36464,0,-1,0
959,36474,-1,-1,0
960,36484,-1,-1,0
961,36494,-1,-1,0
962,36504,-1,-1,0
963,36514,-1,-1,0
964,36524,-1,-1,0
965,36534,0,-1,0
966,36544,0,-1,0
967,36554,0,-1,0
968,36564,-1,-1,0
969,36574,0,-1,0
970,36584,-1,-1,0
971,36594,0,-1,0
972,36604,-1,-1,0
973,36614,0,-1,0
974,36624,0,-1,0
975,36634,-1,-1,0
976,36644,0,-1,0
977,36654,-1,-1,0
978,36664,0,-1,0
979,36674,-1,-2,0
980,36684,-1,-1,0
981,36694,-1,-1,0
982,36704,-1,-1,0
983,36714,-1,-1,0
984,36724,0,-1,0
985,36734,0,-1,0
986,36744,-1,-1,0
987,36754,0,-1,0
988,36764,0,-1,0
989,36774,0,-1,0
990,36784,-1,-1,0
991,36794,0,-1,0
992,36804,0,-1,0
993,36814,0,-1,0
994,36824,-1,-1,0
995,36834,-1,-1,0
996,36844,0,-1,0
997,36854,-1,-1,0
998,36864,0,-1,0
999,36874,0,-1,0
1000,36884,0,-1,0
1001,36894,-1,-1,0
1002,36904,0,-1,0
1003,36914,0,-1,0
1004,36924,0,-1,0
1005,36934,-1,-1,0
1006,36944,-1,-1,0
1007,36954,-1,-1,0
1008,36964,-1,-1,0
1009,36974,0,-1,0
1010,36984,-1,-1,0
1011,36994,0,-1,0
1012,37004,0,-1,0
1013,37014,0,-1,0
1014,37024,0,-1,0
1015,37034,-1,-1,0
1016,37044,-1,-1,0
1017,37054,-1,-1,0
1018,37064,-1,-1,0
1019,37074,-1,-1,0
1020,37084,-1,-1,0
1021,37094,0,-1,0
1022,37104,0,-1,0
1023,37114,0,-1,0
1024,37124,0,-1,0
1025,37134,0,-1,0
1026,37144,-1,-1,0
1027,37154,-1,-1,0
1028,37164,0,-1,0
1029,37174,0,-1,0
1030,37184,-1,-1,0
1031,37194,0,-1,0
1032,37204,0,-1,0
1033,37214,0,-1,0
1034,37224,-1,-1,0
1035,37234,-1,-1,0
1036,37244,0,-1,0
1037,37254,0,-1,0
1038,37264,-1,-1,0
1039,37274,0,-1,0
1040,37284,0,-1,0
1041,37294,-1,-1,0
1042,37304,0,-1,0
1043,37314,-1,-1,0
1044,37324,0,-1,0
1045,37334,-1,-1,0
1046,37344,0,-1,0
1047,37354,-1,-1,0
1048,37364,0,-1,0
1049,37374,-1,-1,0
1050,37384,0,-1,0
1051,37394,-1,-1,0
1052,37404,0,-1,0
1053,37414,-1,-1,0
1054,37424,0,-1,0
1055,37434,-1,-1,0
1056,37444,-1,-1,0
1057,37454,0,-1,0
1058,37464,-1,-1,0
1059,37474,-1,-1,0
1060,37484,0,-1,0
1061,37494,-1,-1,0
1062,37504,0,-1,0
1063,37514,-1,-1,0
1064,37524,0,-1,0
1065,37534,0,-1,0
1066,37544,-1,-1,0
1067,37554,0,-1,0
1068,37564,-1,-1,0
1069,37574,0,-1,0
1070,37584,-1,-1,0
1071,37594,-1,-1,0
1072,37604,0,-1,0
1073,37614,-1,-1,0
1074,37624,0,-1,0
1075,37634,0,-1,0
1076,37644,-1,-1,0
1077,37654,-1,-1,0
1078,37664,-1,-1,0
1079,37674,0,-1,0
1080,37684,-1,-1,0
1081,37694,0,-1,0
1082,37704,-1,-1,0
1083,37714,-1,-1,0
1084,37724,0,-1,0
1085,37734,-1,-1,0
1086,37744,0,-1,0
1087,37754,-1,-1,0
1088,37764,-1,-1,0
1089,37774,0,-1,0
1090,37784,-1,-1,0
1091,37794,0,-1,0
1092,37804,-1,-1,0
1093,37814,-1,-1,0
1094,37824,0,-1,0
1095,37834,-1,-1,0
1096,37844,0,-1,0
1097,37854,0,-2,0
1098,37864,0,-1,0
1099,37874,0,-1,0
1100,37884,-1,-1,0
1101,37894,0,-1,0
1102,37904,0,-1,0
1103,37914,-1,-1,0
1104,37924,0,-1,0
1105,37934,-1,-1,0
1106,37944,-1,-1,0
1107,37954,0,-2,0
1108,37964,0,-1,0
1109,37974,0,-1,0
1110,37984,-1,-1,0
1111,37994,-1,-1,0
1112,38004,-1,-1,0
1113,38014,-1,-1,0
1114,38024,-1,-1,0
1115,38034,0,-1,0
1116,38044,-1,-1,0
1117,38054,-1,-1,0
1118,38064,0,-1,0
1119,38074,-1,-1,0
1120,38084,-1,-1,0
1121,38094,0,-1,0
1122,38104,0,-1,0
1123,38114,0,-1,0
1124,38124,0,-1,0
1125,38134,-1,-1,0
1126,38144,-1,-1,0
1127,38154,0,-1,0
1128,38164,-1,-1,0
1129,38174,-1,-1,0
1130,38184,-1,-1,0
1131,38194,0,-1,0
1132,38204,-1,-1,0
1133,38214,-1,-1,0
1134,38224,-1,-1,0
1135,38234,-1,0,0
1136,38244,0,-1,0
1137,38254,-1,0,0
1138,38264,0,-1,0
1139,38274,-1,-1,0
1140,38284,-1,-1,0
1141,38294,-1,-1,0
1142,38304,-1,-1,0
1143,38314,-1,-1,0
1144,38324,0,-1,0
1145,38334,-1,-1,0
1146,38344,-1,-1,0
1147,38354,-1,-1,0
1148,38364,0,-1,0
1149,38374,-1,-1,0
1150,38384,0,-1,0
1151,38394,0,-1,0
1152,38404,-1,-1,0
1153,38414,0,-1,0
1154,38424,-1,-1,0
1155,38434,-1,-1,0
1156,38444,-1,-2,0
1157,38454,0,-1,0
1158,38464,-1,-1,0
1159,38474,-1,-1,0
1160,38484,0,-1,0
1161,38494,0,-2,0
1162,38504,-1,-2,0
1163,38514,-1,-2,0
1164,38524,-1,-1,0
1165,38534,0,-1,0
1166,38544,-1,-1,0
1167,38554,0,-1,0
1168,38564,-1,-2,0
1169,38574,0,-1,0
1170,38584,-1,-1,0
1171,38594,0,-1,0
1172,38604,-1,-1,0
1173,38614,-1,-2,0
1174,38624,0,-1,0
1175,38634,-1,0,0
1176,38644,-1,0,0
1177,38654,-1,-1,0
1178,38664,-1,-1,0
1179,38674,-1,-1,0
1180,38684,0,0,0
1181,38694,-1,-1,0
1182,38704,0,-1,0
1183,38714,-1,-1,0
1184,38724,0,-1,0
1185,38734,-1,-1,0
1186,38744,0,-1,0
1187,38754,-1,-1,0
1188,38764,-1,-1,0
1189,38774,-1,-1,0
1190,38784,-1,-1,0
1191,38794,-1,-1,0
1192,38804,-1,-1,0
1193,38814,0,-1,0
1194,38824,-1,-1,0
1195,38834,-1,-1,0
1196,38844,0,-1,0
1197,38854,0,-1,0
1198,38864,-1,-2,0
1199,38874,-1,-2,0
1200,38884,0,-1,0
1201,38894,-1,-1,0
1202,38904,-1,-1,0
1203,38914,0,-1,0
1204,38924,0,0,0
1205,38934,-1,-1,0
1206,38944,0,-1,0
1207,38954,0,-1,0
1208,38964,0,-1,0
1209,38974,-1,-1,0
1210,38984,-1,-1,0
1211,38994,-1,0,0
1212,39004,-1,0,0
1213,39014,-1,0,0
1214,39024,0,0,0
1215,39034,0,-1,0
1216,39044,-1,-1,0
1217,39054,-1,-1,0
1218,39064,-1,-1,0
1219,39074,0,-1,0
1220,39084,-1,-1,0
1221,39094,-1,-2,0
1222,39104,-1,-3,0
1223,39114,-1,-1,0
1224,39124,-1,0,0
1225,39134,-1,0,0
1226,39144,-1,-1,0
1227,39154,-1,-2,0
1228,39164,0,-2,0
1229,39174,-1,-1,0
1230,39184,0,1,0
1231,39194,-1,-1,0
1232,39204,-1,-1,0
1233,39214,-1,-1,0
1234,39224,0,-1,0
1235,39234,-1,-1,0
1236,39244,0,-1,0
1237,39254,-1,-1,0
1238,39264,0,-1,0
1239,39274,-1,-1,0
1240,39284,0,-1,0
1241,39294,-1,-1,0
1242,39304,0,-1,0
1243,39314,-1,-1,0
1244,39324,-1,-1,0
1245,39334,-1,-1,0
1246,39344,0,-1,0
1247,39354,-1,-1,0
1248,39364,-1,-1,0
1249,39374,-1,-1,0
1250,39384,-1,-1,0
1251,39394,-1,-1,0
1252,39404,0,-1,0
1253,39414,0,0,0
1254,39424,-1,-2,0
1255,39434,0,-1,0
1256,39444,-1,-1,0
1257,39454,0,-1,0
1258,39464,-1,-2,0
1259,39474,0,0,0
1260,39484,-1,-1,0
1261,39494,0,-1,0
1262,39504,-1,-1,0
1263,39514,-1,-1,0
1264,39524,0,-1,0
1265,39534,-1,-1,0
1266,39544,0,-1,0
1267,39554,-1,-1,0
1268,39564,-1,-1,0
1269,39574,-1,-1,0
1270,39584,-1,-1,0
1271,39594,0,-1,0
1272,39604,-1,-1,0
1273,39614,-1,-1,0
1274,39624,0,-1,0
1275,39634,0,-1,0
1276,39644,-1,-2,0
1277,39654,-1,-1,0
1278,39664,0,-1,0
1279,39674,-1,-1,0
1280,39684,0,-1,0
1281,39694,-1,-1,0
1282,39704,-1,-1,0
1283,39714,-1,-1,0
1284,39724,0,-1,0
1285,39734,-1,-1,0
1286,39744,0,-1,0
1287,39754,0,-1,0
1288,39764,-1,-1,0
1289,39774,-1,-1,0
1290,39784,0,-1,0
1291,39794,0,-1,0
1292,39804,-1,-1,0
1293,39814,-1,-1,0
1294,39824,-1,-1,0
1295,39834,-1,-2,0
1296,39844,0,-1,0
1297,39854,-1,-1,0
1298,39864,0,-1,0
1299,39874,-1,-1,0
1300,39884,-1,-1,0
1301,39894,-1,-1,0
1302,39904,0,-1,0
1303,39914,0,0,0
1304,39924,-1,-2,0
1305,39934,-1,-2,0
1306,39944,-1,0,0
1307,39954,-1,1,0
1308,39964,0,1,0
1309,39974,-1,-1,0
1310,39984,0,-3,0
1311,39994,0,-2,0
1312,40004,0,-2,0
1313,40014,-1,-1,0
1314,40024,-1,0,0
1315,40034,-1,0,0
1316,40044,-1,0,0
1317,40054,-1,0,0
1318,40064,0,0,0
1319,40074,-1,0,0
1320,40084,-1,-2,0
1321,40094,0,-3,0
1322,40104,-1,-2,0
1323,40114,0,-1,0
1324,40124,-1,1,0
1325,40134,0,1,0
1326,40144,-1,-2,0
1327,40154,0,-3,0
1328,40164,-1,0,0
1329,40174,-1,0,0
1330,40184,0,0,0
1331,40194,-1,-1,0
1332,40204,0,-2,0
1333,40214,0,-1,0
1334,40224,-1,0,0
1335,40234,-1,0,0
1336,40244,0,-1,0
1337,40254,0,-1,0
1338,40264,-1,-1,0
1339,40274,-1,-1,0
1340,40284,-1,-1,0
1341,40294,0,-1,0
1342,40304,0,-1,0
1343,40314,0,-1,0
1344,40324,-1,-1,0
1345,40334,0,-1,0
1346,40344,-1,-1,0
1347,40354,-1,-1,0
1348,40364,-1,-1,0
1349,40374,-1,-1,0
1350,40384,-1,-1,0
1351,40394,-1,-1,0
1352,40404,-1,-1,0
1353,40414,0,-1,0
1354,40424,-1,-1,0
1355,40434,0,0,0
1356,40444,-1,0,0
1357,40454,-1,-1,0
1358,40464,0,-1,0
1359,40474,-1,-1,0
1360,40484,0,-1,0
1361,40494,-1,-1,0
1362,40504,0,0,0
1363,40514,-1,-1,0
1364,40524,0,-1,0
1365,40534,-1,-1,0
1366,40544,-1,-1,0
1367,40554,-1,-1,0
1368,40564,-1,-1,0
1369,40574,0,-1,0
1370,40584,-1,-1,0
1371,40594,0,0,0
1372,40604,0,-1,0
1373,40614,-1,-1,0
1374,40624,0,-1,0
1375,40634,-1,-1,0
1376,40644,0,-1,0
1377,40654,0,-1,0
1378,40664,0,-2,0
1379,40674,0,-2,0
1380,40684,0,-2,0
1381,40694,0,-1,0
1382,40704,-1,-1,0
1383,40714,0,0,0
1384,40724,0,0,0
1385,40734,-1,-1,0
1386,40744,0,-1,0
1387,40754,-1,-1,0
1388,40764,-1,-1,0
1389,40774,-1,-1,0
1390,40784,-1,0,0
1391,40794,-1,0,0
1392,40804,-1,0,0
1393,40814,-1,0,0
1394,40824,0,-1,0
1395,40834,0,-2,0
1396,40844,-1,-1,0
1397,40854,0,-1,0
1398,40864,-1,-1,0
1399,40874,0,-1,0
1400,40884,0,-1,0
1401,40894,-1,-1,0
1402,40904,0,-2,0
1403,40914,0,-2,0
1404,40924,0,-2,0
1405,40934,0,-1,0
1406,40944,-1,0,0
1407,40954,-1,-1,0
1408,40964,-1,-2,0
1409,40974,-1,-2,0
1410,40984,0,0,0
1411,40994,-1,-2,0
1412,41004,-1,-1,0
1413,41014,0,0,0
1414,41024,-1,-1,0
1415,41034,-1,-2,0
1416,41044,0,-2,0
1417,41054,-1,0,0
1418,41064,-1,-1,0
1419,41074,-1,-1,0
1420,41084,-1,-1,0
1421,41094,-1,-1,0
1422,41104,0,-2,0
1423,41114,-1,-1,0
1424,41124,0,-1,0
1425,41134,-1,-2,0
1426,41144,0,-1,0
1427,41154,-1,-1,0
1428,41164,0,-1,0
1429,41174,-1,-1,0
1430,41184,0,-1,0
1431,41194,-1,-1,0
1432,41204,-1,-1,0
1433,41214,-1,-1,0
1434,41224,0,-1,0
1435,41234,-1,-2,0
1436,41244,-1,-2,0
1437,41254,-1,-2,0
1438,41264,-1,-1,0
1439,41274,-1,0,0
1440,41284,-1,-1,0
1441,41294,0,-1,0
1442,41304,0,-2,0
1443,41314,-1,-1,0
1444,41324,0,-1,0
1445,41334,-1,-2,0
1446,41344,0,-1,0
1447,41354,-1,-1,0
1448,41364,-1,-1,0
1449,41374,0,-1,0
1450,41384,0,-2,0
1451,41394,0,-1,0
1452,41404,-1,-2,0
1453,41414,-1,-2,0
1454,41424,0,-2,0
1455,41434,-1,-1,0
1456,41444,0,0,0
1457,41454,-1,-1,0
1458,41464,0,-1,0
1459,41474,0,-2,0
1460,41484,-1,-2,0
1461,41494,0,-2,0
1462,41504,0,-1,0
1463,41514,0,-1,0
1464,41524,0,-1,0
1465,41534,-1,0,0
1466,41544,-1,0,0
1467,41554,0,0,0
1468,41564,0,0,0
1469,41574,-1,-1,0
1470,41584,0,-2,0
1471,41594,-1,-1,0
1472,41604,-1,-1,0
1473,41614,-1,-1,0
1474,41624,0,-2,0
1475,41634,0,-1,0
1476,41644,0,0,0
1477,41654,-1,-1,0
1478,41664,0,-1,0
1479,41674,-1,-2,0
1480,41684,0,-1,0
1481,41694,-1,-1,0
1482,41704,0,-1,0
1483,41714,-1,-1,0
1484,41724,0,-1,0
1485,41734,-1,-1,0
1486,41744,-1,-1,0
1487,41754,0,-1,0
1488,41764,-1,-1,0
1489,41774,-1,-1,0
1490,41784,-1,-1,0
1491,41794,-1,-1,0
1492,41804,0,-1,0
1493,41814,-1,-2,0
1494,41824,-1,-1,0
1495,41834,0,0,0
1496,41844,0,0,0
1497,41854,-1,-1,0
1498,41864,0,-1,0
1499,41874,-1,-1,0
1500,41884,0,-1,0
1501,41894,0,0,0
1502,41904,-1,-1,0
1503,41914,0,0,0
1504,41924,0,-1,0
1505,41934,0,-1,0
1506,41944,-1,-2,0
1507,41954,-1,-1,0
1508,41964,-1,-1,0
1509,41974,-1,-2,0
1510,41984,0,0,0
1511,41994,-1,-1,0
1512,42004,0,-1,0
1513,42014,-1,-1,0
1514,42024,-1,-1,0
1515,42034,-1,-1,0
1516,42044,-2,-1,0
1517,42054,-1,0,0
1518,42064,-2,-2,0
1519,42074,0,-1,0
1520,42084,-1,-2,0
1521,42094,0,-1,0
1522,42104,0,0,0
1523,42114,0,-2,0
1524,42124,-1,0,0
1525,42134,0,-2,0
1526,42144,0,-1,0
1527,42154,0,-1,0
1528,42164,0,-1,0
1529,42174,-1,-1,0
1530,42184,-1,-1,0
1531,42194,-1,-1,0
1532,42204,-2,-1,0
1533,42214,0,-1,0
1534,42224,0,-1,0
1535,42234,0,-2,0
1536,42244,-1,-1,0
1537,42254,-1,-1,0
1538,42264,0,-1,0
1539,42274,0,-1,0
1540,42284,-1,-1,0
1541,42294,-1,-1,0
1542,42304,0,-1,0
1543,42314,-1,-1,0
1544,42324,-1,0,0
1545,42334,-1,0,0
1546,42344,-1,-1,0
1547,42354,0,-2,0
1548,42364,-1,-2,0
1549,42374,-1,0,0
1550,42384,-1,-1,0
1551,42394,-1,-2,0
1552,42404,-1,-1,0
1553,42414,-1,-1,0
1554,42424,-1,0,0
1555,42434,-1,-1,0
1556,42444,-1,-2,0
1557,42454,-1,-1,0
1558,42464,-1,-1,0
1559,42474,0,-1,0
1560,42484,-1,-1,0
1561,42494,-1,-1,0
1562,42504,0,0,0
1563,42514,-1,-2,0
1564,42524,-1,-2,0
1565,42534,-1,-2,0
1566,42544,-1,-2,0
1567,42554,-1,-1,0
1568,42564,-1,-1,0
1569,42574,-1,-1,0
1570,42584,0,-1,0
1571,42594,-1,-1,0
1572,42604,-1,-2,0
1573,42614,-1,-2,0
1574,42624,-1,-2,0
1575,42634,0,-1,0
1576,42644,0,-1,0
1577,42654,-1,-1,0
1578,42664,-2,-1,0
1579,42674,0,-3,0
1580,42684,-1,-1,0
1581,42694,-1,0,0
1582,42704,-1,-2,0
1583,42714,-1,0,0
1584,42724,-1,-1,0
1585,42734,-1,-3,0
1586,42744,-1,0,0
1587,42754,-1,0,0
1588,42764,-1,-1,0
1589,42774,-1,-2,0
1590,42784,0,-1,0
1591,42794,-1,1,0
1592,42804,0,-3,0
1593,42814,-1,-2,0
1594,42824,-1,-1,0
1595,42834,-1,0,0
1596,42844,-1,1,0
1597,42854,0,-1,0
1598,42864,-1,-2,0
1599,42874,-1,-2,0
1600,42884,-1,-1,0
1601,42894,-1,-1,0
1602,42904,-1,0,0
1603,42914,-1,-1,0
1604,42924,-1,-2,0
1605,42934,-1,-2,0
1606,42944,0,-2,0
1607,42954,0,-3,0
1608,42964,-1,0,0
1609,42974,-1,0,0
1610,42984,0,-1,0
1611,42994,-1,-2,0
1612,43004,-1,0,0
1613,43014,-1,-1,0
1614,43024,-1,-1,0
1615,43034,-1,-1,0
1616,43044,-1,-1,0
1617,43054,-1,-1,0
1618,43064,-1,-1,0
1619,43074,-1,-1,0
1620,43084,-1,-1,0
1621,43094,-1,-2,0
1622,43104,-1,-1,0
1623,43114,-1,-1,0
1624,43124,-2,-2,0
1625,43134,-1,-1,0
1626,43144,-1,-1,0
1627,43154,-1,-1,0
1628,43164,-1,-1,0
1629,43174,-1,-1,0
1630,43184,-1,-1,0
1631,43194,0,-1,0
1632,43204,-1,-1,0
1633,43214,-1,-2,0
1634,43224,-1,-2,0
1635,43234,-1,-1,0
1636,43244,0,0,0
1637,43254,-1,-1,0
1638,43264,-1,-1,0
1639,43274,-1,-2,0
1640,43284,-1,-1,0
1641,43294,-1,-1,0
1642,43304,-1,-1,0
1643,43314,-1,-1,0
1644,43324,-1,-1,0
1645,43334,0,-1,0
1646,43344,-1,-1,0
1647,43354,-1,-1,0
1648,43364,-1,-1,0
1649,43374,-1,-1,0
1650,43384,-1,-1,0
1651,43394,-1,-1,0
1652,43404,0,-1,0
1653,43414,-1,-1,0
1654,43424,-1,-1,0
1655,43434,-1,-1,0
1656,43444,0,-1,0
1657,43454,-1,-1,0
1658,43464,-1,-1,0
1659,43474,-1,-1,0
1660,43484,-1,-1,0
1661,43494,-1,-1,0
1662,43504,-1,-1,0
1663,43514,-1,-1,0
1664,43524,-1,-1,0
1665,43534,-1,-1,0
1666,43544,-1,-1,0
1667,43554,-1,-1,0
1668,43564,-1,-1,0
1669,43574,-1,-1,0
1670,43584,-1,-1,0
1671,43594,-1,-1,0
1672,43604,-1,-1,0
1673,43614,-1,-1,0
1674,43624,-1,-1,0
1675,43634,-1,-1,0
1676,43644,-1,-2,0
1677,43654,-1,-1,0
1678,43664,-1,-1,0
1679,43674,-1,-1,0
1680,43684,-1,-1,0
1681,43694,-1,-1,0
1682,43704,-1,-1,0
1683,43714,0,0,0
1684,43724,-1,-1,0
1685,43734,-1,0,0
1686,43744,-1,-1,0
1687,43754,0,-1,0
1688,43764,-1,-1,0
1689,43774,-1,-1,0
1690,43784,0,-1,0
1691,43794,-1,-1,0
1692,43804,-1,-1,0
1693,43814,0,-1,0
1694,43824,-1,-1,0
1695,43834,0,-1,0
1696,43844,-1,-1,0
1697,43854,0,-1,0
1698,43864,-1,-1,0
1699,43874,-1,-1,0
1700,43884,0,0,0
1701,43894,-1,-1,0
1702,43904,-1,-1,0
1703,43914,-1,-1,0
1704,43924,0,-1,0
1705,43934,-1,-1,0
1706,43944,0,-1,0
1707,43954,-1,-1,0
1708,43964,0,-1,0
1709,43974,-1,-1,0
1710,43984,-1,-1,0
1711,43994,0,-1,0
1712,44004,-1,-1,0
1713,44014,-1,-1,0
1714,44024,0,-1,0
1715,44034,-1,-1,0
1716,44044,-1,-1,0
1717,44054,0,-1,0
1718,44064,-1,-1,0
1719,44074,-1,-2,0
1720,44084,-1,-1,0
1721,44094,-1,-1,0
1722,44104,0,-1,0
1723,44114,-1,-1,0
1724,44124,-1,-1,0
1725,44134,-1,-1,0
1726,44144,-1,-1,0
1727,44154,-1,-1,0
1728,44164,0,0,0
1729,44174,-1,-1,0
1730,44184,-1,-1,0
1731,44194,0,-1,0
1732,44204,-1,-1,0
1733,44214,-1,-1,0
1734,44224,-1,-1,0
1735,44234,-1,-1,0
1736,44244,-1,-1,0
1737,44254,0,-1,0
1738,44264,-1,-1,0
1739,44274,-1,-1,0
1740,44284,-1,-1,0
1741,44294,-1,-1,0
1742,44304,-1,-1,0
1743,44314,-1,-1,0
1744,44324,0,-1,0
1745,44334,0,-1,0
1746,44344,-1,0,0
1747,44354,-1,-1,0
1748,44364,-1,-1,0
1749,44374,0,-2,0
1750,44384,0,-1,0
1751,44394,-1,-1,0
1752,44404,-1,-1,0
1753,44414,-1,-2,0
1754,44424,-1,-1,0
1755,44434,0,-1,0
1756,44444,0,-1,0
1757,44454,-1,-1,0
1758,44464,-1,-1,0
1759,44474,0,-1,0
1760,44484,-2,-2,0
1761,44494,0,-1,0
1762,44504,0,-1,0
1763,44514,-1,-1,0
1764,44524,0,0,0
1765,44534,-1,-1,0
1766,44544,-1,-1,0
1767,44554,0,-1,0
1768,44564,-1,-1,0
1769,44574,0,-1,0
1770,44584,0,-1,0
1771,44594,0,-1,0
1772,44604,0,-1,0
1773,44614,-1,-1,0
1774,44624,0,-1,0
1775,44634,0,-1,0
1776,44644,0,-1,0
1777,44654,-1,-2,0
1778,44664,0,-1,0
1779,44674,-1,-1,0
1780,44684,0,-1,0
1781,44694,-1,-1,0
1782,44704,0,0,0
1783,44714,-1,-1,0
1784,44724,0,-1,0
1785,44734,-1,-1,0
1786,44744,0,-2,0
1787,44754,0,0,0
1788,44764,-1,-1,0
1789,44774,0,-1,0
1790,44784,0,-1,0
1791,44794,0,-1,0
1792,44804,-1,-1,0
1793,44814,-1,-1,0
1794,44824,0,-1,0
1795,44834,-1,-2,0
1796,44844,0,-1,0
1797,44854,-1,-1,0
1798,44864,-1,-1,0
1799,44874,0,-1,0
1800,44884,-1,-2,0
1801,44894,0,-1,0
1802,44904,-1,-1,0
1803,44914,0,-1,0
1804,44924,0,-1,0
1805,44934,-1,-1,0
1806,44944,-1,-2,0
1807,44954,-1,-1,0
1808,44964,0,-1,0
1809,44974,0,-1,0
1810,44984,-1,-1,0
1811,44994,0,-1,0
1812,45004,-1,-1,0
1813,45014,0,-1,0
1814,45024,-1,-1,0
1815,45034,-1,-1,0
1816,45044,-1,-1,0
1817,45054,0,-1,0
1818,45064,0,-2,0
1819,45074,0,-2,0
1820,45084,0,-2,0
1821,45094,-1,-1,0
1822,45104,0,-1,0
1823,45114,0,-1,0
1824,45124,-1,-2,0
1825,45134,-1,-1,0
1826,45144,0,-1,0
1827,45154,0,0,0
1828,45164,0,-1,0
1829,45174,0,-1,0
1830,45184,-1,-2,0
1831,45194,0,-2,0
1832,45204,-1,-2,0
1833,45214,0,-2,0
1834,45224,0,-1,0
1835,45234,-1,-1,0
1836,45244,-1,-1,0
1837,45254,-1,-1,0
1838,45264,-1,-1,0
1839,45274,0,-1,0
1840,45284,0,-1,0
1841,45294,0,-2,0
1842,45304,-1,-2,0
1843,45314,0,-2,0
1844,45324,0,-2,0
1845,45334,-1,-2,0
1846,45344,0,-2,0
1847,45354,0,-2,0
1848,45364,0,-1,0
1849,45374,0,-1,0
1850,45384,-1,-1,0
1851,45394,-1,-2,0
1852,45404,0,-1,0
1853,45414,0,-1,0
1854,45424,0,-1,0
1855,45434,0,-2,0
1856,45444,0,-1,0
1857,45454,0,-1,0
1858,45464,0,-2,0
1859,45474,-1,-2,0
1860,45484,0,-2,0
1861,45494,-1,-1,0
1862,45504,0,-1,0
1863,45514,-1,-2,0
1864,45524,0,0,0
1865,45534,-1,-1,0
1866,45544,0,-1,0
1867,45554,-1,-2,0
1868,45564,0,-1,0
1869,45574,0,-1,0
1870,45584,0,-1,0
1871,45594,0,-1,0
1872,45604,-1,-1,0
1873,45614,0,-1,0
1874,45624,-1,-1,0
1875,45634,0,-1,0
1876,45644,-1,-1,0
1877,45654,0,-1,0
1878,45664,-1,-1,0
1879,45674,0,-1,0
1880,45684,-1,-1,0
1881,45694,-1,-1,0
1882,45704,-1,0,0
1883,45714,0,-2,0
1884,45724,0,-1,0
1885,45734,0,-1,0
1886,45744,-1,-1,0
1887,45754,-1,-1,0
1888,45764,0,-1,0
1889,45774,0,-1,0
1890,45784,0,-1,0
1891,45794,-1,-1,0
1892,45804,0,-1,0
1893,45814,-1,-1,0
1894,45824,0,-2,0
1895,45834,0,-2,0
1896,45844,0,-2,0
1897,45854,-1,-1,0
1898,45864,0,-1,0
1899,45874,-1,-2,0
1900,45884,0,-2,0
1901,45894,-1,-2,0
1902,45904,0,-2,0
1903,45914,-1,-1,0
1904,45924,-1,-1,0
1905,45934,-1,-1,0
1906,45944,-1,-1,0
1907,45954,0,-1,0
1908,45964,-1,-2,0
1909,45974,0,-1,0
1910,45984,-1,-1,0
1911,45994,0,-1,0
1912,46004,-1,-2,0
1913,46014,0,-1,0
1914,46024,0,-1,0
1915,46034,-1,-2,0
1916,46044,0,-1,0
1917,46054,-1,-1,0
1918,46064,0,-1,0
1919,46074,-1,-1,0
1920,46084,-1,-1,0
1921,46094,0,-1,0
1922,46104,-1,-2,0
1923,46114,0,-1,0
1924,46124,-1,-2,0
1925,46134,-1,-2,0
1926,46144,0,-1,0
1927,46154,-1,-2,0
1928,46164,0,-1,0
1929,46174,-1,-1,0
1930,46184,0,-1,0
1931,46194,0,-2,0
1932,46204,-1,-1,0
1933,46214,0,0,0
1934,46224,-1,-2,0
1935,46234,0,-2,0
1936,46244,0,-1,0
1937,46254,0,-2,0
1938,46264,0,-2,0
1939,46274,-1,-1,0
1940,46284,0,-1,0
1941,46294,-1,-1,0
1942,46304,-1,-2,0
1943,46314,0,-1,0
1944,46324,-1,0,0
1945,46334,0,-2,0
1946,46344,0,-1,0
1947,46354,-1,-2,0
1948,46364,0,-1,0
1949,46374,0,0,0
1950,46384,-1,-1,0
1951,46394,-1,-1,0
1952,46404,0,-1,0
1953,46414,-1,-1,0
1954,46424,0,-1,0
1955,46434,-1,-2,0
1956,46444,0,0,0
1957,46454,-1,-1,0
1958,46464,-1,-1,0
1959,46474,-1,-3,0
1960,46484,0,0,0
1961,46494,-1,-2,0
1962,46504,-1,-1,0
1963,46514,-1,-1,0
1964,46524,0,-2,0
1965,46534,-1,-1,0
1966,46544,-1,-1,0
1967,46554,-1,-2,0
1968,46564,-1,-1,0
1969,46574,0,-1,0
1970,46584,0,0,0
1971,46594,-1,0,0
1972,46604,-1,-2,0
1973,46614,-1,-3,0
1974,46624,-1,-3,0
1975,46634,0,-2,0
1976,46644,-1,-2,0
1977,46654,0,-2,0
1978,46664,-1,-1,0
1979,46674,-1,-1,0
1980,46684,-1,-3,0
1981,46694,0,-1,0
1982,46704,0,1,0
1983,46714,-1,-2,0
1984,46724,0,-3,0
1985,46734,0,0,0
1986,46744,-1,-1,0
1987,46754,-2,-2,0
1988,46764,0,-1,0
1989,46774,-1,-1,0
1990,46784,-1,-2,0
1991,46794,0,-1,0
1992,46804,-1,-1,0
1993,46814,-1,-2,0
1994,46824,-1,0,0
1995,46834,0,-2,0
1996,46844,-1,0,0
1997,46854,-1,-2,0
1998,46864,-1,-1,0
1999,46874,-1,-2,0
2000,46884,-1,-1,0
2001,46894,0,-1,0
2002,46904,-1,-1,0
2003,46914,0,-1,0
2004,46924,-1,-1,0
2005,46934,0,-2,0
2006,46944,-1,-1,0
2007,46954,-1,-2,0
2008,46964,0,-1,0
2009,46974,-1,-2,0
2010,46984,-1,-1,0
2011,46994,-1,-1,0
2012,47004,-1,-1,0
2013,47014,-1,-2,0
2014,47024,-1,-1,0
2015,47034,-1,-2,0
2016,47044,-1,-1,0
2017,47054,0,-2,0
2018,47064,0,-1,0
2019,47074,-1,-2,0
2020,47084,-1,-2,0
2021,47094,0,0,0
2022,47104,-1,-1,0
2023,47114,-1,-2,0
2024,47124,-1,0,0
2025,47134,-1,-2,0
2026,47144,0,-1,0
2027,47154,0,0,0
2028,47164,-1,-1,0
2029,47174,-1,-2,0
2030,47184,-1,-3,0
2031,47194,-1,-1,0
2032,47204,0,-1,0
2033,47214,0,0,0
2034,47224,-1,0,0
2035,47234,-1,-2,0
2036,47244,-1,-1,0
2037,47254,-1,-3,0
2038,47264,-1,-3,0
2039,47274,-1,-2,0
2040,47284,-1,-2,0
2041,47294,-1,0,0
2042,47304,0,0,0
2043,47314,-1,0,0
2044,47324,-1,-3,0
2045,47334,0,-1,0
2046,47344,-1,0,0
2047,47354,-1,-3,0
2048,47364,-1,0,0
2049,47374,-1,-2,0
2050,47384,-1,-1,0
2051,47394,-1,-1,0
2052,47404,-1,-1,0
2053,47414,-1,-2,0
2054,47424,-1,-1,0
2055,47434,-1,-2,0
2056,47444,-1,-1,0
2057,47454,-1,-1,0
2058,47464,-1,-1,0
2059,47474,0,-1,0
2060,47484,-1,-2,0
2061,47494,0,-1,0
2062,47504,-1,-2,0
2063,47514,0,0,0
2064,47524,-1,-2,0
2065,47534,0,-1,0
2066,47544,-1,0,0
2067,47554,-1,-2,0
2068,47564,0,-2,0
2069,47574,-1,-3,0
2070,47584,-1,-2,0
2071,47594,0,1,0
2072,47604,-1,1,0
2073,47614,-1,-1,0
2074,47624,-1,0,0
2075,47634,-1,0,0
2076,47644,-1,-2,0
2077,47654,-1,-4,0
2078,47664,-1,-2,0
2079,47674,0,0,0
2080,47684,-1,0,0
2081,47694,0,-1,0
2082,47704,-1,1,0
2083,47714,-1,0,0
2084,47724,0,-2,0
2085,47734,-1,-1,0
2086,47744,-1,-1,0
2087,47754,-1,-2,0
2088,47764,-1,-4,0
2089,47774,-1,-2,0
2090,47784,-1,-1,0
2091,47794,-1,-1,0
2092,47804,-1,-1,0
2093,47814,-1,1,0
2094,47824,-1,-1,0
2095,47834,0,-4,0
2096,47844,-1,-3,0
2097,47854,0,1,0
2098,47864,-1,1,0
2099,47874,-1,-2,0
2100,47884,-1,-3,0
2101,47894,-1,0,0
2102,47904,-1,-3,0
2103,47914,-1,0,0
2104,47924,-1,-2,0
2105,47934,0,-2,0
2106,47944,-1,-1,0
2107,47954,-1,-2,0
2108,47964,-1,0,0
2109,47974,0,-2,0
2110,47984,-1,-1,0
2111,47994,-1,-2,0
2112,48004,-1,-1,0
2113,48014,0,0,0
2114,48024,-1,-1,0
2115,48034,-1,-1,0
2116,48044,-1,-1,0
2117,48054,-1,-1,0
2118,48064,0,-2,0
2119,48074,-1,-2,0
2120,48084,0,-2,0
2121,48094,-1,-2,0
2122,48104,0,-1,0
2123,48114,-1,-1,0
2124,48124,-1,-2,0
2125,48134,0,-2,0
2126,48144,-1,-2,0
2127,48154,0,-2,0
2128,48164,-1,-2,0
2129,48174,-1,-2,0
2130,48184,0,-1,0
2131,48194,-1,-1,0
2132,48204,-1,-1,0
2133,48214,0,-1,0
2134,48224,-1,-1,0
2135,48234,-1,-2,0
2136,48244,0,-1,0
2137,48254,-1,-2,0
2138,48264,-1,-2,0
2139,48274,-1,-2,0
2140,48284,-1,-2,0
2141,48294,-1,-1,0
2142,48304,-2,-2,0
2143,48314,-1,-2,0
2144,48324,-1,-2,0
2145,48334,-1,-3,0
2146,48344,-1,-1,0
2147,48354,-1,-2,0
2148,48364,-1,-4,0
2149,48374,-1,-2,0
2150,48384,-1,0,0
2151,48394,-1,-1,0
2152,48404,-1,-1,0
2153,48414,-1,-3,0
2154,48424,-1,-2,0
2155,48434,-1,-1,0
2156,48444,-1,-1,0
2157,48454,-1,-3,0
2158,48464,-1,-2,0
2159,48474,-1,-3,0
2160,48484,-1,-1,0
2161,48494,-1,-2,0
2162,48504,0,-3,0
2163,48514,-1,-1,0
2164,48524,-1,-3,0
2165,48534,-1,-3,0
2166,48544,-1,-2,0
2167,48554,-1,-4,0
2168,48564,-1,-2,0
2169,48574,-1,-3,0
2170,48584,-1,0,0
2171,48594,-1,0,0
2172,48604,-1,0,0
2173,48614,0,-3,0
2174,48624,-1,-3,0
2175,48634,-1,-1,0
2176,48644,-1,0,0
2177,48654,-1,-2,0
2178,48664,-1,-2,0
2179,48674,0,0,0
2180,48684,-1,-2,0
2181,48694,-1,-2,0
2182,48704,-1,-3,0
2183,48714,-1,0,0
2184,48724,0,-2,0
2185,48734,-1,-2,0
2186,48744,0,-2,0
2187,48754,-1,-1,0
2188,48764,-1,-2,0
2189,48774,-1,-1,0
2190,48784,-1,-2,0
2191,48794,0,-1,0
2192,48804,-2,-2,0
2193,48814,0,-2,0
2194,48824,-2,-2,0
2195,48834,0,-2,0
2196,48844,-1,-1,0
2197,48854,-1,-3,0
2198,48864,0,-2,0
2199,48874,-1,-1,0
2200,48884,-1,-2,0
2201,48894,-1,-1,0
2202,48904,-1,-1,0
2203,48914,-1,-2,0
2204,48924,-1,-3,0
2205,48934,-1,-2,0
2206,48944,-1,-1,0
2207,48954,0,0,0
2208,48964,0,-1,0
2209,48974,-1,-2,0
2210,48984,-1,-3,0
2211,48994,-1,-3,0
2212,49004,-1,-2,0
2213,49014,-1,-2,0
2214,49024,-1,-1,0
2215,49034,0,0,0
2216,49044,-1,-1,0
2217,49054,0,-1,0
2218,49064,-1,-2,0
2219,49074,-1,-2,0
2220,49084,-1,-2,0
2221,49094,0,-2,0
2222,49104,-1,-3,0
2223,49114,-1,-3,0
2224,49124,-1,-2,0
2225,49134,0,-2,0
2226,49144,-1,-1,0
2227,49154,-1,-2,0
2228,49164,-1,-1,0
2229,49174,0,-1,0
2230,49184,0,-1,0
2231,49194,0,-2,0
2232,49204,0,-2,0
2233,49214,0,-1,0
2234,49224,0,-1,0
2235,49234,-1,-1,0
2236,49244,0,-1,0
2237,49254,-1,-2,0
2238,49264,0,-2,0
2239,49274,-1,-2,0
2240,49284,-1,-2,0
2241,49294,-1,-1,0
2242,49304,-1,-2,0
2243,49314,0,-2,0
2244,49324,0,-2,0
2245,49334,0,-2,0
2246,49344,0,-2,0
2247,49354,-1,-2,0
2248,49364,-1,-2,0
2249,49374,-1,-2,0
2250,49384,-1,-2,0
2251,49394,-1,-2,0
2252,49404,0,-1,0
2253,49414,-1,-2,0
2254,49424,0,-2,0
2255,49434,-1,-2,0
2256,49444,-1,-2,0
2257,49454,-1,-2,0
2258,49464,0,-1,0
2259,49474,-1,-2,0
2260,49484,0,-2,0
2261,49494,0,-2,0
2262,49504,0,-1,0
2263,49514,0,-1,0
2264,49524,-1,-2,0
2265,49534,-1,-2,0
2266,49544,0,-1,0
2267,49554,-1,-2,0
2268,49564,-1,-1,0
2269,49574,-1,-1,0
2270,49584,0,-1,0
2271,49594,0,-2,0
2272,49604,0,-2,0
2273,49614,-1,-2,0
2274,49624,-1,-2,0
2275,49634,0,-1,0
2276,49644,0,-1,0
2277,49654,-1,-2,0
2278,49664,0,-2,0
2279,49674,0,-2,0
2280,49684,-1,-2,0
2281,49694,-1,-2,0
2282,49704,0,-2,0
2283,49714,0,-2,0
2284,49724,-1,-1,0
2285,49734,-1,-2,0
2286,49744,0,-2,0
2287,49754,-1,-2,0
2288,49764,-1,-2,0
2289,49774,-1,-1,0
2290,49784,-1,-1,0
2291,49794,0,-1,0
2292,49804,-1,-1,0
2293,49814,-1,-2,0
2294,49824,-1,-2,0
2295,49834,-1,-2,0
2296,49844,-1,-2,0
2297,49854,0,-1,0
2298,49864,0,-2,0
2299,49874,0,-2,0
2300,49884,-1,-2,0
2301,49894,-1,-2,0
2302,49904,0,-1,0
2303,49914,0,-1,0
2304,49924,-1,-1,0
2305,49934,-1,-1,0
2306,49944,0,-2,0
2307,49954,0,-2,0
2308,49964,-1,-2,0
2309,49974,1,-1,0
2310,49984,-1,-2,0
2311,49994,-1,-2,0
2312,50004,0,-2,0
2313,50014,-1,-1,0
2314,50024,0,-1,0
2315,50034,0,-2,0
2316,50044,-1,-2,0
2317,50054,0,-2,0
2318,50064,0,-1,0
2319,50074,-1,-2,0
2320,50084,0,-1,0
2321,50094,-1,-1,0
2322,50104,1,-1,0
2323,50114,-1,-1,0
2324,50124,0,-1,0
2325,50134,0,-1,0
2326,50144,0,-2,0
2327,50154,-1,-2,0
2328,50164,0,-1,0
2329,50174,0,-2,0
2330,50184,-1,-2,0
2331,50194,0,-1,0
2332,50204,0,-2,0
2333,50214,0,-1,0
2334,50224,0,-1,0
2335,50234,0,-2,0
2336,50244,0,-2,0
2337,50254,0,-2,0
2338,50264,-1,-2,0
2339,50274,-1,-2,0
2340,50284,-1,-1,0
2341,50294,-1,-1,0
2342,50304,-1,-1,0
2343,50314,-1,-2,0
2344,50324,-1,-1,0
2345,50334,-1,-1,0
2346,50344,0,-1,0
2347,50354,-1,-2,0
2348,50364,-1,-2,0
2349,50374,-1,-2,0
2350,50384,-1,-2,0
2351,50394,-1,-1,0
2352,50404,-1,-1,0
2353,50414,-1,-1,0
2354,50424,-1,-1,0
2355,50434,-1,-1,0
2356,50444,-1,-1,0
2357,50454,-1,-1,0
2358,50464,-1,-2,0
2359,50474,-1,-2,0
2360,50484,-1,-1,0
2361,50494,-1,-1,0
2362,50504,-1,-2,0
2363,50514,-1,-2,0
2364,50524,-1,-1,0
2365,50534,-1,-2,0
2366,50544,-1,-1,0
2367,50554,0,-1,0
2368,50564,0,-2,0
2369,50574,0,-2,0
2370,50584,0,-1,0
2371,50594,0,-1,0
2372,50604,1,-1,0
2373,50614,0,-2,0
2374,50624,0,-1,0
2375,50634,0,-2,0
2376,50644,0,-1,0
2377,50654,0,-1,0
2378,50664,0,-2,0
2379,50674,0,-1,0
2380,50684,0,-1,0
2381,50694,0,-2,0
2382,50704,0,-1,0
2383,50714,0,-1,0
2384,50724,0,-1,0
2385,50734,0,-1,0
2386,50744,0,-1,0
2387,50754,0,-1,0
2388,50764,0,-1,0
2389,50774,0,-2,0
2390,50784,0,-2,0
2391,50794,0,-2,0
2392,50804,1,-1,0
2393,50814,0,-1,0
2394,50824,0,-1,0
2395,50834,0,-1,0
2396,50844,0,-1,0
2397,50854,0,-1,0
2398,50864,-1,-2,0
2399,50874,-1,-2,0
2400,50884,0,-2,0
2401,50894,-1,-2,0
2402,50904,-1,-2,0
2403,50914,-1,-1,0
2404,50924,0,-2,0
2405,50934,0,-1,0
2406,50944,0,-1,0
2407,50954,0,-1,0
2408,50964,-1,-1,0
2409,50974,-1,-2,0
2410,50984,-1,-2,0
2411,50994,0,-2,0
2412,51004,0,-1,0
2413,51014,-1,-1,0
2414,51024,-1,-1,0
2415,51034,-1,-1,0
2416,51044,-1,-2,0
2417,51054,0,-2,0
2418,51064,0,-2,0
2419,51074,0,-1,0
2420,51084,-1,-1,0
2421,51094,-1,-1,0
2422,51104,0,-2,0
2423,51114,0,-1,0
2424,51124,0,-2,0
2425,51134,-1,-2,0
2426,51144,-1,-2,0
2427,51154,-1,-2,0
2428,51164,0,-2,0
2429,51174,0,-1,0
2430,51184,0,-1,0
2431,51194,-1,-1,0
2432,51204,-1,-2,0
2433,51214,-1,-2,0
2434,51224,-1,-1,0
2435,51234,0,-2,0
2436,51244,0,-1,0
2437,51254,0,-1,0
2438,51264,0,-2,0
2439,51274,-1,-2,0
2440,51284,-1,-2,0
2441,51294,-1,-2,0
2442,51304,-1,-2,0
2443,51314,-1,-2,0
2444,51324,-1,-2,0
2445,51334,-1,-2,0
2446,51344,-1,-2,0
2447,51354,-1,-2,0
2448,51364,-1,-2,0
2449,51374,-1,-2,0
2450,51384,-1,-2,0
2451,51394,-1,-1,0
2452,51404,-1,-1,0
2453,51414,0,-1,0
2454,51424,0,-1,0
2455,51434,0,-1,0
2456,51444,0,-2,0
2457,51454,-1,-2,0
2458,51464,-1,-2,0
2459,51474,-1,-2,0
2460,51484,-1,-1,0
2461,51494,0,-1,0
2462,51504,0,-2,0
2463,51514,-1,-1,0
2464,51524,-1,-2,0
2465,51534,-1,-1,0
2466,51544,0,-1,0
2467,51554,0,-2,0
2468,51564,0,-2,0
2469,51574,-1,-2,0
2470,51584,-2,-1,0
2471,51594,-1,-1,0
2472,51604,0,-1,0
2473,51614,0,-1,0
2474,51624,0,-2,0
2475,51634,1,-2,0
2476,51644,0,-1,0
2477,51654,-1,-1,0
2478,51664,-1,-2,0
2479,51674,-1,-2,0
2480,51684,-1,-1,0
2481,51694,-1,-2,0
2482,51704,-1,-1,0
2483,51714,0,-1,0
2484,51724,0,-1,0
2485,51734,-1,-1,0
2486,51744,0,-2,0
2487,51754,-1,-1,0
2488,51764,0,-1,0
2489,51774,-1,-2,0
2490,51784,-1,-2,0
2491,51794,0,-2,0
2492,51804,0,-2,0
2493,51814,0,-1,0
2494,51824,0,-1,0
2495,51834,-1,-2,0
2496,51844,0,-2,0
2497,51854,-1,-2,0
2498,51864,0,-1,0
2499,51874,0,-1,0
2500,51884,0,-1,0
2501,51894,0,-1,0
2502,51904,0,-1,0
2503,51914,-1,-1,0
2504,51924,-1,-2,0
2505,51934,0,-2,0
2506,51944,0,-2,0
2507,51954,-1,-2,0
2508,51964,0,-2,0
2509,51974,0,-2,0
2510,51984,0,-2,0
2511,51994,0,-2,0
2512,52004,-1,-2,0
2513,52014,0,-2,0
2514,52024,0,-2,0
2515,52034,-1,-1,0
2516,52044,0,-2,0
2517,52054,0,-2,0
2518,52064,0,-1,0
2519,52074,0,-1,0
2520,52084,0,-1,0
2521,52094,-1,-1,0
2522,52104,0,-1,0
2523,52114,0,-1,0
2524,52124,-1,-1,0
2525,52134,-1,-2,0
2526,52144,-1,-2,0
2527,52154,-1,-1,0
2528,52164,-1,-1,0
2529,52174,-1,-1,0
2530,52184,0,-2,0
2531,52194,0,-1,0
2532,52204,-1,-2,0
2533,52214,0,-1,0
2534,52224,-1,-1,0
2535,52234,-1,-2,0
2536,52244,-1,-2,0
2537,52254,-1,-2,0
2538,52264,-1,-2,0
2539,52274,0,-1,0
2540,52284,0,-1,0
2541,52294,0,-1,0
2542,52304,0,-1,0
2543,52314,0,-2,0
2544,52324,0,-1,0
2545,52334,0,-1,0
2546,52344,0,-1,0
2547,52354,0,-1,0
2548,52364,-1,-2,0
2549,52374,-1,-2,0
2550,52384,-1,-2,0
2551,52394,-1,-2,0
2552,52404,-1,-1,0
2553,52414,-1,-1,0
2554,52424,0,-1,0
2555,52434,0,-1,0
2556,52444,0,-1,0
2557,52454,0,-2,0
2558,52464,0,-1,0
2559,52474,-1,-1,0
2560,52484,-1,-2,0
2561,52494,0,-2,0
2562,52504,0,-2,0
2563,52514,0,-2,0
2564,52524,0,-2,0
2565,52534,-1,-3,0
2566,52544,0,-3,0
2567,52554,0,-3,0
2568,52564,0,-3,0
2569,52574,0,-3,0
2570,52584,-1,-2,0
2571,52594,-1,-2,0
2572,52604,0,-1,0
2573,52614,-1,-1,0
2574,52624,0,-2,0
2575,52634,-1,-3,0
2576,52644,0,-1,0
2577,52654,-1,-1,0
2578,52664,0,-2,0
2579,52674,0,-2,0
2580,52684,-1,-2,0
2581,52694,-1,-1,0
2582,52704,-1,-1,0
2583,52714,0,-2,0
2584,52724,-1,-2,0
2585,52734,0,-2,0
2586,52744,0,-2,0
2587,52754,0,-1,0
2588,52764,0,-2,0
2589,52774,-1,-1,0
2590,52784,-1,-1,0
2591,52794,0,-1,0
2592,52804,-1,-1,0
2593,52814,0,-2,0
2594,52824,0,-1,0
2595,52834,-1,-2,0
2596,52844,0,-1,0
2597,52854,-1,-1,0
2598,52864,-1,-2,0
2599,52874,0,-2,0
2600,52884,0,-1,0
2601,52894,0,-1,0
2602,52904,-1,-1,0
2603,52914,0,-1,0
2604,52924,-1,-1,0
2605,52934,0,-1,0
2606,52944,0,-1,0
2607,52954,0,-1,0
2608,52964,-1,-1,0
2609,52974,0,-1,0
2610,52984,-1,-1,0
2611,52994,-1,-2,0
2612,53004,0,-2,0
2613,53014,0,-1,0
2614,53024,0,-2,0
2615,53034,-1,-2,0
2616,53044,-1,-1,0
2617,53054,0,-1,0
2618,53064,0,-1,0
2619,53074,0,-1,0
2620,53084,1,-1,0
2621,53094,0,-2,0
2622,53104,0,-1,0
2623,53114,0,-2,0
2624,53124,-1,-2,0
2625,53134,-1,-2,0
2626,53144,-1,-2,0
2627,53154,-1,-2,0
2628,53164,-1,-2,0
2629,53174,-1,-2,0
2630,53184,0,-1,0
2631,53194,0,-1,0
2632,53204,0,-1,0
2633,53214,0,-1,0
2634,53224,0,-1,0
2635,53234,0,-1,0
2636,53244,-1,-2,0
2637,53254,-1,-1,0
2638,53264,-1,-2,0
2639,53274,-1,-2,0
2640,53284,-1,-1,0
2641,53294,0,-2,0
2642,53304,0,-1,0
2643,53314,0,-1,0
2644,53324,0,-1,0
2645,53334,0,-1,0
2646,53344,0,-1,0
2647,53354,0,-1,0
2648,53364,-1,-1,0
2649,53374,-1,-1,0
2650,53384,-1,-1,0
2651,53394,-1,-1,0
2652,53404,-1,-1,0
2653,53414,-1,-1,0
2654,53424,0,-1,0
2655,53434,0,-1,0
2656,53444,0,-1,0
2657,53454,0,-1,0
2658,53464,0,-1,0
2659,53474,-1,-2,0
2660,53484,-1,-1,0
2661,53494,-2,-1,0
2662,53504,-1,-1,0
2663,53514,-1,-1,0
2664,53524,0,-1,0
2665,53534,0,-2,0
2666,53544,1,-1,0
2667,53554,0,-2,0
2668,53564,0,-1,0
2669,53574,0,-2,0
2670,53584,-1,-1,0
2671,53594,-1,-2,0
2672,53604,-1,-1,0
2673,53614,-1,-2,0
2674,53624,-1,-2,0
2675,53634,-1,-1,0
2676,53644,-1,-2,0
2677,53654,-1,-1,0
2678,53664,-1,-1,0
2679,53674,-1,-1,0
2680,53684,-1,-2,0
2681,53694,-1,-2,0
2682,53704,0,-2,0
2683,53714,-1,-2,0
2684,53724,0,-1,0
2685,53734,0,-1,0
2686,53744,0,-1,0
2687,53754,-1,-1,0
2688,53764,1,-1,0
2689,53774,0,-1,0
2690,53784,0,-1,0
2691,53794,-1,-2,0
2692,53804,-1,-2,0
2693,53814,-1,-1,0
2694,53824,-1,-1,0
2695,53834,-1,-1,0
2696,53844,-1,-2,0
2697,53854,0,-2,0
2698,53864,0,-1,0
2699,53874,0,-1,0
2700,53884,0,-1,0
2701,53894,0,-2,0
2702,53904,0,-1,0
2703,53914,1,-1,0
2704,53924,0,-1,0
2705,53934,-1,-1,0
2706,53944,-1,-1,0
2707,53954,-1,-2,0
2708,53964,-1,-2,0
2709,53974,-1,-2,0
2710,53984,-1,-2,0
2711,53994,-1,-1,0
2712,54004,-1,-1,0
2713,54014,0,-1,0
2714,54024,-1,-1,0
2715,54034,1,-1,0
2716,54044,0,-1,0
2717,54054,1,-1,0
2718,54064,-1,-1,0
2719,54074,0,-1,0
2720,54084,-1,-2,0
2721,54094,-1,-1,0
2722,54104,-1,-1,0
2723,54114,0,-1,0
2724,54124,0,-1,0
2725,54134,0,-2,0
2726,54144,0,-1,0
2727,54154,-1,-1,0
2728,54164,-1,-1,0
2729,54174,0,-1,0
2730,54184,-1,-2,0
2731,54194,-1,-1,0
2732,54204,-1,-1,0
2733,54214,0,-2,0
2734,54224,0,-1,0
2735,54234,-1,-1,0
2736,54244,-1,-1,0
2737,54254,0,-2,0
2738,54264,-1,-2,0
2739,54274,0,-1,0
2740,54284,0,-1,0
2741,54294,-1,-2,0
2742,54304,-1,-1,0
2743,54314,0,-1,0
2744,54324,0,-2,0
2745,54334,-1,-1,0
2746,54344,-1,-1,0
2747,54354,-1,-1,0
2748,54364,-1,-2,0
2749,54374,0,-2,0
2750,54384,-1,-1,0
2751,54394,-1,-1,0
2752,54404,-1,-1,0
2753,54414,0,-1,0
2754,54424,0,-1,0
2755,54434,0,-1,0
2756,54444,0,-1,0
2757,54454,-1,-1,0
2758,54464,0,-1,0
2759,54474,-1,-2,0
2760,54484,0,-2,0
2761,54494,0,-2,0
2762,54504,0,-1,0
2763,54514,-1,-1,0
2764,54524,0,-1,0
2765,54534,0,-2,0
2766,54544,-1,-2,0
2767,54554,-1,-1,0
2768,54564,-1,-2,0
2769,54574,-1,-2,0
2770,54584,-1,-2,0
