,ts,acc_x,acc_y,acc_z
0,105233,0,0,0
1,105243,0,0,0
2,105253,0,0,0
3,105263,-1,0,0
4,105273,0,0,0
5,105283,0,0,0
6,105293,0,0,0
7,105303,-1,0,0
8,105313,0,0,0
9,105323,-1,0,0
10,105333,-1,0,0
11,105343,0,0,0
12,105353,0,0,0
13,105363,-1,0,0
14,105373,-1,0,0
15,105383,0,0,0
16,105393,0,0,0
17,105403,0,0,0
18,105413,0,0,0
19,105423,0,0,0
20,105433,0,0,0
21,105443,0,0,0
22,105453,0,0,0
23,105463,0,0,0
24,105473,0,0,0
25,105483,0,0,0
26,105493,0,0,0
27,105503,-1,0,0
28,105513,0,0,0
29,105523,0,0,0
30,105533,0,0,0
31,105543,0,0,0
32,105553,0,0,0
33,105563,0,0,0
34,105573,0,0,0
35,105583,0,0,0
36,105593,0,0,0
37,105603,-1,0,0
38,105613,0,0,0
39,105623,0,0,0
40,105633,0,0,0
41,105643,0,0,0
42,105653,0,0,0
43,105663,0,0,0
44,105673,0,0,0
45,105683,0,0,0
46,105693,-1,0,0
47,105703,0,0,0
48,105713,0,0,0
49,105723,0,0,0
50,105733,0,0,0
51,106133,0,0,0
52,106143,-1,0,0
53,106153,0,0,0
54,106163,0,0,0
55,106173,0,0,0
56,106523,0,0,0
57,106533,0,0,0
58,106543,-1,0,0
59,106553,0,0,0
60,106563,0,0,0
61,106573,0,0,0
62,106583,0,0,0
63,106593,0,0,0
64,106603,0,0,0
65,106613,0,0,0
66,106623,-1,0,0
67,106633,0,0,0
68,106643,0,0,0
69,106653,0,0,0
70,106663,0,0,0
71,106673,0,0,0
72,106683,0,0,0
73,106693,0,0,0
74,106703,0,0,0
75,106713,0,0,0
76,106723,0,0,0
77,106733,0,0,0
78,106743,-1,0,0
79,106753,-1,0,0
80,106763,0,0,0
81,106773,0,0,0
82,106783,0,0,0
83,106793,0,0,0
84,106803,0,0,0
85,106813,0,0,0
86,106823,0,0,0
87,106833,0,0,0
88,106843,0,0,0
89,106853,0,0,0
90,106863,0,0,0
91,106873,0,0,0
92,106883,0,0,0
93,106893,0,0,0
94,106903,0,0,0
95,106913,0,0,0
96,106923,0,0,0
97,106933,0,0,0
98,106943,0,0,0
99,106953,0,0,0
100,106963,0,0,0
101,106973,0,0,0
102,106983,-1,0,0
103,106993,0,0,0
104,107003,0,0,0
105,107013,0,0,0
106,107023,-1,0,0
107,107033,0,0,0
108,107043,0,0,0
109,107053,0,0,0
110,107063,0,0,0
111,107073,-1,0,0
112,107083,0,0,0
113,107093,0,0,0
114,107103,0,0,0
115,107113,0,0,0
116,107123,0,0,0
117,107133,0,0,0
118,107143,0,0,0
119,107153,-1,0,0
120,107163,0,0,0
121,107173,0,0,0
122,107183,-1,0,0
123,107193,0,0,0
124,107203,0,0,0
125,107213,0,0,0
126,107223,0,0,0
127,107233,-1,0,0
128,107243,0,0,0
129,107253,0,0,0
130,107263,0,0,0
131,107273,0,0,0
132,107283,0,0,0
133,107293,-1,0,0
134,107303,0,0,0
135,107313,0,0,0
136,107323,0,0,0
137,107333,0,0,0
138,107343,0,0,0
139,107353,0,0,0
140,107363,0,0,0
141,107373,0,0,0
142,107383,0,0,0
143,107393,0,0,0
144,107403,0,0,0
145,107413,0,0,0
146,107423,0,0,0
147,107433,0,0,0
148,107443,0,0,0
149,107453,0,0,0
150,107463,0,0,0
151,107473,-1,0,0
152,107483,0,0,0
153,107493,-1,0,0
154,107503,0,0,0
155,107513,0,0,0
156,107523,-1,0,0
157,107533,0,0,0
158,107543,-1,0,0
159,107553,0,0,0
160,107563,0,0,0
161,107573,-1,0,0
162,107583,0,0,0
163,107593,0,0,0
164,107603,0,0,0
165,107613,-1,0,0
166,107623,0,0,0
167,107633,0,0,0
168,107643,-1,0,0
169,107653,0,0,0
170,107663,-1,0,0
171,107673,0,0,0
172,107683,0,0,0
173,107693,0,0,0
174,107703,0,0,0
175,107713,0,0,0
176,107723,0,0,0
177,107733,0,0,0
178,107743,-1,0,0
179,107753,0,0,0
180,107763,0,0,0
181,107773,0,0,0
182,107783,0,0,0
183,107793,0,0,0
184,107803,0,0,0
185,107813,0,0,0
186,107823,0,0,0
187,107833,0,0,0
188,107843,0,0,0
189,107853,0,0,0
190,107863,0,0,0
191,107873,0,0,0
192,107883,-1,0,0
193,107893,0,0,0
194,107903,0,0,0
195,107913,-1,0,0
196,107923,0,0,0
197,107933,0,0,0
198,107943,0,0,0
199,107953,0,0,0
200,107963,0,0,0
201,107973,0,0,0
202,107983,0,0,0
203,107993,-1,0,0
204,108003,0,0,0
205,108013,0,0,0
206,108023,0,0,0
207,108033,0,0,0
208,108043,0,0,0
209,108053,0,0,0
210,108063,0,0,0
211,108073,-1,0,0
212,108083,0,0,0
213,108093,0,0,0
214,108103,0,0,0
215,108113,0,0,0
216,108123,0,0,0
217,108133,0,0,0
218,108143,0,0,0
219,108153,0,0,0
220,108163,0,0,0
221,108173,0,0,0
222,108183,0,0,0
223,108193,0,0,0
224,108203,0,0,0
225,108213,0,0,0
226,108223,0,0,0
227,108233,-1,0,0
228,108243,0,0,0
229,108253,0,0,0
230,108263,0,0,0
231,108273,0,0,0
232,108283,0,0,0
233,108293,0,0,0
234,108303,0,0,0
235,108313,-1,0,0
236,108323,-1,0,0
237,108333,0,0,0
238,108343,0,0,0
239,108353,0,0,0
240,108363,0,0,0
241,108373,0,0,0
242,108383,0,0,0
243,108393,-1,0,0
244,108403,0,0,0
245,108413,0,0,0
246,108423,0,0,0
247,108433,0,0,0
248,108443,0,0,0
249,108453,0,0,0
250,108463,0,0,0
251,108473,0,0,0
252,108483,0,0,0
253,108493,-1,0,0
254,108503,0,0,0
255,108513,0,0,0
256,108523,-1,0,0
257,108533,0,0,0
258,108543,0,0,0
259,108553,0,0,0
260,108563,0,0,0
261,108573,-1,0,0
262,108583,0,0,0
263,108593,0,0,0
264,108603,0,0,0
265,108613,0,0,0
266,108623,-1,0,0
267,108633,0,0,0
268,108643,0,0,0
269,108653,0,0,0
270,108663,0,0,0
271,108673,-1,0,0
272,108683,0,0,0
273,108693,0,0,0
274,108703,0,0,0
275,108713,-1,0,0
276,108723,0,0,0
277,108733,0,0,0
278,108743,-1,0,0
279,108753,0,0,0
280,108763,0,0,0
281,108773,0,0,0
282,108783,0,0,0
283,108793,0,0,0
284,108803,0,0,0
285,108813,0,0,0
286,108823,-1,0,0
287,108833,-1,0,0
288,108843,0,0,0
289,108853,-1,0,0
290,108863,0,0,0
291,108873,0,0,0
292,108883,0,0,0
293,108893,0,0,0
294,108903,0,0,0
295,108913,0,0,0
296,108923,0,0,0
297,108933,0,0,0
298,108943,0,0,0
299,108953,0,0,0
300,108963,-1,0,0
301,108973,-1,0,0
302,108983,0,0,0
303,108993,0,0,0
304,109003,0,0,0
305,109013,0,0,0
306,109023,0,0,0
307,109033,0,0,0
308,109043,0,0,0
309,109053,0,0,0
310,109063,-1,0,0
311,109073,0,0,0
312,109083,0,0,0
313,109093,-1,0,0
314,109103,0,0,0
315,109113,0,0,0
316,109123,0,0,0
317,109133,0,0,0
318,109143,0,0,0
319,109153,0,0,0
320,109163,0,0,0
321,109173,0,0,0
322,109183,0,0,0
323,109193,0,0,0
324,109203,0,0,0
325,109213,0,0,0
326,109223,0,0,0
327,109233,0,0,0
328,109243,0,0,0
329,109253,0,0,0
330,109263,0,0,0
331,109273,0,0,0
332,109283,0,0,0
333,109293,0,0,0
334,109303,0,0,0
335,109313,-1,0,0
336,109323,0,0,0
337,109333,-1,0,0
338,109343,-1,0,0
339,109353,0,0,0
340,109363,-1,0,0
341,109373,0,0,0
342,109383,0,0,0
343,109393,0,0,0
344,109403,0,0,0
345,109413,0,0,0
346,109423,0,0,0
347,109433,0,0,0
348,109443,0,0,0
349,109453,0,0,0
350,109463,0,0,0
351,109473,0,0,0
352,109483,0,0,0
353,109493,0,0,0
354,109503,0,0,0
355,109513,0,0,0
356,109523,0,0,0
357,109533,-1,0,0
358,109543,-1,0,0
359,109553,-1,0,0
360,109563,0,0,0
361,109573,0,0,0
362,109583,0,0,0
363,109593,0,0,0
364,109603,0,0,0
365,109613,0,0,0
366,109623,0,0,0
367,109633,0,0,0
368,109643,-1,0,0
369,109653,-1,0,0
370,109663,-1,0,0
371,109673,0,0,0
372,109683,0,0,0
373,109693,0,0,0
374,109703,-1,0,0
375,109713,0,0,0
376,109723,-1,0,0
377,109733,0,0,0
378,109743,-1,0,0
379,109753,0,0,0
380,109763,0,0,0
381,109773,-1,0,0
382,109783,0,0,0
383,109793,0,0,0
384,109803,0,0,0
385,109813,-1,0,0
386,109823,0,0,0
387,109833,-1,0,0
388,109843,0,0,0
389,109853,-1,0,0
390,109863,-1,0,0
391,109873,-1,0,0
392,109883,-1,0,0
393,109893,0,0,0
394,109903,-1,0,0
395,109913,0,0,0
396,109923,0,0,0
397,109933,0,0,0
398,109943,-1,0,0
399,109953,-1,0,0
400,109963,-1,0,0
401,109973,0,0,0
402,109983,-1,0,0
403,109993,0,0,0
404,110003,0,0,0
405,110013,0,0,0
406,110023,0,0,0
407,110033,0,0,0
408,110043,0,0,0
409,110053,0,0,0
410,110063,0,0,0
411,110073,0,0,0
412,110083,0,0,0
413,110093,0,0,0
414,110103,0,0,0
415,110113,0,0,0
416,110123,-1,0,0
417,110133,-1,0,0
418,110143,0,0,0
419,110153,-1,0,0
420,110163,0,0,0
421,110173,0,0,0
422,110183,0,0,0
423,110193,0,0,0
424,110203,-1,0,0
425,110213,-1,0,0
426,110223,0,0,0
427,110233,0,0,0
428,110243,0,0,0
429,110253,0,0,0
430,110263,0,0,0
431,110273,-1,0,0
432,110283,0,0,0
433,110293,0,0,0
434,110303,0,0,0
435,110313,0,0,0
436,110323,0,0,0
437,110333,0,0,0
438,110343,0,0,0
439,110353,0,0,0
440,110363,0,0,0
441,110373,0,0,0
442,110383,0,0,0
443,110393,0,0,0
444,110403,0,0,0
445,110413,0,0,0
446,110423,0,0,0
447,110433,0,0,0
448,110443,0,0,0
449,110453,-1,0,0
450,110463,0,0,0
451,110473,0,0,0
452,110483,0,0,0
453,110493,0,0,0
454,110503,0,0,0
455,110513,0,0,0
456,110523,0,0,0
457,110533,0,0,0
458,110543,0,0,0
459,110553,0,0,0
460,110563,0,0,0
461,110573,0,-1,0
462,110583,0,0,0
463,110593,0,0,0
464,110603,0,-1,0
465,110613,-1,-1,0
466,110623,0,0,0
467,110633,0,-1,0
468,110643,-1,-1,0
469,110653,0,-1,0
470,110663,0,-1,0
471,110673,-1,-1,0
472,110683,0,-1,0
473,110693,0,-1,0
474,110703,0,-1,0
475,110713,0,-1,0
476,110723,0,-1,0
477,110733,0,-1,0
478,110743,0,-1,0
479,110753,0,-1,0
480,110763,0,-1,0
481,110773,0,-1,0
482,110783,0,-1,0
483,110793,0,-1,0
484,110803,0,-1,0
485,110813,0,-1,0
486,110823,0,-1,0
487,110833,0,-1,0
488,110843,0,-1,0
489,110853,0,-1,0
490,110863,-1,-1,0
491,110873,0,-1,0
492,110883,0,-1,0
493,110893,0,-1,0
494,110903,-1,-1,0
495,110913,0,-1,0
496,110923,0,-1,0
497,110933,-1,-1,0
498,110943,0,-1,0
499,110953,-1,-1,0
500,110963,0,-1,0
501,110973,0,-1,0
502,110983,0,-1,0
503,110993,0,-1,0
504,111003,0,-1,0
505,111013,-1,-1,0
506,111023,-1,-1,0
507,111033,-1,-1,0
508,111043,-1,-1,0
509,111053,-1,-1,0
510,111063,-1,-1,0
511,111073,-1,-1,0
512,111083,0,-1,0
513,111093,-1,-1,0
514,111103,-1,-1,0
515,111113,-1,-1,0
516,111123,-1,-1,0
517,111133,-1,-1,0
518,111143,-1,-1,0
519,111153,-1,-1,0
520,111163,-1,-1,0
521,111173,-1,-1,0
522,111183,-1,-1,0
523,111193,-1,-1,0
524,111203,-1,-1,0
525,111213,-1,-1,0
526,111223,-1,-1,0
527,111233,-1,-1,0
528,111243,-1,-1,0
529,111253,-1,-1,0
530,111263,-1,-1,0
531,111273,-1,-1,0
532,111283,-1,-1,0
533,111293,-1,-1,0
534,111303,-1,-1,0
535,111313,-1,-1,0
536,111323,-1,-1,0
537,111333,-1,-1,0
538,111343,-1,-1,0
539,111353,-1,-1,0
540,111363,-1,-1,0
541,111373,-1,-1,0
542,111383,-1,-1,0
543,111393,-1,-1,0
544,111403,-1,-1,0
545,111413,-1,-1,0
546,111423,-1,-1,0
547,111433,-1,-1,0
548,111443,-1,-1,0
549,111453,-1,-1,0
550,111463,-1,-1,0
551,111473,0,-1,0
552,111483,-1,-1,0
553,111493,-1,-1,0
554,111503,-1,-1,0
555,111513,-1,-1,0
556,111523,-1,-1,0
557,111533,-1,-1,0
558,111543,-1,-1,0
559,111553,-1,-1,0
560,111563,-1,-1,0
561,111573,-1,-1,0
562,111583,-1,-1,0
563,111593,-1,-1,0
564,111603,-1,-1,0
565,111613,-1,-1,0
566,111623,-1,-1,0
567,111633,-1,-1,0
568,111643,0,-1,0
569,111653,-1,-1,0
570,111663,-1,-1,0
571,111673,-1,-1,0
572,111683,-1,-1,0
573,111693,-1,-1,0
574,111703,-1,-1,0
575,111713,-1,-1,0
576,111723,0,-1,0
577,111733,-1,-1,0
578,111743,-1,-1,0
579,111753,-1,-1,0
580,111763,-1,-1,0
581,111773,-1,-1,0
582,111783,-1,-1,0
583,111793,-1,-1,0
584,111803,0,-1,0
585,111813,-1,-1,0
586,111823,-1,-1,0
587,111833,-1,-1,0
588,111843,-1,-1,0
589,111853,-1,-1,0
590,111863,-1,-1,0
591,111873,-1,-1,0
592,111883,-1,-1,0
593,111893,-1,-1,0
594,111903,-1,-1,0
595,111913,-1,-1,0
596,111923,-1,-1,0
597,111933,-1,-1,0
598,111943,-1,-1,0
599,111953,-1,-1,0
600,111963,-1,-1,0
601,111973,-1,-1,0
602,111983,-1,-1,0
603,111993,-1,-1,0
604,112003,-1,-1,0
605,112013,-1,-1,0
606,112023,0,-1,0
607,112033,-1,-1,0
608,112043,-1,-1,0
609,112053,-1,-1,0
610,112063,-1,-1,0
611,112073,0,-1,0
612,112083,0,-1,0
613,112093,-1,-1,0
614,112103,0,-1,0
615,112113,-1,-1,0
616,112123,-1,-1,0
617,112133,0,-1,0
618,112143,0,-1,0
619,112153,-1,0,0
620,112163,-1,0,0
621,112173,0,0,0
622,112183,0,-1,0
623,112193,0,-1,0
624,112203,-1,-1,0
625,112213,0,-1,0
626,112223,-1,-1,0
627,112233,0,0,0
628,112243,-1,0,0
629,112253,-1,0,0
630,112263,0,0,0
631,112273,-1,0,0
632,112283,-1,0,0
633,112293,-1,0,0
634,112303,-1,0,0
635,112313,0,0,0
636,112323,-1,0,0
637,112333,-1,0,0
638,112343,0,0,0
639,112353,-1,0,0
640,112363,-1,0,0
641,112373,0,0,0
642,112383,0,0,0
643,112393,0,0,0
644,112403,0,0,0
645,112413,-1,0,0
646,112423,0,0,0
647,112433,-1,0,0
648,112443,0,0,0
649,112453,0,0,0
650,112463,-1,1,0
651,112473,-1,0,0
652,112483,0,1,0
653,112493,0,1,0
654,112503,0,1,0
655,112513,0,0,0
656,112523,-1,0,0
657,112533,0,0,0
658,112543,-1,0,0
659,112553,-1,0,0
660,112563,0,0,0
661,112573,0,1,0
662,112583,-1,1,0
663,112593,0,1,0
664,112603,0,1,0
665,112613,0,1,0
666,112623,0,1,0
667,112633,0,1,0
668,112643,0,1,0
669,112653,0,1,0
670,112663,0,1,0
671,112673,0,1,0
672,112683,0,1,0
673,112693,0,1,0
674,112703,0,1,0
675,112713,0,1,0
676,112723,0,1,0
677,112733,0,1,0
678,112743,0,1,0
679,112753,0,1,0
680,112763,0,1,0
681,112773,0,1,0
682,112783,0,1,0
683,112793,0,1,0
684,112803,0,1,0
685,112813,0,1,0
686,112823,0,1,0
687,112833,0,1,0
688,112843,0,1,0
689,112853,0,1,0
690,112863,0,1,0
691,112873,0,1,0
692,112883,0,1,0
693,112893,0,1,0
694,112903,0,1,0
695,112913,0,1,0
696,112923,0,1,0
697,112933,0,1,0
698,112943,0,1,0
699,112953,0,1,0
700,112963,0,1,0
701,112973,0,1,0
702,112983,0,1,0
703,112993,0,1,0
704,113003,0,1,0
705,113013,0,1,0
706,113023,0,1,0
707,113033,0,1,0
708,113043,0,1,0
709,113053,0,1,0
710,113063,0,1,0
711,113073,0,1,0
712,113083,0,1,0
713,113093,0,1,0
714,113103,0,1,0
715,113113,0,1,0
716,113123,0,1,0
717,113133,0,1,0
718,113143,0,1,0
719,113153,0,1,0
720,113163,0,1,0
721,113173,0,1,0
722,113183,0,1,0
723,113193,0,1,0
724,113203,-1,1,0
725,113213,-1,1,0
726,113223,0,1,0
727,113233,-1,1,0
728,113243,0,1,0
729,113253,0,1,0
730,113263,0,1,0
731,113273,0,1,0
732,113283,0,1,0
733,113293,0,1,0
734,113303,0,1,0
735,113313,0,1,0
736,113323,0,1,0
737,113333,0,1,0
738,113343,0,1,0
739,113353,0,1,0
740,113363,0,1,0
741,113373,0,1,0
742,113383,-1,1,0
743,113393,0,1,0
744,113403,0,1,0
745,113413,0,1,0
746,113423,0,1,0
747,113433,0,1,0
748,113443,0,1,0
749,113453,0,1,0
750,113463,0,1,0
751,113473,0,1,0
752,113483,0,1,0
753,113493,-1,1,0
754,113503,-1,0,0
755,113513,0,0,0
756,113523,-1,0,0
757,113533,0,0,0
758,113543,0,0,0
759,113553,-1,1,0
760,113563,-1,1,0
761,113573,-1,0,0
762,113583,-1,0,0
763,113593,-1,0,0
764,113603,-1,0,0
765,113613,-1,0,0
766,113623,-1,0,0
767,113633,-1,0,0
768,113643,-1,0,0
769,113653,-1,0,0
770,113663,-1,0,0
771,113673,-1,0,0
772,113683,-1,0,0
773,113693,-1,0,0
774,113703,-1,0,0
775,113713,-1,0,0
776,113723,-1,0,0
777,113733,-1,0,0
778,113743,-1,0,0
779,113753,-1,0,0
780,113763,-1,0,0
781,113773,-1,0,0
782,113783,-1,-1,0
783,113793,-1,-1,0
784,113803,-1,-1,0
785,113813,-1,-1,0
786,113823,-1,-1,0
787,113833,-1,-1,0
788,113843,-1,-1,0
789,113853,-1,-1,0
790,113863,-1,-1,0
791,113873,-1,0,0
792,113883,-1,-1,0
793,113893,-1,-1,0
794,113903,-1,-1,0
795,113913,-1,-1,0
796,113923,-1,-1,0
797,113933,-1,-1,0
798,113943,-1,-1,0
799,113953,-1,-1,0
800,113963,-1,-1,0
801,113973,-1,-1,0
802,113983,-1,-1,0
803,113993,-1,-1,0
804,114003,-1,-1,0
805,114013,-1,-1,0
806,114023,-1,-1,0
807,114033,-1,-1,0
808,114043,-1,-1,0
809,114053,-1,-1,0
810,114063,-1,-1,0
811,114073,-1,-1,0
812,114083,-1,-1,0
813,114093,-1,-1,0
814,114103,-1,-1,0
815,114113,-1,-1,0
816,114123,-1,-1,0
817,114133,-1,-1,0
818,114143,-1,-1,0
819,114153,-1,-1,0
820,114163,-1,-1,0
821,114173,-1,-1,0
822,114183,-1,-1,0
823,114193,-1,-1,0
824,114203,-1,-1,0
825,114213,-1,-1,0
826,114223,-1,-1,0
827,114233,-1,-1,0
828,114243,-1,-1,0
829,114253,-1,-1,0
830,114263,-1,-1,0
831,114273,-1,-1,0
832,114283,-1,-1,0
833,114293,-1,-1,0
834,114303,-1,-1,0
835,114313,0,-1,0
836,114323,-1,-1,0
837,114333,-1,-1,0
838,114343,-1,-1,0
839,114353,-1,-1,0
840,114363,-1,-1,0
841,114373,-1,-1,0
842,114383,-1,-1,0
843,114393,-1,-1,0
844,114403,-1,-1,0
845,114413,-1,-1,0
846,114423,-1,-1,0
847,114433,-1,-1,0
848,114443,-1,-1,0
849,114453,-1,-1,0
850,114463,-1,-1,0
851,114473,-1,-1,0
852,114483,-1,-1,0
853,114493,-1,-1,0
854,114503,-1,-1,0
855,114513,-1,-1,0
856,114523,-1,-1,0
857,114533,-1,-1,0
858,114543,-1,-1,0
859,114553,-1,-1,0
860,114563,-1,-1,0
861,114573,-1,-1,0
862,114583,-1,-1,0
863,114593,-1,-1,0
864,114603,-1,-1,0
865,114613,-1,-1,0
866,114623,-1,-1,0
867,114633,-1,-1,0
868,114643,-1,-1,0
869,114653,-1,-1,0
870,114663,-1,-1,0
871,114673,-1,-1,0
872,114683,-1,-1,0
873,114693,-1,-1,0
874,114703,-1,-1,0
875,114713,-1,-1,0
876,114723,-1,-1,0
877,114733,-1,-1,0
878,114743,-1,-1,0
879,114753,-1,-1,0
880,114763,-1,-1,0
881,114773,-1,-1,0
882,114783,-1,-1,0
883,114793,-1,-1,0
884,114803,-1,-1,0
885,114813,-1,-1,0
886,114823,-1,-1,0
887,114833,-1,-1,0
888,114843,-1,-1,0
889,114853,-1,-1,0
890,114863,-1,-1,0
891,114873,-1,-1,0
892,114883,-1,-1,0
893,114893,-1,-1,0
894,114903,-1,-1,0
895,114913,-1,-1,0
896,114923,-1,-1,0
897,114933,-1,-1,0
898,114943,-1,-1,0
899,114953,-1,-1,0
900,114963,-1,0,0
901,114973,-1,-1,0
902,114983,-1,-1,0
903,114993,-1,-1,0
904,115003,-1,-1,0
905,115013,-1,-1,0
906,115023,-1,-1,0
907,115033,-1,-1,0
908,115043,-1,-1,0
909,115053,-1,-1,0
910,115063,-1,-1,0
911,115073,-1,-1,0
912,115083,-1,-1,0
913,115093,-1,-1,0
914,115103,-1,-1,0
915,115113,-1,-1,0
916,115123,-1,-1,0
917,115133,-1,-1,0
918,115143,-1,-1,0
919,115153,-1,0,0
920,115163,-1,0,0
921,115173,-1,0,0
922,115183,-1,0,0
923,115193,-1,0,0
924,115203,-1,0,0
925,115213,-1,0,0
926,115223,-1,0,0
927,115233,-1,0,0
928,115243,-1,0,0
929,115253,-1,0,0
930,115263,-1,0,0
931,115273,-1,0,0
932,115283,0,0,0
933,115293,0,0,0
934,115303,0,0,0
935,115313,0,0,0
936,115323,0,-1,0
937,115333,0,0,0
938,115343,0,0,0
939,115353,0,0,0
940,115363,0,0,0
941,115373,0,0,0
942,115383,0,0,0
943,115393,0,0,0
944,115403,0,0,0
945,115413,0,0,0
946,115423,0,0,0
947,115433,0,0,0
948,115443,0,0,0
949,115453,0,0,0
950,115463,0,0,0
951,115473,0,0,0
952,115483,0,0,0
953,115493,0,0,0
954,115503,0,0,0
955,115513,0,0,0
956,115523,0,0,0
957,115533,0,0,0
958,115543,0,0,0
959,115553,0,0,0
960,115563,0,0,0
961,115573,1,0,0
962,115583,0,0,0
963,115593,0,0,0
964,115603,0,0,0
965,115613,0,0,0
966,115623,0,0,0
967,115633,0,0,0
968,115643,1,0,0
969,115653,1,0,0
970,115663,1,0,0
971,115673,1,0,0
972,115683,1,0,0
973,115693,1,0,0
974,115703,1,0,0
975,115713,1,0,0
976,115723,1,0,0
977,115733,1,0,0
978,115743,1,0,0
979,115753,1,0,0
980,115763,1,0,0
981,115773,1,0,0
982,115783,1,0,0
983,115793,1,0,0
984,115803,1,1,0
985,115813,1,0,0
986,115823,1,0,0
987,115833,1,0,0
988,115843,1,0,0
989,115853,1,0,0
990,115863,1,0,0
991,115873,1,1,0
992,115883,1,1,0
993,115893,1,1,0
994,115903,0,1,0
995,115913,1,0,0
996,115923,0,1,0
997,115933,1,1,0
998,115943,1,1,0
999,115953,1,1,0
1000,115963,1,0,0
1001,115973,1,1,0
1002,115983,1,0,0
1003,115993,1,0,0
1004,116003,1,0,0
1005,116013,1,0,0
1006,116023,1,0,0
1007,116033,1,0,0
1008,116043,1,0,0
1009,116053,1,0,0
1010,116063,1,0,0
1011,116073,1,0,0
1012,116083,1,0,0
1013,116093,1,0,0
1014,116103,1,0,0
1015,116113,1,0,0
1016,116123,1,0,0
1017,116133,1,0,0
1018,116143,1,1,0
1019,116153,1,1,0
1020,116163,0,0,0
1021,116173,0,1,0
1022,116183,0,0,0
1023,116193,1,0,0
1024,116203,1,0,0
1025,116213,1,0,0
1026,116223,1,0,0
1027,116233,1,0,0
1028,116243,1,0,0
1029,116253,1,0,0
1030,116263,1,0,0
1031,116273,1,0,0
1032,116283,1,0,0
1033,116293,1,0,0
1034,116303,0,0,0
1035,116313,0,0,0
1036,116323,0,0,0
1037,116333,1,0,0
1038,116343,1,0,0
1039,116353,0,0,0
1040,116363,1,0,0
1041,116373,0,0,0
1042,116383,0,0,0
1043,116393,0,0,0
1044,116403,0,0,0
1045,116413,0,0,0
1046,116423,0,0,0
1047,116433,0,0,0
1048,116443,0,0,0
1049,116453,0,0,0
1050,116463,0,0,0
1051,116473,0,0,0
1052,116483,0,0,0
1053,116493,0,0,0
1054,116503,0,0,0
1055,116513,-1,0,0
1056,116523,0,0,0
1057,116533,0,0,0
1058,116543,-1,0,0
1059,116553,-1,0,0
1060,116563,-1,0,0
1061,116573,-1,0,0
1062,116583,-1,0,0
1063,116593,-1,0,0
1064,116603,-1,0,0
1065,116613,-1,0,0
1066,116623,-1,0,0
1067,116633,-1,-1,0
1068,116643,-1,-1,0
1069,116653,-1,0,0
1070,116663,-1,-1,0
1071,116673,-1,0,0
1072,116683,-1,-1,0
1073,116693,-1,0,0
1074,116703,-1,0,0
1075,116713,-1,0,0
1076,116723,-1,0,0
1077,116733,-1,0,0
1078,116743,-1,0,0
1079,116753,-1,0,0
1080,116763,-1,0,0
1081,116773,-1,0,0
1082,116783,-1,0,0
1083,116793,-1,0,0
1084,116803,-1,0,0
1085,116813,-1,0,0
1086,116823,-1,0,0
1087,116833,-2,0,0
1088,116843,-1,0,0
1089,116853,-2,0,0
1090,116863,-2,0,0
1091,116873,-1,0,0
1092,116883,-1,0,0
1093,116893,-1,0,0
1094,116903,-2,0,0
1095,116913,-2,0,0
1096,116923,-1,0,0
1097,116933,-1,0,0
1098,116943,-1,0,0
1099,116953,-1,0,0
1100,116963,-1,0,0
1101,116973,-2,0,0
1102,116983,-2,0,0
1103,116993,-2,0,0
1104,117003,-2,0,0
1105,117013,-1,0,0
1106,117023,-2,0,0
1107,117033,-1,0,0
1108,117043,-2,0,0
1109,117053,-2,0,0
1110,117063,-2,0,0
1111,117073,-2,0,0
1112,117083,-2,0,0
1113,117093,-1,0,0
1114,117103,-2,0,0
1115,117113,-1,0,0
1116,117123,-2,0,0
1117,117133,-1,0,0
1118,117143,-2,0,0
1119,117153,-2,0,0
1120,117163,-2,0,0
1121,117173,-2,-1,0
1122,117183,-2,0,0
1123,117193,-2,0,0
1124,117203,-2,0,0
1125,117213,-2,0,0
1126,117223,-2,-1,0
1127,117233,-2,0,0
1128,117243,-1,-1,0
1129,117253,-1,0,0
1130,117263,-1,0,0
1131,117273,-1,-1,0
1132,117283,-1,0,0
1133,117293,-2,0,0
1134,117303,-1,0,0
1135,117313,-1,0,0
1136,117323,-1,0,0
1137,117333,-2,-1,0
1138,117343,-1,0,0
1139,117353,-1,-1,0
1140,117363,-1,-1,0
1141,117373,-1,-1,0
1142,117383,-1,-1,0
1143,117393,-2,-1,0
1144,117403,-1,-1,0
1145,117413,-1,-1,0
1146,117423,-1,-1,0
1147,117433,-1,-1,0
1148,117443,-1,-1,0
1149,117453,-1,-1,0
1150,117463,-1,-1,0
1151,117473,-1,-1,0
1152,117483,-1,-1,0
1153,117493,-1,-1,0
1154,117503,-1,-1,0
1155,117513,-1,-1,0
1156,117523,-1,-1,0
1157,117533,-1,-1,0
1158,117543,-1,-1,0
1159,117553,-1,-1,0
1160,117563,-1,-1,0
1161,117573,-1,-1,0
1162,117583,-1,-1,0
1163,117593,-1,-1,0
1164,117603,-1,-1,0
1165,117613,-1,-1,0
1166,117623,-1,-1,0
1167,117633,-1,-1,0
1168,117643,-1,-1,0
1169,117653,-1,-1,0
1170,117663,-1,-1,0
1171,117673,-1,-1,0
1172,117683,0,-1,0
1173,117693,-1,-1,0
1174,117703,-1,-1,0
1175,117713,0,-1,0
1176,117723,-1,-1,0
1177,117733,-1,-1,0
1178,117743,-1,-1,0
1179,117753,-1,-1,0
1180,117763,-1,-1,0
1181,117773,-1,-1,0
1182,117783,-1,-1,0
1183,117793,-1,-1,0
1184,117803,-1,-1,0
1185,117813,-1,-1,0
1186,117823,-1,-1,0
1187,117833,-1,-1,0
1188,117843,-1,-1,0
1189,117853,-1,-1,0
1190,117863,0,-1,0
1191,117873,-1,-1,0
1192,117883,-1,-1,0
1193,117893,-1,-1,0
1194,117903,-1,-1,0
1195,117913,-1,-1,0
1196,117923,0,-1,0
1197,117933,0,-1,0
1198,117943,0,-1,0
1199,117953,0,-1,0
1200,117963,0,-1,0
1201,117973,-1,-1,0
1202,117983,0,-1,0
1203,117993,-1,-1,0
1204,118003,-1,-1,0
1205,118013,-1,-1,0
1206,118023,-1,-1,0
1207,118033,0,-1,0
1208,118043,-1,-1,0
1209,118053,0,-1,0
1210,118063,-1,-1,0
1211,118073,-1,-1,0
1212,118083,0,-1,0
1213,118093,-1,-1,0
1214,118103,0,-1,0
1215,118113,0,-1,0
1216,118123,-1,-1,0
1217,118133,-1,-1,0
1218,118143,-1,-1,0
1219,118153,0,-1,0
1220,118163,0,-1,0
1221,118173,0,-1,0
1222,118183,-1,-1,0
1223,118193,-1,-1,0
1224,118203,-1,-1,0
1225,118213,-1,-1,0
1226,118223,-1,-1,0
1227,118233,-1,-1,0
1228,118243,0,-1,0
1229,118253,0,-1,0
1230,118263,0,-1,0
1231,118273,-1,-1,0
1232,118283,0,-1,0
1233,118293,0,-1,0
1234,118303,-1,-1,0
1235,118313,-1,-1,0
1236,118323,-1,-1,0
1237,118333,0,-1,0
1238,118343,0,-1,0
1239,118353,0,-1,0
1240,118363,0,-1,0
1241,118373,0,-1,0
1242,118383,-1,-1,0
1243,118393,0,-1,0
1244,118403,0,-1,0
1245,118413,0,-1,0
1246,118423,-1,0,0
1247,118433,0,0,0
1248,118443,-1,0,0
1249,118453,0,-1,0
1250,118463,-1,-1,0
1251,118473,-1,0,0
1252,118483,0,-1,0
1253,118493,0,-1,0
1254,118503,0,-1,0
1255,118513,-1,-1,0
1256,118523,0,0,0
1257,118533,0,0,0
1258,118543,0,0,0
1259,118553,0,0,0
1260,118563,0,0,0
1261,118573,0,0,0
1262,118583,0,0,0
1263,118593,0,0,0
1264,118603,-1,0,0
1265,118613,-1,0,0
1266,118623,-1,0,0
1267,118633,-1,0,0
1268,118643,0,0,0
1269,118653,-1,0,0
1270,118663,-1,0,0
1271,118673,-1,0,0
1272,118683,-1,0,0
1273,118693,-1,0,0
1274,118703,-1,0,0
1275,118713,0,0,0
1276,118723,0,0,0
1277,118733,0,0,0
1278,118743,-1,0,0
1279,118753,-1,0,0
1280,118763,-1,0,0
1281,118773,-1,0,0
1282,118783,-1,0,0
1283,118793,0,0,0
1284,118803,-1,0,0
1285,118813,-1,0,0
1286,118823,-1,0,0
1287,118833,-1,0,0
1288,118843,-1,0,0
1289,118853,-1,0,0
1290,118863,-1,0,0
1291,118873,-1,0,0
1292,118883,-1,0,0
1293,118893,-1,0,0
1294,118903,-1,0,0
1295,118913,-1,0,0
1296,118923,-1,0,0
1297,118933,-1,0,0
1298,118943,-1,0,0
1299,118953,-1,0,0
1300,118963,-1,0,0
1301,118973,-1,0,0
1302,118983,-1,0,0
1303,118993,-1,0,0
1304,119003,-1,0,0
1305,119013,-1,0,0
1306,119023,-1,0,0
1307,119033,-1,0,0
1308,119043,-1,0,0
1309,119053,-1,0,0
1310,119063,-1,-1,0
1311,119073,-1,-1,0
1312,119083,-1,-1,0
1313,119093,-1,-1,0
1314,119103,-1,0,0
1315,119113,-1,0,0
1316,119123,-1,-1,0
1317,119133,-1,-1,0
1318,119143,-1,-1,0
1319,119153,-1,-1,0
1320,119163,-1,-1,0
1321,119173,-1,-1,0
1322,119183,-1,-1,0
1323,119193,-1,-1,0
1324,119203,-1,-1,0
1325,119213,-1,-1,0
1326,119223,-1,-1,0
1327,119233,-1,-1,0
1328,119243,-1,-1,0
1329,119253,-1,-1,0
1330,119263,-1,-1,0
1331,119273,-1,-1,0
1332,119283,0,-1,0
1333,119293,-1,-1,0
1334,119303,-1,-1,0
1335,119313,-1,-1,0
1336,119323,-1,-1,0
1337,119333,-1,-1,0
1338,119343,-1,-1,0
1339,119353,-1,-1,0
1340,119363,-1,-1,0
1341,119373,0,-1,0
1342,119383,0,-1,0
1343,119393,0,-1,0
1344,119403,0,-1,0
1345,119413,0,-1,0
1346,119423,0,-1,0
1347,119433,0,-1,0
1348,119443,0,0,0
1349,119453,-1,0,0
1350,119463,-1,-1,0
1351,119473,-1,-1,0
1352,119483,-1,-1,0
1353,119493,-1,0,0
1354,119503,0,0,0
1355,119513,0,-1,0
1356,119523,0,0,0
1357,119533,0,0,0
1358,119543,0,0,0
1359,119553,-1,0,0
1360,119563,-1,0,0
1361,119573,-1,0,0
1362,119583,-1,0,0
1363,119593,0,0,0
1364,119603,0,0,0
1365,119613,0,0,0
1366,119623,0,0,0
1367,119633,0,0,0
1368,119643,0,0,0
1369,119653,0,0,0
1370,119663,0,0,0
1371,119673,0,0,0
1372,119683,0,0,0
1373,119693,0,0,0
1374,119703,0,0,0
1375,119713,0,0,0
1376,119723,0,0,0
1377,119733,0,0,0
1378,119743,0,0,0
1379,119753,0,0,0
1380,119763,0,0,0
1381,119773,0,0,0
1382,119783,-1,0,0
1383,119793,-1,0,0
1384,119803,0,0,0
1385,119813,0,0,0
1386,119823,-1,0,0
1387,119833,0,0,0
1388,119843,-1,0,0
1389,119853,0,0,0
1390,119863,0,0,0
1391,119873,0,0,0
1392,119883,0,0,0
1393,119893,0,0,0
1394,119903,0,0,0
1395,119913,0,0,0
1396,119923,0,0,0
1397,119933,0,0,0
1398,119943,-1,0,0
1399,119953,-1,0,0
1400,119963,0,0,0
1401,119973,-1,0,0
1402,119983,-1,0,0
1403,119993,-1,0,0
1404,120003,0,0,0
1405,120013,0,0,0
1406,120023,0,0,0
1407,120033,0,0,0
1408,120043,0,0,0
1409,120053,0,0,0
1410,120063,-1,0,0
1411,120073,0,0,0
1412,120083,0,0,0
1413,120093,-1,0,0
1414,120103,-1,0,0
1415,120113,0,0,0
1416,120123,0,0,0
1417,120133,0,0,0
1418,120143,0,0,0
1419,120153,0,0,0
1420,120163,0,0,0
1421,120173,0,0,0
1422,120183,0,0,0
1423,120193,0,0,0
1424,120203,0,0,0
1425,120213,0,0,0
1426,120223,0,0,0
1427,120233,0,0,0
1428,120243,0,0,0
1429,120253,0,0,0
1430,120263,0,0,0
1431,120273,0,0,0
1432,120283,-1,0,0
1433,120293,0,0,0
1434,120303,0,0,0
1435,120313,0,0,0
1436,120323,0,0,0
1437,120333,0,0,0
1438,120343,0,0,0
1439,120353,0,0,0
1440,120363,0,0,0
1441,120373,0,0,0
1442,120383,0,0,0
1443,120393,0,0,0
1444,120403,0,0,0
1445,120413,0,0,0
1446,120423,0,0,0
1447,120433,0,0,0
1448,120443,0,0,0
1449,120453,0,0,0
1450,120463,0,0,0
1451,120473,0,0,0
1452,120483,0,0,0
1453,120493,-1,0,0
1454,120503,0,0,0
1455,120513,0,0,0
1456,120523,0,0,0
1457,120533,0,0,0
1458,120543,0,0,0
1459,120553,0,0,0
1460,120563,0,0,0
1461,120573,0,0,0
1462,120583,0,0,0
1463,120593,0,0,0
1464,120603,0,0,0
1465,120613,0,0,0
1466,120623,0,0,0
1467,120633,0,0,0
1468,120643,-1,0,0
1469,120653,0,0,0
1470,120663,0,0,0
1471,120673,0,0,0
1472,120683,0,0,0
1473,120693,0,0,0
1474,120703,0,0,0
1475,120713,0,0,0
1476,120723,0,0,0
1477,120733,0,0,0
1478,120743,0,0,0
1479,120753,0,0,0
1480,120763,0,0,0
1481,120773,0,0,0
1482,120783,0,0,0
1483,120793,0,0,0
1484,120803,0,0,0
1485,120813,0,0,0
1486,120823,0,0,0
1487,120833,0,0,0
1488,120843,0,0,0
1489,120853,0,0,0
1490,120863,-1,0,0
1491,120873,0,0,0
1492,120883,0,0,0
1493,120893,-1,0,0
1494,120903,0,0,0
1495,120913,0,0,0
1496,120923,0,0,0
1497,120933,0,0,0
1498,120943,0,0,0
1499,120953,0,0,0
1500,120963,0,0,0
1501,120973,0,0,0
1502,120983,0,0,0
1503,120993,0,0,0
1504,121003,0,0,0
1505,121013,0,0,0
1506,121023,0,0,0
1507,121033,0,0,0
1508,121043,0,0,0
1509,121053,0,0,0
1510,121063,0,0,0
1511,121073,0,0,0
1512,121083,0,0,0
1513,121093,0,0,0
1514,121103,0,0,0
1515,121113,0,0,0
1516,121123,0,0,0
1517,121133,0,0,0
1518,121143,0,0,0
1519,121153,0,0,0
1520,121163,0,0,0
1521,121173,0,0,0
1522,121183,0,0,0
1523,121193,0,0,0
1524,121203,0,0,0
1525,121213,0,0,0
1526,121223,0,0,0
1527,121233,0,0,0
1528,121243,0,0,0
1529,121253,0,0,0
1530,121263,0,0,0
1531,121273,0,0,0
1532,121283,0,0,0
1533,121293,0,0,0
1534,121303,0,0,0
1535,121313,0,0,0
1536,121323,0,0,0
1537,121333,0,0,0
1538,121343,0,0,0
1539,121353,0,0,0
1540,121363,0,0,0
1541,121373,0,0,0
1542,121383,0,0,0
1543,121393,0,0,0
1544,121403,0,0,0
1545,121413,0,0,0
1546,121423,-1,0,0
1547,121433,0,0,0
1548,121443,0,0,0
1549,121453,0,0,0
1550,121463,0,0,0
1551,121473,0,0,0
1552,121483,-1,0,0
1553,121493,0,0,0
1554,121503,0,0,0
1555,121513,0,0,0
1556,121523,-1,0,0
1557,121533,0,0,0
1558,121543,0,0,0
1559,121553,0,0,0
1560,121563,0,0,0
1561,121573,0,0,0
1562,121583,0,0,0
1563,121593,0,0,0
1564,121603,0,0,0
1565,121613,0,0,0
1566,121623,0,0,0
1567,121633,0,0,0
1568,121643,0,0,0
1569,121653,0,0,0
1570,121663,0,0,0
1571,121673,0,0,0
1572,121683,0,0,0
1573,121693,0,0,0
1574,121703,0,0,0
1575,121713,0,0,0
1576,121723,0,0,0
1577,121733,0,0,0
1578,121743,0,0,0
1579,121753,0,0,0
1580,121763,0,0,0
1581,121773,0,0,0
1582,121783,0,0,0
1583,121793,0,0,0
1584,121803,-1,0,0
1585,121813,0,0,0
1586,121823,0,0,0
1587,121833,0,0,0
1588,121843,-1,0,0
1589,121853,0,0,0
1590,121863,0,0,0
1591,121873,0,0,0
1592,121883,0,0,0
1593,121893,0,0,0
1594,121903,0,0,0
1595,121913,0,0,0
1596,121923,0,0,0
1597,121933,0,0,0
1598,121943,-1,0,0
1599,121953,0,0,0
1600,121963,-1,0,0
1601,121973,0,0,0
1602,121983,0,0,0
1603,121993,0,0,0
1604,122003,0,0,0
1605,122013,0,0,0
1606,122023,0,0,0
1607,122033,0,0,0
1608,122043,0,0,0
1609,122053,0,0,0
1610,122063,-1,0,0
1611,122073,0,0,0
1612,122083,0,0,0
1613,122093,0,0,0
1614,122103,0,0,0
1615,122113,0,0,0
1616,122123,0,0,0
1617,122133,0,0,0
1618,122143,0,0,0
1619,122153,0,0,0
1620,122163,0,0,0
1621,122173,0,0,0
1622,122183,0,0,0
1623,122193,-1,0,0
1624,122203,0,0,0
1625,122213,0,0,0
1626,122223,0,0,0
1627,122233,0,0,0
1628,122243,0,0,0
1629,122253,0,0,0
1630,122263,0,0,0
1631,122273,-1,0,0
1632,122283,0,0,0
1633,122293,0,0,0
1634,122303,-1,0,0
1635,122313,-1,0,0
1636,122323,0,0,0
1637,122333,0,0,0
1638,122343,-1,0,0
1639,122353,0,0,0
1640,122363,0,0,0
1641,122373,0,0,0
1642,122383,0,0,0
1643,122393,0,0,0
1644,122403,0,0,0
1645,122413,0,0,0
1646,122423,0,0,0
1647,122433,-1,0,0
1648,122443,0,0,0
1649,122453,0,0,0
1650,122463,0,0,0
1651,122473,0,0,0
1652,122483,0,0,0
1653,122493,0,0,0
1654,122503,0,0,0
1655,122513,0,0,0
1656,122523,0,0,0
1657,122533,0,0,0
1658,122543,0,0,0
1659,122553,0,0,0
1660,122563,0,0,0
1661,122573,0,0,0
1662,122583,0,0,0
1663,122593,0,0,0
1664,122603,0,0,0
1665,122613,0,0,0
1666,122623,0,0,0
1667,122633,0,0,0
1668,122643,0,0,0
1669,122653,0,0,0
1670,122663,0,0,0
1671,122673,0,0,0
1672,122683,0,0,0
1673,122693,0,0,0
1674,122703,0,0,0
1675,122713,0,0,0
1676,122723,0,0,0
1677,122733,0,0,0
1678,122743,-1,0,0
1679,122753,0,0,0
1680,122763,0,0,0
1681,122773,0,0,0
1682,122783,0,0,0
1683,122793,0,0,0
1684,122803,0,0,0
1685,122813,0,0,0
1686,122823,-1,0,0
1687,122833,0,0,0
1688,122843,0,0,0
1689,122853,0,0,0
1690,122863,-1,0,0
1691,122873,0,0,0
1692,122883,0,0,0
1693,122893,0,0,0
1694,122903,-1,0,0
1695,122913,0,0,0
1696,122923,0,0,0
1697,122933,0,0,0
1698,122943,0,0,0
1699,122953,0,0,0
1700,122963,0,0,0
1701,122973,0,0,0
1702,122983,0,0,0
1703,122993,0,0,0
1704,123003,0,0,0
1705,123013,0,0,0
1706,123023,0,0,0
1707,123033,0,0,0
1708,123043,0,0,0
1709,123053,0,0,0
1710,123063,0,0,0
1711,123073,0,0,0
1712,123083,0,0,0
1713,123093,0,0,0
1714,123103,0,0,0
1715,123113,0,0,0
1716,123123,0,0,0
1717,123133,0,0,0
1718,123143,0,0,0
1719,123153,0,0,0
1720,123163,-1,0,0
1721,123173,0,0,0
1722,123183,0,0,0
1723,123193,-1,0,0
1724,123203,0,0,0
1725,123213,0,0,0
1726,123223,0,0,0
1727,123233,0,0,0
1728,123243,-1,0,0
1729,123253,-1,0,0
1730,123263,-1,0,0
1731,123273,0,0,0
1732,123283,0,0,0
1733,123293,0,0,0
1734,123303,0,0,0
1735,123313,0,0,0
1736,123323,-1,0,0
1737,123333,0,0,0
1738,123343,0,0,0
1739,123353,0,0,0
1740,123363,0,0,0
1741,123373,0,0,0
1742,123383,0,0,0
1743,123393,0,0,0
1744,123403,0,0,0
1745,123413,0,0,0
1746,123423,0,0,0
1747,123433,0,0,0
1748,123443,0,0,0
1749,123453,0,0,0
1750,123463,0,0,0
1751,123473,0,0,0
1752,123483,-1,0,0
1753,123493,0,0,0
1754,123503,-1,0,0
1755,123513,0,0,0
1756,123523,0,0,0
1757,123533,-1,0,0
1758,123543,0,0,0
1759,123553,-1,0,0
1760,123563,0,0,0
1761,123573,0,0,0
1762,123583,-1,0,0
1763,123593,0,0,0
1764,123603,0,0,0
1765,123613,0,0,0
1766,123623,0,0,0
1767,123633,0,0,0
1768,123643,0,0,0
1769,123653,0,0,0
1770,123663,0,0,0
1771,123673,0,0,0
1772,123683,0,0,0
1773,123693,0,0,0
1774,123703,0,0,0
1775,123713,0,0,0
1776,123723,0,0,0
1777,123733,0,0,0
1778,123743,0,0,0
1779,123753,0,0,0
1780,123763,0,0,0
1781,123773,0,0,0
1782,123783,0,0,0
1783,123793,0,0,0
1784,123803,0,0,0
1785,123813,-1,0,0
1786,123823,0,0,0
1787,123833,0,0,0
1788,123843,0,0,0
1789,123853,-1,0,0
1790,123863,0,0,0
1791,123873,0,0,0
1792,123883,0,0,0
1793,123893,-1,0,0
1794,123903,0,0,0
1795,123913,0,0,0
1796,123923,0,0,0
1797,123933,0,0,0
1798,123943,0,0,0
1799,123953,0,0,0
1800,123963,0,0,0
1801,123973,0,0,0
1802,123983,0,0,0
1803,123993,0,0,0
1804,124003,0,0,0
1805,124013,0,0,0
1806,124023,0,0,0
1807,124033,0,0,0
1808,124043,0,0,0
1809,124053,0,0,0
1810,124063,0,0,0
1811,124073,0,0,0
1812,124083,-1,0,0
1813,124093,0,0,0
1814,124103,0,0,0
1815,124113,0,0,0
1816,124123,0,0,0
1817,124133,0,0,0
1818,124143,0,0,0
1819,124153,0,0,0
1820,124163,0,0,0
1821,124173,0,0,0
1822,124183,0,0,0
1823,124193,0,0,0
1824,124203,0,0,0
1825,124213,0,0,0
1826,124223,0,0,0
1827,124233,0,0,0
1828,124243,0,0,0
1829,124253,0,0,0
1830,124263,0,0,0
1831,124273,-1,0,0
1832,124283,0,0,0
1833,124293,0,0,0
