,ts,acc_x,acc_y,acc_z
0,263618,-2,-1,0
1,263628,-2,-1,0
2,263638,-2,-1,0
3,263648,-2,-1,0
4,263658,-2,-1,0
5,263668,-2,-1,0
6,263678,-2,-1,0
7,263688,-2,-1,0
8,263698,-2,-1,0
9,263708,-2,-1,0
10,263718,-2,-1,0
11,263728,-2,-1,0
12,263738,-2,-1,0
13,263748,-2,-1,0
14,263758,-2,-1,0
15,263768,-2,-1,0
16,263778,-2,-1,0
17,263788,-2,-1,0
18,263798,-2,-1,0
19,263808,-2,-1,0
20,263818,-2,-1,0
21,263828,-2,-1,0
22,263838,-2,-1,0
23,263848,-2,-1,0
24,263858,-10,-1,0
25,263868,-16,-1,0
26,263878,-16,-1,0
27,263888,-15,-1,0
28,263898,-14,-1,0
29,263908,-14,0,0
30,263918,-16,-1,0
31,263928,-16,0,0
32,263938,-15,-1,0
33,263948,-16,-1,0
34,263958,-16,-1,0
35,263968,-16,-1,0
36,263978,-16,-1,0
37,263988,-16,-1,0
38,263998,-16,-1,0
39,264008,-16,-1,0
40,264018,-16,-1,0
41,264028,-16,-1,0
42,264038,-16,-1,0
43,264048,-16,-1,0
44,264058,-16,-1,0
45,264068,-16,-1,0
46,264078,-16,-1,0
47,264088,-16,-1,0
48,264098,-16,-1,0
49,264108,-16,-1,0
50,264118,-15,-1,0
51,264128,-16,-1,0
52,264138,-16,-1,0
53,264148,-16,-1,0
54,264158,-15,-1,0
55,264168,-16,-1,0
56,264178,-15,-1,0
57,264188,-16,-1,0
58,264198,-16,-1,0
59,264208,-15,-1,0
60,264218,-15,0,0
61,264228,-15,-1,0
62,264238,-15,-1,0
63,264248,-15,-1,0
64,264258,-15,-1,0
65,264268,-15,-1,0
66,264278,-14,-1,0
67,264288,-14,-1,0
68,264298,-15,-1,0
69,264308,-14,-1,0
70,264318,-14,-1,0
71,264328,-14,-1,0
72,264338,-14,-1,0
73,264348,-14,-1,0
74,264358,-14,-1,0
75,264368,-14,-1,0
76,264378,-14,-1,0
77,264388,-14,-1,0
78,264398,-14,-1,0
79,264408,-13,-1,0
80,264418,-14,-1,0
81,264428,-14,-1,0
82,264438,-13,-1,0
83,264448,-13,-1,0
84,264458,-13,-1,0
85,264468,-13,-1,0
86,264478,-13,-1,0
87,264488,-13,-1,0
88,264498,-13,-1,0
89,264508,-12,-1,0
90,264518,-12,-1,0
91,264528,-12,-1,0
92,264538,-12,-1,0
93,264548,-12,-1,0
94,264558,-12,-1,0
95,264568,-11,-1,0
96,264578,-11,-1,0
97,264588,-11,-1,0
98,264598,-11,0,0
99,264608,-11,-1,0
100,264618,-11,-1,0
101,264628,-11,-1,0
102,264638,-11,0,0
103,264648,-11,-1,0
104,264658,-10,-1,0
105,264668,-10,-1,0
106,264678,-10,-1,0
107,264688,-10,0,0
108,264698,-10,0,0
109,264708,-10,-1,0
110,264718,-9,-1,0
111,264728,-9,-1,0
112,264738,-9,-1,0
113,264748,-9,-1,0
114,264758,-9,0,0
115,264768,-9,-1,0
116,264778,-8,-1,0
117,264788,-9,-1,0
118,264798,-8,-1,0
119,264808,-8,-1,0
120,264818,-8,0,0
121,264828,-7,-1,0
122,264838,-7,0,0
123,264848,-6,-1,0
124,264858,-5,0,0
125,264868,-4,-1,0
126,264878,-3,0,0
127,264888,-2,-1,0
128,264898,-1,-1,0
129,264908,-1,-1,0
130,264918,0,0,0
131,264928,0,-1,0
132,264938,0,0,0
133,264948,0,-1,0
134,264958,1,-1,0
135,264968,0,-1,0
136,264978,1,-1,0
137,264988,0,-1,0
138,264998,0,-1,0
139,265008,1,-1,0
140,265018,1,-1,0
141,265028,0,-1,0
142,265038,0,-1,0
143,265048,1,-1,0
144,265058,0,-1,0
145,265068,1,-1,0
146,265078,0,-1,0
147,265088,0,-1,0
148,265098,0,-1,0
149,265108,1,-1,0
150,265118,0,-1,0
151,265128,0,-1,0
152,265138,0,-1,0
153,265148,0,-1,0
154,265158,0,-1,0
155,265168,0,0,0
156,265178,0,-1,0
157,265188,0,-1,0
158,265198,0,-1,0
159,265208,0,-1,0
160,265218,0,-1,0
161,265228,0,-1,0
162,265238,1,-1,0
163,265248,0,0,0
164,265258,0,0,0
165,265268,0,-1,0
166,265278,0,-1,0
167,265288,1,0,0
168,265298,0,-1,0
169,265308,0,0,0
170,265318,0,-1,0
171,265328,0,-1,0
172,265338,0,-1,0
173,265348,0,-1,0
174,265358,0,-1,0
175,265368,0,-1,0
176,265378,0,-1,0
177,265388,0,-1,0
178,265398,0,-1,0
179,265408,0,-1,0
180,265418,0,-1,0
181,265428,0,-1,0
182,265438,0,-1,0
183,265448,0,-1,0
184,265458,0,-1,0
185,265468,0,-1,0
186,265478,0,-1,0
187,265488,0,-1,0
188,265498,0,-1,0
189,265508,1,-1,0
190,265518,0,-1,0
191,265528,0,-1,0
192,265538,0,-1,0
193,265548,0,-1,0
194,265558,0,0,0
195,265568,1,-1,0
196,265578,0,-1,0
197,265588,0,-1,0
198,265598,1,0,0
199,265608,0,-1,0
200,265618,0,-1,0
201,265628,0,-1,0
202,265638,0,-1,0
203,265648,0,-1,0
204,265658,0,0,0
205,265668,0,-1,0
206,265678,0,-1,0
207,265688,0,-1,0
208,265698,0,-1,0
209,265708,0,0,0
210,265718,0,-1,0
211,265728,0,-1,0
212,265738,0,-1,0
213,265748,0,-1,0
214,265758,0,-1,0
215,265768,0,-1,0
216,265778,0,-1,0
217,265788,0,-1,0
218,265798,0,-1,0
219,265808,0,-1,0
220,265818,0,-1,0
221,265828,0,-1,0
222,265838,0,-1,0
223,265848,0,-1,0
224,265858,0,0,0
225,265868,0,-1,0
226,265878,0,-1,0
227,265888,0,-1,0
228,265898,0,-1,0
229,265908,0,-1,0
230,265918,0,-1,0
231,265928,0,-1,0
232,265938,0,0,0
233,265948,0,-1,0
234,265958,0,-1,0
235,265968,0,-1,0
236,265978,0,-1,0
237,265988,0,-1,0
238,265998,0,-1,0
239,266008,0,-1,0
240,266018,0,-1,0
241,266028,0,-1,0
242,266038,0,-1,0
243,266048,0,-1,0
244,266058,0,-1,0
245,266068,0,-1,0
246,266078,0,-1,0
247,266088,0,-1,0
248,266098,0,-1,0
249,266108,0,-1,0
250,266118,0,-1,0
251,266128,0,-1,0
252,266138,0,-1,0
253,266148,0,-1,0
254,266158,0,-1,0
255,266168,0,-1,0
256,266178,0,-1,0
257,266188,0,-1,0
258,266198,0,-1,0
259,266208,0,-1,0
260,266218,0,-1,0
261,266228,0,-1,0
262,266238,0,-1,0
263,266248,0,-1,0
264,266258,0,-1,0
265,266268,0,-1,0
266,266278,0,-1,0
267,266288,0,-1,0
268,266298,0,-1,0
269,266308,0,-1,0
270,266318,0,-1,0
271,266328,0,-1,0
272,266338,0,-1,0
273,266348,0,-1,0
274,266358,0,-1,0
275,266368,0,-1,0
276,266378,0,-1,0
277,266388,0,-1,0
278,266398,0,-1,0
279,266408,0,-1,0
280,266418,0,-1,0
281,266428,0,-1,0
282,266438,0,-1,0
283,266448,0,-1,0
284,266458,0,-1,0
285,266468,0,-1,0
286,266478,0,-1,0
287,266488,0,-1,0
288,266498,0,-1,0
289,266508,0,-1,0
290,266518,0,-1,0
291,266528,0,-1,0
292,266538,0,-1,0
293,266548,0,-1,0
294,266558,0,0,0
295,266568,0,-1,0
296,266578,0,-1,0
297,266588,0,-1,0
298,266598,0,-1,0
299,266608,0,-1,0
300,266618,0,-1,0
301,266628,0,-1,0
302,266638,0,-1,0
303,266648,0,-1,0
304,266658,0,-1,0
305,266668,0,-1,0
306,266678,0,-1,0
307,266688,0,-1,0
308,266698,0,-1,0
309,266708,0,-1,0
310,266718,0,-1,0
311,266728,0,-1,0
312,266738,0,-1,0
313,266748,0,-1,0
314,266758,0,-1,0
315,266768,0,-1,0
316,266778,0,-1,0
317,266788,0,-1,0
318,266798,0,-1,0
319,266808,0,-1,0
320,266818,0,-1,0
321,266828,0,-1,0
322,266838,0,-1,0
323,266848,0,-1,0
324,266858,0,-1,0
325,266868,0,-1,0
326,266878,0,-1,0
327,266888,0,-1,0
328,266898,0,0,0
329,266908,0,-1,0
330,266918,0,-1,0
331,266928,0,-1,0
332,266938,0,-1,0
333,266948,0,-1,0
334,266958,0,0,0
335,266968,0,-1,0
336,266978,0,-1,0
337,266988,0,-1,0
338,266998,0,-1,0
339,267008,0,-1,0
340,267018,0,-1,0
341,267028,0,-1,0
342,267038,0,-1,0
343,267048,0,-1,0
344,267058,0,-1,0
345,267068,0,-1,0
346,267078,0,-1,0
347,267088,0,-1,0
348,267098,0,-1,0
349,267108,0,-1,0
350,267118,0,-1,0
351,267128,0,-1,0
352,267138,0,-1,0
353,267148,0,-1,0
354,267158,0,-1,0
355,267168,0,-1,0
356,267178,0,-1,0
357,267188,0,-1,0
358,267198,0,-1,0
359,267208,0,-1,0
360,267218,0,-1,0
361,267228,0,-1,0
362,267238,0,-1,0
363,267248,0,-1,0
364,267258,0,-1,0
365,267268,0,-1,0
366,267278,0,-1,0
367,267288,0,-1,0
368,267298,0,-1,0
369,267308,0,-1,0
370,267318,0,-1,0
371,267328,0,-1,0
372,267338,0,-1,0
373,267348,0,-1,0
374,267358,0,0,0
375,267368,0,-1,0
376,267378,0,-1,0
377,267388,0,-1,0
378,267398,0,-1,0
379,267408,0,-1,0
380,267418,0,-1,0
381,267428,0,-1,0
382,267438,0,-1,0
383,267448,-1,-1,0
384,267458,0,-1,0
385,267468,-1,-1,0
386,267478,0,-1,0
387,267488,0,-1,0
388,267498,0,-1,0
389,267508,0,-1,0
390,267518,0,-1,0
391,267528,0,-1,0
392,267538,0,-1,0
393,267548,0,-1,0
394,267558,0,-1,0
395,267568,0,-1,0
396,267578,0,-1,0
397,267588,0,-1,0
398,267598,0,-1,0
399,267608,0,-1,0
400,267618,0,-1,0
401,267628,0,-1,0
402,267638,0,-1,0
403,267648,0,-1,0
404,267658,0,0,0
405,267668,0,-1,0
406,267678,0,-1,0
407,267688,0,-1,0
408,267698,0,-1,0
409,267708,0,-1,0
410,267718,0,-1,0
411,267728,0,-1,0
412,267738,0,-1,0
413,267748,0,-1,0
414,267758,0,-1,0
415,267768,0,-1,0
416,267778,0,-1,0
417,267788,0,-1,0
418,267798,0,-1,0
419,267808,0,-1,0
420,267818,0,-1,0
421,267828,0,-1,0
422,267838,0,-1,0
423,267848,0,-1,0
424,267858,0,-1,0
425,267868,0,-1,0
426,267878,0,-1,0
427,267888,0,-1,0
428,267898,-1,-1,0
429,267908,0,-1,0
430,267918,0,-1,0
431,267928,0,-1,0
432,267938,0,-1,0
433,267948,0,-1,0
434,267958,0,-1,0
435,267968,0,-1,0
436,267978,0,-1,0
437,267988,0,-1,0
438,267998,0,-1,0
439,268008,0,-1,0
440,268018,0,-1,0
441,268028,0,-1,0
442,268038,0,-1,0
443,268048,0,-1,0
444,268058,0,-1,0
445,268068,0,-1,0
446,268078,-1,-1,0
447,268088,0,-1,0
448,268098,0,-1,0
449,268108,0,-1,0
450,268118,0,-1,0
451,268128,0,-1,0
452,268138,0,-1,0
453,268148,0,-1,0
454,268158,0,-1,0
455,268168,-1,-1,0
456,268178,0,-1,0
457,268188,0,-1,0
458,268198,0,-1,0
459,268208,0,-1,0
460,268218,-1,-1,0
461,268228,0,-1,0
462,268238,0,-1,0
463,268248,0,-1,0
464,268258,0,-1,0
465,268268,0,-1,0
466,268278,0,-1,0
467,268288,0,-1,0
468,268298,0,-1,0
469,268308,0,-1,0
470,268318,0,-1,0
471,268328,0,-1,0
472,268338,0,-1,0
473,268348,0,-1,0
474,268358,0,-1,0
475,268368,0,-1,0
476,268378,0,0,0
477,268388,0,-1,0
478,268398,0,-1,0
479,268408,0,-1,0
480,268418,0,-1,0
481,268428,-1,-1,0
482,268438,0,-1,0
483,268448,-1,-1,0
484,268458,0,-1,0
485,268468,0,-1,0
486,268478,0,-1,0
487,268488,0,-1,0
488,268498,0,-1,0
489,268508,-1,-1,0
490,268518,-1,-1,0
491,268528,0,-1,0
492,268538,0,-1,0
493,268548,-1,-1,0
494,268558,0,-1,0
495,268568,0,-1,0
496,268578,0,-1,0
497,268588,0,-1,0
498,268598,0,-1,0
499,268608,-1,-1,0
500,268618,-1,-1,0
501,268628,-1,-1,0
502,268638,0,-1,0
503,268648,0,-1,0
504,268658,0,-1,0
505,268668,0,-1,0
506,268678,0,-1,0
507,268688,0,-1,0
508,268698,0,-1,0
509,268708,0,-1,0
510,268718,0,-1,0
511,268728,0,-1,0
512,268738,0,-1,0
513,268748,0,-1,0
514,268758,-1,-1,0
515,268768,0,-1,0
516,268778,0,-1,0
517,268788,-1,-1,0
518,268798,0,-1,0
519,268808,0,-1,0
520,268818,0,-1,0
521,268828,0,-1,0
522,268838,0,-1,0
523,268848,0,-1,0
524,268858,0,-1,0
525,268868,0,-1,0
526,268878,0,-1,0
527,268888,0,-1,0
528,268898,0,-1,0
529,268908,-1,-1,0
530,268918,0,-1,0
531,268928,0,-1,0
532,268938,0,-1,0
533,268948,0,-1,0
534,268958,0,-1,0
535,268968,0,-1,0
536,268978,-1,-1,0
537,268988,-1,-1,0
538,268998,0,-1,0
539,269008,0,-1,0
540,269018,0,-1,0
541,269028,0,-1,0
542,269038,0,-1,0
543,269048,0,-1,0
544,269058,-1,-1,0
545,269068,0,-1,0
546,269078,-1,-1,0
547,269088,0,-1,0
548,269098,-1,-1,0
549,269108,0,-1,0
550,269118,0,-1,0
551,269128,0,-1,0
552,269138,-1,-1,0
553,269148,0,-1,0
554,269158,0,-1,0
555,269168,-1,-1,0
556,269178,0,-1,0
557,269188,-1,-1,0
558,269198,0,-1,0
559,269208,0,-1,0
560,269218,-1,-1,0
561,269228,0,-1,0
562,269238,-1,-1,0
563,269248,-1,-1,0
564,269258,0,-1,0
565,269268,0,-1,0
566,269278,0,-1,0
567,269288,-1,-1,0
568,269298,-1,-1,0
569,269308,-1,-1,0
570,269318,0,-1,0
571,269328,0,-1,0
572,269338,-1,-1,0
573,269348,-1,-1,0
574,269358,-1,-1,0
575,269368,0,-1,0
576,269378,-1,-1,0
577,269388,0,-1,0
578,269398,0,-1,0
579,269408,-1,-1,0
580,269418,-1,-1,0
581,269428,-1,-1,0
582,269438,-1,-1,0
583,269448,0,-1,0
584,269458,0,-1,0
585,269468,0,-1,0
586,269478,-1,-1,0
587,269488,-1,-1,0
588,269498,-1,-1,0
589,269508,0,-1,0
590,269518,-1,-1,0
591,269528,-1,-1,0
592,269538,0,-1,0
593,269548,-1,-1,0
594,269558,-1,-1,0
595,269568,0,-1,0
596,269578,-1,-1,0
597,269588,-1,-1,0
598,269598,0,-1,0
599,269608,0,0,0
600,269618,-1,-1,0
601,269628,-1,-1,0
602,269638,0,-1,0
603,269648,0,-1,0
604,269658,0,-1,0
605,269668,-1,-1,0
606,269678,0,-1,0
607,269688,0,-1,0
608,269698,-1,-1,0
609,269708,0,-1,0
610,269718,0,-1,0
611,269728,-1,-1,0
612,269738,-1,-1,0
613,269748,-1,-1,0
614,269758,-1,-1,0
615,269768,0,-1,0
616,269778,-1,-1,0
617,269788,0,-1,0
618,269798,-1,-1,0
619,269808,0,-1,0
620,269818,-1,-1,0
621,269828,-1,-1,0
622,269838,-1,-1,0
623,269848,-1,-1,0
624,269858,0,-1,0
625,269868,0,-1,0
626,269878,-1,-1,0
627,269888,-1,-1,0
628,269898,-1,-1,0
629,269908,-1,-1,0
630,269918,0,-1,0
631,269928,-1,-1,0
632,269938,0,-1,0
633,269948,-1,-1,0
634,269958,0,-1,0
635,269968,0,-1,0
636,269978,0,-1,0
637,269988,-1,-1,0
638,269998,-1,-1,0
639,270008,-1,-1,0
640,270018,0,-1,0
641,270028,0,-1,0
642,270038,0,-1,0
643,270048,-1,-1,0
644,270058,-1,-1,0
645,270068,-1,-1,0
646,270078,0,-1,0
647,270088,0,-1,0
648,270098,-1,-1,0
649,270108,0,-1,0
650,270118,-1,-1,0
651,270128,-1,-1,0
652,270138,-1,-1,0
653,270148,0,-1,0
654,270158,0,-1,0
655,270168,-1,-1,0
656,270178,-1,-1,0
657,270188,-1,-1,0
658,270198,-1,-1,0
659,270208,-1,-1,0
660,270218,-1,-1,0
661,270228,-1,-1,0
662,270238,-1,-1,0
663,270248,0,-1,0
664,270258,0,-1,0
665,270268,-1,-1,0
666,270278,-1,-1,0
667,270288,-1,-1,0
668,270298,-1,-1,0
669,270308,0,-1,0
670,270318,-1,-1,0
671,270328,0,-1,0
672,270338,0,-1,0
673,270348,-1,-1,0
674,270358,0,-1,0
675,270368,0,-1,0
676,270378,-1,-1,0
677,270388,-1,-1,0
678,270398,-1,-1,0
679,270408,0,-1,0
680,270418,-1,-1,0
681,270428,0,-1,0
682,270438,-1,-1,0
683,270448,-1,-1,0
684,270458,0,-1,0
685,270468,-1,-1,0
686,270478,-1,-1,0
687,270488,-1,-1,0
688,270498,-1,-1,0
689,270508,-1,-1,0
690,270518,-1,-1,0
691,270528,-1,-1,0
692,270538,-1,-1,0
693,270548,-1,-1,0
694,270558,0,-1,0
695,270568,-1,-1,0
696,270578,-1,-1,0
697,270588,-1,-1,0
698,270598,-1,-1,0
699,270608,0,-1,0
700,270618,0,-1,0
701,270628,-1,-1,0
702,270638,0,-1,0
703,270648,-1,-1,0
704,270658,-1,-1,0
705,270668,0,-1,0
706,270678,0,-1,0
707,270688,-1,-1,0
708,270698,-1,-1,0
709,270708,-1,-1,0
710,270718,0,-1,0
711,270728,-1,-1,0
712,270738,-1,-1,0
713,270748,-1,-1,0
714,270758,0,-1,0
715,270768,0,-1,0
716,270778,-1,-1,0
717,270788,-1,-1,0
718,270798,-1,-1,0
719,270808,-1,-1,0
720,270818,-1,-1,0
721,270828,0,-1,0
722,270838,-1,-1,0
723,270848,-1,-1,0
724,270858,0,-1,0
725,270868,0,-1,0
726,270878,-1,-1,0
727,270888,-1,-1,0
728,270898,-1,-1,0
729,270908,0,-1,0
730,270918,-1,-1,0
731,270928,-1,-1,0
732,270938,-1,-1,0
733,270948,-1,-1,0
734,270958,-1,-1,0
735,270968,0,-1,0
736,270978,-1,-1,0
737,270988,-1,-1,0
738,270998,0,-1,0
739,271008,-1,-1,0
740,271018,-1,-1,0
741,271028,-1,-1,0
742,271038,-1,-1,0
743,271048,-1,-1,0
744,271058,-1,-1,0
745,271068,-1,-1,0
746,271078,-1,-1,0
747,271088,0,-1,0
748,271098,0,-1,0
749,271108,-1,-1,0
750,271118,-1,-1,0
751,271128,-1,-1,0
752,271138,-1,-1,0
753,271148,-1,-1,0
754,271158,-1,-1,0
755,271168,-1,-1,0
756,271178,-1,-1,0
757,271188,0,-1,0
758,271198,0,-1,0
759,271208,0,-1,0
760,271218,-1,-1,0
761,271228,0,-1,0
762,271238,0,-1,0
763,271248,-1,-1,0
764,271258,-1,-1,0
765,271268,-1,-1,0
766,271278,-1,-1,0
767,271288,-1,-1,0
768,271298,-1,-1,0
769,271308,-1,-1,0
770,271318,0,-1,0
771,271328,-1,-1,0
772,271338,0,-1,0
773,271348,-1,-1,0
774,271358,0,-1,0
775,271368,0,-1,0
776,271378,-1,-1,0
777,271388,-1,-1,0
778,271398,-1,-1,0
779,271408,-1,-1,0
780,271418,-1,-1,0
781,271428,0,-1,0
782,271438,0,-1,0
783,271448,-1,-1,0
784,271458,0,-1,0
785,271468,-1,-1,0
786,271478,-1,-1,0
787,271488,-1,-1,0
788,271498,-1,-1,0
789,271508,-1,-1,0
790,271518,-1,-1,0
791,271528,0,-1,0
792,271538,0,-1,0
793,271548,-1,-1,0
794,271558,-1,-1,0
795,271568,-1,-1,0
796,271578,0,-1,0
797,271588,-1,-1,0
798,271598,0,-1,0
799,271608,-1,-1,0
800,271618,0,-1,0
801,271628,-1,-1,0
802,271638,0,-1,0
803,271648,0,-1,0
804,271658,-1,-1,0
805,271668,-1,-1,0
806,271678,0,-1,0
807,271688,-1,-1,0
808,271698,-1,-1,0
809,271708,-1,-1,0
810,271718,-1,-1,0
811,271728,0,-1,0
812,271738,-1,-1,0
813,271748,-1,-1,0
814,271758,-1,-1,0
815,271768,-1,-1,0
816,271778,-1,-1,0
817,271788,0,-1,0
818,271798,-1,-1,0
819,271808,-1,-1,0
820,271818,0,-1,0
821,271828,-1,-1,0
822,271838,-1,-1,0
823,271848,-1,-1,0
824,271858,-1,-1,0
825,271868,-1,-1,0
826,271878,-1,-1,0
827,271888,-1,-1,0
828,271898,0,-1,0
829,271908,0,-1,0
830,271918,-1,-1,0
831,271928,-1,-1,0
832,271938,0,-1,0
833,271948,0,-1,0
834,271958,0,-1,0
835,271968,-3,-1,0
836,271978,-46,-2,0
837,271988,-16,-2,0
838,271998,0,-1,0
839,272008,0,-1,0
840,272018,0,-1,0
841,272028,0,-1,0
842,272038,-1,-1,0
843,272048,0,-1,0
844,272058,0,-1,0
845,272068,0,-1,0
846,272078,1,-1,0
847,272088,-1,-1,0
848,272098,-1,-1,0
849,272108,0,-1,0
850,272118,0,-1,0
851,272128,-1,-1,0
852,272138,0,-1,0
853,272148,0,-1,0
854,272158,-1,-1,0
855,272168,0,-1,0
856,272178,0,-1,0
857,272188,0,-1,0
858,272198,0,-1,0
859,272208,0,-1,0
860,272218,0,-1,0
861,272228,0,-1,0
862,272238,0,-1,0
863,272248,-1,-1,0
864,272258,0,-1,0
865,272268,0,-1,0
866,272278,0,-1,0
867,272288,0,-1,0
868,272298,0,-1,0
869,272308,0,-1,0
870,272318,0,-1,0
871,272328,0,-1,0
872,272338,0,-3,0
873,272348,-1,-1,0
874,272358,-1,-1,0
875,272368,-1,-1,0
876,272378,0,-1,0
877,272388,-1,-1,0
878,272398,-1,-1,0
879,272408,8,-6,0
880,272418,14,-9,0
881,272428,22,-8,0
882,272438,22,-2,0
883,272448,12,-3,0
884,272458,3,-1,0
885,272468,-2,-1,0
886,272478,-5,-1,0
887,272488,-2,-1,0
888,272498,-1,-1,0
889,272508,-1,-1,0
890,272518,0,-1,0
891,272528,-1,-1,0
892,272538,-1,-1,0
893,272548,-1,-1,0
894,272558,-1,-1,0
895,272568,-1,-1,0
896,272578,-1,-1,0
897,272588,-1,-1,0
898,272598,-1,-1,0
899,272608,-1,-1,0
900,272618,-1,-1,0
901,272628,-1,-1,0
902,272638,-1,-1,0
903,272648,-1,-1,0
904,272658,-1,-1,0
905,272668,-1,-1,0
906,272678,-1,-1,0
907,272688,-1,-1,0
908,272698,-1,-1,0
909,272708,-1,-1,0
910,272718,-1,-1,0
911,272728,-1,-1,0
912,272738,-1,-1,0
913,272748,-1,-1,0
914,272758,-1,-1,0
915,272768,-1,-1,0
916,272778,-1,-1,0
917,272788,-1,-1,0
918,272798,-1,-1,0
919,272808,-1,-1,0
920,272818,-1,-1,0
921,272828,0,-1,0
922,272838,-1,-1,0
923,272848,0,-1,0
924,272858,-1,-1,0
925,272868,-1,-1,0
926,272878,0,-1,0
927,272888,-1,-1,0
928,272898,0,0,0
929,272908,-1,0,0
930,272918,-1,-1,0
931,272928,-1,-1,0
932,272938,-1,-1,0
933,272948,-1,0,0
934,272958,0,0,0
935,272968,-1,-1,0
936,272978,-1,-1,0
937,272988,0,-1,0
938,272998,-1,-1,0
939,273008,-1,-1,0
940,273018,-1,-1,0
941,273028,-1,-1,0
942,273038,-1,-1,0
943,273048,-1,-2,0
944,273058,-1,-2,0
945,273068,-1,-2,0
946,273078,-1,-1,0
947,273088,-1,-1,0
948,273098,-1,-2,0
949,273108,-1,-2,0
950,273118,-1,-2,0
951,273128,-1,-2,0
952,273138,-1,-2,0
953,273148,-1,-1,0
954,273158,-1,-1,0
955,273168,0,-1,0
956,273178,-1,-1,0
957,273188,-1,-1,0
958,273198,-1,-1,0
959,273208,0,-1,0
960,273218,0,-1,0
961,273228,-1,-1,0
962,273238,-1,-1,0
963,273248,-1,-1,0
964,273258,0,-1,0
965,273268,-1,-1,0
966,273278,-1,-1,0
967,273288,0,-1,0
968,273298,0,-1,0
969,273308,0,-1,0
970,273318,0,-1,0
971,273328,0,-1,0
972,273338,0,-1,0
973,273348,0,-1,0
974,273358,0,0,0
975,273368,0,0,0
976,273378,0,0,0
977,273388,0,0,0
978,273398,0,0,0
979,273408,0,0,0
980,273418,0,0,0
981,273428,0,0,0
982,273438,0,0,0
983,273448,0,0,0
984,273458,0,0,0
985,273468,0,0,0
986,273478,0,0,0
987,273488,0,0,0
988,273498,0,0,0
989,273508,0,0,0
990,273518,0,0,0
991,273528,0,0,0
992,273538,1,0,0
993,273548,0,0,0
994,273558,1,0,0
995,273568,1,-1,0
996,273578,1,0,0
997,273588,1,-1,0
998,273598,1,0,0
999,273608,1,0,0
1000,273618,1,-1,0
1001,273628,1,0,0
1002,273638,1,-1,0
1003,273648,1,0,0
1004,273658,1,0,0
1005,273668,0,0,0
1006,273678,0,0,0
1007,273688,1,0,0
1008,273698,1,0,0
1009,273708,0,-1,0
1010,273718,0,0,0
1011,273728,0,0,0
1012,273738,0,0,0
1013,273748,0,-1,0
1014,273758,0,-1,0
1015,273768,0,-1,0
1016,273778,0,-1,0
1017,273788,0,-1,0
1018,273798,0,-1,0
1019,273808,0,-1,0
1020,273818,0,-1,0
1021,273828,0,-1,0
1022,273838,0,-1,0
1023,273848,0,-2,0
1024,273858,0,-1,0
1025,273868,0,-2,0
1026,273878,0,-2,0
1027,273888,0,-2,0
1028,273898,0,-2,0
1029,273908,0,-2,0
1030,273918,0,-2,0
1031,273928,0,-2,0
1032,273938,0,-2,0
1033,273948,0,-2,0
1034,273958,0,-2,0
1035,273968,0,-2,0
1036,273978,0,-2,0
1037,273988,-1,-2,0
1038,273998,-1,-2,0
1039,274008,-1,-1,0
1040,274018,0,-2,0
1041,274028,0,-2,0
1042,274038,0,-2,0
1043,274048,0,-1,0
1044,274058,0,-1,0
1045,274068,0,-1,0
1046,274078,-1,-1,0
1047,274088,-1,-1,0
1048,274098,-1,-1,0
1049,274108,-1,-1,0
1050,274118,-1,-1,0
1051,274128,-1,-1,0
1052,274138,-1,-1,0
1053,274148,-1,-1,0
1054,274158,-1,-1,0
1055,274168,-1,-2,0
1056,274178,-1,-1,0
1057,274188,-1,-2,0
1058,274198,-1,-2,0
1059,274208,-1,-2,0
1060,274218,-1,-2,0
1061,274228,-1,-2,0
1062,274238,-1,-2,0
1063,274248,-1,-2,0
1064,274258,-1,-2,0
1065,274268,-1,-2,0
1066,274278,-1,-2,0
1067,274288,-1,-2,0
1068,274298,-1,-2,0
1069,274308,-1,-2,0
1070,274318,-1,-2,0
1071,274328,-1,-2,0
1072,274338,-1,-2,0
1073,274348,-1,-2,0
1074,274358,-1,-2,0
1075,274368,-1,-2,0
1076,274378,-1,-2,0
1077,274388,-1,-2,0
1078,274398,-1,-2,0
1079,274408,-1,-2,0
1080,274418,-1,-2,0
1081,274428,-1,-2,0
1082,274438,-1,-2,0
1083,274448,-1,-2,0
1084,274458,-1,-2,0
1085,274468,-1,-2,0
1086,274478,-1,-2,0
1087,274488,0,-1,0
1088,274498,-1,-1,0
1089,274508,-1,-1,0
1090,274518,-1,-1,0
1091,274528,0,-2,0
1092,274538,0,-2,0
1093,274548,-1,-1,0
1094,274558,0,-2,0
1095,274568,0,-1,0
1096,274578,0,-1,0
1097,274588,0,-1,0
1098,274598,0,-1,0
1099,274608,0,-1,0
1100,274618,0,-2,0
1101,274628,0,-1,0
1102,274638,0,-2,0
1103,274648,0,-2,0
1104,274658,0,-1,0
1105,274668,0,-2,0
1106,274678,0,-2,0
1107,274688,0,-2,0
1108,274698,0,-1,0
1109,274708,0,-2,0
1110,274718,0,-1,0
1111,274728,0,-1,0
1112,274738,0,-2,0
1113,274748,0,-1,0
1114,274758,0,-1,0
1115,274768,0,-1,0
1116,274778,0,-1,0
1117,274788,0,-1,0
1118,274798,0,-1,0
1119,274808,0,-1,0
1120,274818,0,-1,0
1121,274828,0,-1,0
1122,274838,1,-1,0
1123,274848,1,-1,0
1124,274858,1,-1,0
1125,274868,0,-1,0
1126,274878,0,-1,0
1127,274888,1,-1,0
1128,274898,0,-1,0
1129,274908,0,-1,0
1130,274918,0,-1,0
1131,274928,0,-1,0
1132,274938,0,-1,0
1133,274948,0,-1,0
1134,274958,0,-1,0
1135,274968,0,-1,0
1136,274978,0,-1,0
1137,274988,0,-1,0
1138,274998,0,-1,0
1139,275008,0,-1,0
1140,275018,0,-1,0
1141,275028,1,-1,0
1142,275038,0,-1,0
1143,275048,0,-1,0
1144,275058,0,-1,0
1145,275068,0,-1,0
1146,275078,0,-1,0
1147,275088,0,-1,0
1148,275098,0,-1,0
1149,275108,0,-1,0
1150,275118,0,-1,0
1151,275128,0,-1,0
1152,275138,0,-1,0
1153,275148,0,-1,0
1154,275158,0,-1,0
1155,275168,-1,-1,0
1156,275178,0,-1,0
1157,275188,0,-1,0
1158,275198,0,-1,0
1159,275208,0,-1,0
1160,275218,0,-1,0
1161,275228,0,-1,0
1162,275238,0,-1,0
1163,275248,0,-1,0
1164,275258,-1,-1,0
1165,275268,0,-1,0
1166,275278,0,-1,0
1167,275288,0,0,0
1168,275298,-1,0,0
1169,275308,-1,0,0
1170,275318,-1,0,0
1171,275328,-1,0,0
1172,275338,-1,0,0
1173,275348,-1,0,0
1174,275358,-1,0,0
1175,275368,-1,0,0
1176,275378,-1,-1,0
1177,275388,-1,0,0
1178,275398,-1,0,0
1179,275408,-1,0,0
1180,275418,-1,-1,0
1181,275428,0,-1,0
1182,275438,-1,-1,0
1183,275448,-1,-1,0
1184,275458,0,-1,0
1185,275468,0,-2,0
1186,275478,-1,-2,0
1187,275488,-1,-2,0
1188,275498,0,-2,0
1189,275508,-1,-2,0
1190,275518,-1,-2,0
1191,275528,0,-3,0
1192,275538,0,-3,0
1193,275548,0,-3,0
1194,275558,0,-3,0
1195,275568,0,-3,0
1196,275578,0,-2,0
1197,275588,0,-3,0
1198,275598,0,-3,0
1199,275608,0,-2,0
1200,275618,0,-2,0
1201,275628,-1,-2,0
1202,275638,0,-2,0
1203,275648,0,-2,0
1204,275658,0,-2,0
1205,275668,-1,-2,0
1206,275678,0,-2,0
1207,275688,0,-1,0
1208,275698,0,-2,0
1209,275708,0,-1,0
1210,275718,0,-1,0
1211,275728,0,-1,0
1212,275738,0,-1,0
1213,275748,-1,-1,0
1214,275758,0,-1,0
1215,275768,-1,-1,0
1216,275778,-1,0,0
1217,275788,-1,0,0
1218,275798,-1,0,0
1219,275808,0,0,0
1220,275818,0,0,0
1221,275828,0,0,0
1222,275838,0,0,0
1223,275848,-1,0,0
1224,275858,0,0,0
1225,275868,0,0,0
1226,275878,0,0,0
1227,275888,0,0,0
1228,275898,0,0,0
1229,275908,0,0,0
1230,275918,0,0,0
1231,275928,0,0,0
1232,275938,0,0,0
1233,275948,0,0,0
1234,275958,0,0,0
1235,275968,0,0,0
1236,275978,0,0,0
1237,275988,0,0,0
1238,275998,0,0,0
1239,276008,0,0,0
1240,276018,0,-1,0
1241,276028,0,-1,0
1242,276038,0,0,0
1243,276048,0,0,0
1244,276058,1,-1,0
1245,276068,0,-1,0
1246,276078,1,-1,0
1247,276088,1,-1,0
1248,276098,1,-1,0
1249,276108,1,-1,0
1250,276118,1,-1,0
1251,276128,1,-1,0
1252,276138,1,-1,0
1253,276148,1,-1,0
1254,276158,1,-1,0
1255,276168,1,-1,0
1256,276178,1,-1,0
1257,276188,1,-1,0
1258,276198,0,-1,0
1259,276208,0,-1,0
1260,276218,0,-1,0
1261,276228,0,-1,0
1262,276238,0,-2,0
1263,276248,0,-2,0
1264,276258,0,-2,0
1265,276268,0,-2,0
1266,276278,1,-2,0
1267,276288,0,-1,0
1268,276298,0,-2,0
1269,276308,0,-2,0
1270,276318,0,-2,0
1271,276328,0,-2,0
1272,276338,0,-2,0
1273,276348,0,-2,0
1274,276358,0,-2,0
1275,276368,0,-2,0
1276,276378,0,-2,0
1277,276388,0,-2,0
1278,276398,0,-2,0
1279,276408,0,-2,0
1280,276418,0,-3,0
1281,276428,0,-3,0
1282,276438,0,-3,0
1283,276448,0,-3,0
1284,276458,0,-3,0
1285,276468,0,-3,0
1286,276478,0,-3,0
1287,276488,0,-3,0
1288,276498,0,-3,0
1289,276508,0,-3,0
1290,276518,0,-3,0
1291,276528,0,-3,0
1292,276538,0,-3,0
1293,276548,0,-2,0
1294,276558,-1,-3,0
1295,276568,0,-3,0
1296,276578,0,-2,0
1297,276588,0,-2,0
1298,276598,-1,-2,0
1299,276608,0,-2,0
1300,276618,-1,-2,0
1301,276628,0,-2,0
1302,276638,0,-3,0
1303,276648,0,-2,0
1304,276658,0,-2,0
1305,276668,0,-2,0
1306,276678,-1,-2,0
1307,276688,0,-2,0
1308,276698,0,-2,0
1309,276708,0,-2,0
1310,276718,0,-2,0
1311,276728,0,-2,0
1312,276738,0,-2,0
1313,276748,0,-2,0
1314,276758,0,-1,0
1315,276768,0,-2,0
1316,276778,0,-2,0
1317,276788,0,-2,0
1318,276798,0,-2,0
1319,276808,0,-2,0
1320,276818,0,-2,0
1321,276828,0,-2,0
1322,276838,0,-1,0
1323,276848,0,-1,0
1324,276858,0,-1,0
1325,276868,0,-1,0
1326,276878,0,-1,0
1327,276888,0,-1,0
1328,276898,0,-1,0
1329,276908,0,-1,0
1330,276918,0,-1,0
1331,276928,0,0,0
1332,276938,0,0,0
1333,276948,0,0,0
1334,276958,0,-1,0
1335,276968,0,0,0
1336,276978,0,0,0
1337,276988,0,0,0
1338,276998,0,0,0
1339,277008,0,0,0
1340,277018,1,0,0
1341,277028,0,0,0
1342,277038,0,0,0
1343,277048,0,0,0
1344,277058,0,0,0
1345,277068,0,0,0
1346,277078,0,0,0
1347,277088,1,0,0
1348,277098,0,0,0
1349,277108,0,0,0
1350,277118,1,0,0
1351,277128,0,0,0
1352,277138,1,0,0
1353,277148,1,0,0
1354,277158,0,0,0
1355,277168,0,0,0
1356,277178,1,0,0
1357,277188,0,0,0
1358,277198,0,0,0
1359,277208,0,0,0
1360,277218,1,0,0
1361,277228,1,-1,0
1362,277238,0,-1,0
1363,277248,0,-1,0
1364,277258,0,-1,0
1365,277268,0,-1,0
1366,277278,0,-1,0
1367,277288,1,-1,0
1368,277298,0,-1,0
1369,277308,0,-1,0
1370,277318,0,-1,0
1371,277328,0,-1,0
1372,277338,1,-2,0
1373,277348,0,-2,0
1374,277358,0,-2,0
1375,277368,0,-2,0
1376,277378,1,-2,0
1377,277388,0,-2,0
1378,277398,0,-2,0
1379,277408,0,-2,0
1380,277418,0,-2,0
1381,277428,0,-2,0
1382,277438,0,-2,0
1383,277448,0,-2,0
1384,277458,0,-3,0
1385,277468,0,-3,0
1386,277478,0,-3,0
1387,277488,0,-2,0
1388,277498,0,-2,0
1389,277508,0,-3,0
1390,277518,0,-2,0
1391,277528,0,-3,0
1392,277538,0,-3,0
1393,277548,0,-3,0
1394,277558,0,-3,0
1395,277568,0,-3,0
1396,277578,1,-2,0
1397,277588,0,-2,0
1398,277598,1,-2,0
1399,277608,0,-2,0
1400,277618,0,-2,0
1401,277628,0,-2,0
1402,277638,0,-2,0
1403,277648,0,-2,0
1404,277658,0,-2,0
1405,277668,0,-2,0
1406,277678,0,-2,0
1407,277688,0,-2,0
1408,277698,0,-2,0
1409,277708,0,-2,0
1410,277718,0,-1,0
1411,277728,0,-1,0
1412,277738,0,-1,0
1413,277748,0,-1,0
1414,277758,0,-1,0
1415,277768,0,-1,0
1416,277778,0,-1,0
1417,277788,0,-1,0
1418,277798,0,-1,0
1419,277808,0,-1,0
1420,277818,0,-1,0
1421,277828,0,-1,0
1422,277838,0,-1,0
1423,277848,0,-1,0
1424,277858,0,-1,0
1425,277868,0,-1,0
1426,277878,0,-1,0
1427,277888,0,-1,0
1428,277898,0,-1,0
1429,277908,0,-1,0
1430,277918,0,-1,0
1431,277928,0,-1,0
1432,277938,0,-1,0
1433,277948,0,-1,0
1434,277958,0,-2,0
1435,277968,0,-2,0
1436,277978,0,-2,0
1437,277988,0,-2,0
1438,277998,0,-2,0
1439,278008,0,-1,0
1440,278018,0,-1,0
1441,278028,0,-1,0
1442,278038,0,-2,0
1443,278048,0,-2,0
1444,278058,0,-2,0
1445,278068,0,-2,0
1446,278078,0,-2,0
1447,278088,0,-2,0
1448,278098,0,-2,0
1449,278108,0,-1,0
1450,278118,0,-2,0
1451,278128,0,-2,0
1452,278138,1,-2,0
1453,278148,0,-2,0
1454,278158,0,-2,0
1455,278168,0,-2,0
1456,278178,0,-2,0
1457,278188,0,-2,0
1458,278198,0,-2,0
1459,278208,0,-2,0
1460,278218,0,-2,0
1461,278228,0,-2,0
1462,278238,0,-2,0
1463,278248,0,-2,0
1464,278258,0,-2,0
1465,278268,0,-2,0
1466,278278,0,-2,0
1467,278288,0,-2,0
1468,278298,0,-1,0
1469,278308,0,-2,0
1470,278318,0,-2,0
1471,278328,0,-2,0
1472,278338,0,-1,0
1473,278348,0,-1,0
1474,278358,0,-1,0
1475,278368,0,-1,0
1476,278378,0,-1,0
1477,278388,0,-1,0
1478,278398,0,-1,0
1479,278408,0,-1,0
1480,278418,0,-1,0
1481,278428,0,-1,0
1482,278438,0,-1,0
1483,278448,0,-1,0
1484,278458,0,-1,0
1485,278468,0,-1,0
1486,278478,0,-1,0
1487,278488,0,-1,0
1488,278498,0,-1,0
1489,278508,0,-1,0
1490,278518,0,-1,0
1491,278528,0,-1,0
1492,278538,0,-1,0
1493,278548,0,-1,0
1494,278558,0,-1,0
1495,278568,0,-1,0
1496,278578,0,-1,0
1497,278588,0,0,0
1498,278598,0,-1,0
1499,278608,0,-1,0
1500,278618,0,0,0
1501,278628,0,-1,0
1502,278638,0,0,0
1503,278648,0,0,0
1504,278658,0,0,0
1505,278668,0,-1,0
1506,278678,0,0,0
1507,278688,0,0,0
1508,278698,0,-1,0
1509,278708,0,-1,0
1510,278718,0,-1,0
1511,278728,0,-1,0
1512,278738,0,-1,0
1513,278748,0,-1,0
1514,278758,0,-1,0
1515,278768,0,-1,0
1516,278778,0,-1,0
1517,278788,0,-1,0
1518,278798,0,-1,0
1519,278808,0,-2,0
1520,278818,-1,-1,0
1521,278828,-1,-2,0
1522,278838,0,-2,0
1523,278848,0,-2,0
1524,278858,0,-2,0
1525,278868,-1,-1,0
1526,278878,-1,-2,0
1527,278888,-1,-2,0
1528,278898,-1,-2,0
1529,278908,0,-2,0
1530,278918,-1,-2,0
1531,278928,-1,-2,0
1532,278938,0,-2,0
1533,278948,-1,-2,0
1534,278958,-1,-2,0
1535,278968,-1,-2,0
1536,278978,-1,-2,0
1537,278988,-1,-2,0
1538,278998,-1,-2,0
1539,279008,-1,-2,0
1540,279018,-1,-2,0
1541,279028,-1,-2,0
1542,279038,-1,-3,0
1543,279048,-1,-2,0
1544,279058,-1,-2,0
1545,279068,-1,-2,0
1546,279078,-1,-2,0
1547,279088,-1,-2,0
1548,279098,-1,-2,0
1549,279108,-1,-2,0
1550,279118,-1,-3,0
1551,279128,-1,-3,0
1552,279138,-1,-3,0
1553,279148,-1,-3,0
1554,279158,-1,-2,0
1555,279168,-1,-2,0
1556,279178,-1,-2,0
1557,279188,-1,-2,0
1558,279198,0,-2,0
1559,279208,-1,-2,0
1560,279218,-1,-2,0
1561,279228,-1,-2,0
1562,279238,-1,-2,0
1563,279248,-1,-2,0
1564,279258,-1,-1,0
1565,279268,-1,-1,0
1566,279278,-1,-2,0
1567,279288,-1,-2,0
1568,279298,-1,-2,0
1569,279308,-1,-2,0
1570,279318,-1,-3,0
1571,279328,-1,-2,0
1572,279338,-1,-2,0
1573,279348,-1,-2,0
1574,279358,-1,-3,0
1575,279368,-1,-3,0
1576,279378,-1,-2,0
1577,279388,-1,-2,0
1578,279398,-1,-2,0
1579,279408,-1,-2,0
1580,279418,-1,-2,0
1581,279428,-1,-1,0
1582,279438,-1,-1,0
1583,279448,-1,-1,0
1584,279458,-1,-1,0
1585,279468,-1,-1,0
1586,279478,-1,-1,0
1587,279488,-1,-1,0
1588,279498,-1,-2,0
1589,279508,-1,-1,0
1590,279518,-1,-1,0
1591,279528,-1,-1,0
1592,279538,-1,-1,0
1593,279548,-1,-1,0
1594,279558,-1,-1,0
1595,279568,-1,-1,0
1596,279578,-1,-1,0
1597,279588,-1,-1,0
1598,279598,-1,-1,0
1599,279608,-1,-1,0
1600,279618,-1,-1,0
1601,279628,-1,-1,0
1602,279638,-1,-1,0
1603,279648,-1,-1,0
1604,279658,-1,-1,0
1605,279668,-1,-1,0
1606,279678,-1,-1,0
1607,279688,-1,-1,0
1608,279698,0,-1,0
1609,279708,-1,-1,0
1610,279718,-1,-1,0
1611,279728,0,-1,0
1612,279738,-1,-1,0
1613,279748,0,-1,0
1614,279758,0,-1,0
1615,279768,0,-1,0
1616,279778,0,-1,0
1617,279788,0,-1,0
1618,279798,0,-1,0
1619,279808,0,-1,0
1620,279818,0,-1,0
1621,279828,0,-1,0
1622,279838,0,-1,0
1623,279848,0,-1,0
1624,279858,0,-1,0
1625,279868,0,-1,0
1626,279878,0,-1,0
1627,279888,0,-1,0
1628,279898,0,-1,0
1629,279908,0,-1,0
1630,279918,0,-1,0
1631,279928,0,-1,0
1632,279938,0,-1,0
1633,279948,0,-1,0
1634,279958,0,-1,0
1635,279968,0,-1,0
1636,279978,0,-1,0
1637,279988,0,-1,0
1638,279998,0,-1,0
1639,280008,0,0,0
1640,280018,0,0,0
1641,280028,0,0,0
1642,280038,0,0,0
1643,280048,0,0,0
1644,280058,0,0,0
1645,280068,0,0,0
1646,280078,0,0,0
1647,280088,0,0,0
1648,280098,1,0,0
1649,280108,0,0,0
1650,280118,0,0,0
1651,280128,1,0,0
1652,280138,1,0,0
1653,280148,0,1,0
1654,280158,1,1,0
1655,280168,1,1,0
1656,280178,0,1,0
1657,280188,1,0,0
1658,280198,1,1,0
1659,280208,1,1,0
1660,280218,0,0,0
1661,280228,1,0,0
1662,280238,1,0,0
1663,280248,0,0,0
1664,280258,1,0,0
1665,280268,0,0,0
1666,280278,0,0,0
1667,280288,1,0,0
1668,280298,0,0,0
1669,280308,1,0,0
1670,280318,0,0,0
1671,280328,1,-1,0
1672,280338,1,-1,0
1673,280348,0,-1,0
1674,280358,1,-1,0
1675,280368,0,-1,0
1676,280378,1,-1,0
1677,280388,1,-1,0
1678,280398,1,-1,0
1679,280408,1,-1,0
1680,280418,1,-1,0
1681,280428,1,-1,0
1682,280438,1,-2,0
1683,280448,1,-2,0
1684,280458,1,-2,0
1685,280468,1,-2,0
1686,280478,1,-2,0
1687,280488,1,-2,0
1688,280498,1,-2,0
1689,280508,1,-1,0
1690,280518,1,-2,0
1691,280528,1,-1,0
1692,280538,1,-1,0
1693,280548,0,-2,0
1694,280558,1,-1,0
1695,280568,0,-1,0
1696,280578,1,-1,0
1697,280588,1,-1,0
1698,280598,1,-1,0
1699,280608,1,-1,0
1700,280618,1,-1,0
1701,280628,1,-1,0
1702,280638,1,-1,0
1703,280648,1,-1,0
1704,280658,1,-1,0
1705,280668,1,-1,0
1706,280678,1,-1,0
1707,280688,1,-1,0
1708,280698,1,-1,0
1709,280708,1,-1,0
1710,280718,1,-1,0
1711,280728,1,-1,0
1712,280738,1,-1,0
1713,280748,1,-1,0
1714,280758,1,-1,0
1715,280768,1,-1,0
1716,280778,1,-1,0
1717,280788,1,-1,0
1718,280798,1,-1,0
1719,280808,1,-1,0
1720,280818,1,-1,0
1721,280828,1,-1,0
1722,280838,0,-1,0
1723,280848,1,-2,0
1724,280858,1,-2,0
1725,280868,1,-2,0
1726,280878,1,-2,0
1727,280888,1,-2,0
1728,280898,1,-2,0
1729,280908,1,-2,0
1730,280918,1,-1,0
1731,280928,1,-2,0
1732,280938,1,-2,0
1733,280948,1,-2,0
1734,280958,1,-1,0
1735,280968,1,-2,0
1736,280978,1,-2,0
1737,280988,1,-2,0
1738,280998,1,-2,0
1739,281008,1,-2,0
1740,281018,1,-2,0
1741,281028,1,-2,0
1742,281038,1,-1,0
1743,281048,1,-2,0
1744,281058,1,-2,0
1745,281068,1,-1,0
1746,281078,1,-1,0
1747,281088,1,-1,0
1748,281098,1,-1,0
1749,281108,1,-1,0
1750,281118,1,-1,0
1751,281128,1,-1,0
1752,281138,1,-1,0
1753,281148,1,-1,0
1754,281158,1,-1,0
1755,281168,1,-1,0
1756,281178,1,-1,0
1757,281188,1,-2,0
1758,281198,1,-1,0
1759,281208,1,-1,0
1760,281218,1,-1,0
1761,281228,0,-1,0
1762,281238,1,-2,0
1763,281248,1,-1,0
1764,281258,0,-1,0
1765,281268,1,-1,0
1766,281278,1,-1,0
1767,281288,1,-1,0
1768,281298,1,-1,0
1769,281308,1,-1,0
1770,281318,1,-1,0
1771,281328,1,-1,0
1772,281338,1,-1,0
1773,281348,0,-1,0
1774,281358,1,-1,0
1775,281368,1,-2,0
1776,281378,1,-2,0
1777,281388,1,-2,0
1778,281398,1,-2,0
1779,281408,1,-2,0
1780,281418,1,-2,0
1781,281428,0,-2,0
1782,281438,1,-2,0
1783,281448,1,-2,0
1784,281458,1,-2,0
1785,281468,1,-2,0
1786,281478,0,-2,0
1787,281488,1,-2,0
1788,281498,1,-2,0
1789,281508,0,-2,0
1790,281518,0,-2,0
1791,281528,0,-2,0
1792,281538,1,-2,0
1793,281548,0,-2,0
1794,281558,0,-1,0
1795,281568,1,-1,0
1796,281578,0,-1,0
1797,281588,1,-2,0
1798,281598,0,-1,0
1799,281608,1,-1,0
1800,281618,1,-1,0
1801,281628,0,-1,0
1802,281638,1,-1,0
1803,281648,1,-1,0
1804,281658,1,-1,0
1805,281668,1,-1,0
1806,281678,1,-1,0
1807,281688,1,-1,0
1808,281698,1,-1,0
1809,281708,1,-1,0
1810,281718,0,-1,0
1811,281728,0,-1,0
1812,281738,1,-1,0
1813,281748,1,-1,0
1814,281758,1,-1,0
1815,281768,1,0,0
1816,281778,1,-1,0
1817,281788,1,-1,0
1818,281798,1,-1,0
1819,281808,1,0,0
1820,281818,1,0,0
1821,281828,1,0,0
1822,281838,0,0,0
1823,281848,0,0,0
1824,281858,1,0,0
1825,281868,1,0,0
1826,281878,1,0,0
1827,281888,0,0,0
1828,281898,1,0,0
1829,281908,1,0,0
1830,281918,1,0,0
1831,281928,1,-1,0
1832,281938,1,-1,0
1833,281948,1,0,0
1834,281958,0,0,0
1835,281968,0,0,0
1836,281978,1,0,0
1837,281988,1,0,0
1838,281998,0,0,0
1839,282008,1,0,0
1840,282018,1,0,0
1841,282028,1,-1,0
1842,282038,1,-1,0
1843,282048,1,-1,0
1844,282058,1,-1,0
1845,282068,1,-1,0
1846,282078,1,-1,0
1847,282088,1,-1,0
1848,282098,1,-1,0
1849,282108,1,-1,0
1850,282118,1,-1,0
1851,282128,1,-1,0
1852,282138,1,-1,0
1853,282148,1,-1,0
1854,282158,1,-1,0
1855,282168,1,-1,0
1856,282178,1,-1,0
1857,282188,1,-1,0
1858,282198,1,-1,0
1859,282208,1,-1,0
1860,282218,1,-1,0
1861,282228,1,-1,0
1862,282238,1,-1,0
1863,282248,1,-1,0
1864,282258,1,-1,0
1865,282268,1,-1,0
1866,282278,1,-1,0
1867,282288,1,-1,0
1868,282298,1,-1,0
1869,282308,1,-1,0
1870,282318,1,-1,0
1871,282328,1,-1,0
1872,282338,1,-1,0
1873,282348,1,-1,0
1874,282358,1,-1,0
1875,282368,1,-1,0
1876,282378,1,-1,0
1877,282388,1,-1,0
1878,282398,1,-1,0
1879,282408,1,-1,0
1880,282418,1,-1,0
1881,282428,1,-1,0
1882,282438,1,-1,0
1883,282448,1,-1,0
1884,282458,1,-1,0
1885,282468,1,-1,0
1886,282478,1,-1,0
1887,282488,1,-1,0
1888,282498,1,-1,0
1889,282508,1,-1,0
1890,282518,1,-1,0
1891,282528,1,-1,0
1892,282538,1,-1,0
1893,282548,1,-1,0
1894,282558,1,-1,0
1895,282568,1,-1,0
1896,282578,1,-1,0
1897,282588,1,-1,0
1898,282598,1,-1,0
1899,282608,1,-1,0
1900,282618,1,-1,0
1901,282628,1,-1,0
1902,282638,1,-2,0
1903,282648,0,-2,0
1904,282658,0,-2,0
1905,282668,1,-2,0
1906,282678,1,-2,0
1907,282688,1,-2,0
1908,282698,1,-2,0
1909,282708,1,-2,0
1910,282718,1,-2,0
1911,282728,1,-2,0
1912,282738,1,-2,0
1913,282748,1,-2,0
1914,282758,1,-2,0
1915,282768,1,-2,0
1916,282778,1,-2,0
1917,282788,1,-2,0
1918,282798,1,-2,0
1919,282808,1,-2,0
1920,282818,0,-2,0
1921,282828,1,-2,0
1922,282838,1,-2,0
1923,282848,0,-2,0
1924,282858,0,-2,0
1925,282868,0,-2,0
1926,282878,1,-2,0
1927,282888,1,-2,0
1928,282898,0,-2,0
1929,282908,0,-2,0
1930,282918,1,-2,0
1931,282928,0,-2,0
1932,282938,0,-2,0
1933,282948,1,-2,0
1934,282958,1,-2,0
1935,282968,1,-2,0
1936,282978,1,-2,0
1937,282988,0,-2,0
1938,282998,0,-2,0
1939,283008,0,-2,0
1940,283018,0,-2,0
1941,283028,0,-2,0
1942,283038,0,-2,0
1943,283048,0,-2,0
1944,283058,0,-2,0
1945,283068,0,-2,0
1946,283078,0,-2,0
1947,283088,0,-2,0
1948,283098,0,-2,0
1949,283108,0,-2,0
1950,283118,0,-2,0
1951,283128,0,-2,0
1952,283138,0,-2,0
1953,283148,0,-2,0
1954,283158,0,-2,0
1955,283168,0,-2,0
1956,283178,0,-2,0
1957,283188,0,-2,0
1958,283198,0,-2,0
1959,283208,0,-2,0
1960,283218,0,-2,0
1961,283228,0,-2,0
1962,283238,0,-1,0
1963,283248,0,-1,0
1964,283258,0,-1,0
1965,283268,0,-1,0
1966,283278,1,-1,0
1967,283288,0,-1,0
1968,283298,0,-1,0
1969,283308,0,-1,0
1970,283318,0,0,0
1971,283328,0,-1,0
1972,283338,1,-1,0
1973,283348,1,-1,0
1974,283358,0,0,0
1975,283368,0,-1,0
1976,283378,0,-1,0
1977,283388,0,-1,0
1978,283398,0,-1,0
1979,283408,0,-1,0
1980,283418,0,-1,0
1981,283428,0,-1,0
1982,283438,0,-1,0
1983,283448,0,-1,0
1984,283458,1,-1,0
1985,283468,1,-1,0
1986,283478,1,-1,0
1987,283488,0,-1,0
1988,283498,1,0,0
1989,283508,0,0,0
1990,283518,0,0,0
1991,283528,0,0,0
1992,283538,0,0,0
1993,283548,0,0,0
1994,283558,0,0,0
1995,283568,0,-1,0
1996,283578,0,-1,0
1997,283588,0,-1,0
1998,283598,0,-1,0
1999,283608,1,-1,0
2000,283618,0,-1,0
2001,283628,0,0,0
2002,283638,0,-1,0
2003,283648,0,-1,0
2004,283658,0,-1,0
2005,283668,0,-1,0
2006,283678,0,-1,0
2007,283688,0,-1,0
2008,283698,0,-1,0
2009,283708,0,-1,0
2010,283718,0,-1,0
2011,283728,0,-1,0
2012,283738,0,-1,0
2013,283748,0,-2,0
2014,283758,0,-2,0
2015,283768,0,-2,0
2016,283778,0,-2,0
2017,283788,0,-2,0
2018,283798,0,-2,0
2019,283808,0,-2,0
2020,283818,0,-2,0
2021,283828,0,-2,0
2022,283838,0,-2,0
2023,283848,0,-2,0
2024,283858,0,-1,0
2025,283868,0,-1,0
2026,283878,0,-1,0
2027,283888,0,-1,0
2028,283898,0,-1,0
2029,283908,0,-1,0
2030,283918,0,-1,0
2031,283928,0,-1,0
2032,283938,1,-1,0
2033,283948,1,-1,0
2034,283958,1,-1,0
2035,283968,0,-1,0
2036,283978,1,-1,0
2037,283988,1,0,0
2038,283998,0,-1,0
2039,284008,1,0,0
2040,284018,1,0,0
2041,284028,1,0,0
2042,284038,0,-1,0
2043,284048,0,0,0
2044,284058,0,0,0
2045,284068,0,0,0
2046,284078,0,0,0
2047,284088,0,0,0
2048,284098,1,0,0
2049,284108,0,0,0
2050,284118,1,0,0
2051,284128,0,0,0
2052,284138,1,0,0
2053,284148,0,0,0
2054,284158,0,0,0
2055,284168,0,0,0
2056,284178,0,0,0
2057,284188,0,0,0
2058,284198,0,0,0
2059,284208,0,0,0
2060,284218,0,0,0
2061,284228,0,0,0
2062,284238,0,0,0
2063,284248,0,-1,0
2064,284258,0,-1,0
2065,284268,0,-1,0
2066,284278,0,-1,0
2067,284288,0,-1,0
2068,284298,0,0,0
2069,284308,0,0,0
2070,284318,0,0,0
2071,284328,0,0,0
2072,284338,0,-1,0
2073,284348,0,0,0
2074,284358,0,-1,0
2075,284368,0,-1,0
2076,284378,0,0,0
2077,284388,0,0,0
2078,284398,0,-1,0
2079,284408,0,-1,0
2080,284418,0,-1,0
2081,284428,0,-1,0
2082,284438,0,-1,0
2083,284448,0,-1,0
2084,284458,0,-1,0
2085,284468,0,-1,0
2086,284478,0,-1,0
2087,284488,0,-1,0
2088,284498,0,-1,0
2089,284508,0,-1,0
2090,284518,0,-2,0
2091,284528,0,-1,0
2092,284538,0,-2,0
2093,284548,0,-2,0
2094,284558,0,-1,0
2095,284568,0,-2,0
2096,284578,0,-1,0
2097,284588,0,-1,0
2098,284598,0,-1,0
2099,284608,0,-1,0
2100,284618,0,0,0
2101,284628,0,-1,0
2102,284638,0,0,0
2103,284648,0,0,0
2104,284658,0,0,0
2105,284668,0,0,0
2106,284678,0,1,0
2107,284688,0,0,0
2108,284698,0,1,0
2109,284708,0,1,0
2110,284718,0,0,0
2111,284728,0,0,0
2112,284738,0,0,0
2113,284748,0,1,0
2114,284758,0,1,0
2115,284768,0,1,0
2116,284778,0,1,0
2117,284788,0,1,0
2118,284798,0,1,0
2119,284808,0,1,0
2120,284818,0,1,0
2121,284828,0,1,0
2122,284838,0,1,0
2123,284848,0,1,0
2124,284858,1,1,0
2125,284868,0,1,0
2126,284878,0,1,0
2127,284888,0,1,0
2128,284898,0,1,0
2129,284908,0,1,0
2130,284918,0,1,0
2131,284928,0,1,0
2132,284938,0,1,0
2133,284948,0,1,0
2134,284958,0,1,0
2135,284968,0,1,0
2136,284978,0,0,0
2137,284988,0,1,0
2138,284998,0,1,0
2139,285008,0,1,0
2140,285018,0,1,0
2141,285028,0,1,0
2142,285038,0,1,0
2143,285048,0,1,0
2144,285058,0,1,0
2145,285068,0,1,0
2146,285078,0,1,0
2147,285088,0,1,0
2148,285098,0,1,0
2149,285108,0,1,0
2150,285118,0,1,0
2151,285128,0,0,0
2152,285138,0,1,0
2153,285148,0,1,0
2154,285158,0,0,0
2155,285168,0,1,0
2156,285178,0,1,0
2157,285188,0,0,0
2158,285198,0,0,0
2159,285208,0,0,0
2160,285218,0,0,0
2161,285228,0,0,0
2162,285238,0,1,0
2163,285248,0,0,0
2164,285258,0,0,0
2165,285268,0,0,0
2166,285278,0,0,0
2167,285288,0,0,0
2168,285298,0,0,0
2169,285308,0,0,0
2170,285318,0,0,0
2171,285328,0,0,0
2172,285338,0,0,0
2173,285348,0,0,0
2174,285358,0,0,0
2175,285368,0,-1,0
2176,285378,0,0,0
2177,285388,0,-1,0
2178,285398,0,0,0
2179,285408,0,-1,0
2180,285418,0,-1,0
2181,285428,0,-1,0
2182,285438,0,-1,0
2183,285448,0,-1,0
2184,285458,0,-1,0
2185,285468,0,-1,0
2186,285478,0,-1,0
2187,285488,0,-1,0
2188,285498,0,-1,0
2189,285508,0,-1,0
2190,285518,0,-1,0
2191,285528,0,-1,0
2192,285538,0,-1,0
2193,285548,0,-1,0
2194,285558,0,-2,0
2195,285568,0,-2,0
2196,285578,0,-2,0
2197,285588,0,-2,0
2198,285598,0,-1,0
2199,285608,0,-1,0
2200,285618,0,-1,0
2201,285628,0,-1,0
2202,285638,0,-1,0
2203,285648,0,-1,0
2204,285658,0,-1,0
2205,285668,0,-1,0
2206,285678,0,-1,0
2207,285688,0,-1,0
2208,285698,0,-1,0
2209,285708,0,-1,0
2210,285718,0,0,0
2211,285728,0,0,0
2212,285738,0,0,0
2213,285748,0,0,0
2214,285758,0,0,0
2215,285768,0,0,0
2216,285778,0,0,0
2217,285788,0,0,0
2218,285798,0,0,0
2219,285808,1,0,0
2220,285818,0,1,0
2221,285828,0,1,0
2222,285838,0,0,0
2223,285848,0,0,0
2224,285858,0,0,0
2225,285868,0,0,0
2226,285878,0,0,0
2227,285888,0,0,0
2228,285898,0,0,0
2229,285908,0,0,0
2230,285918,0,0,0
2231,285928,0,-1,0
2232,285938,0,-1,0
2233,285948,0,-1,0
2234,285958,0,-1,0
2235,285968,0,0,0
2236,285978,0,-1,0
2237,285988,0,-1,0
2238,285998,0,-1,0
2239,286008,0,-1,0
2240,286018,0,-1,0
2241,286028,0,-1,0
2242,286038,0,-1,0
2243,286048,0,-1,0
2244,286058,0,-1,0
2245,286068,0,-1,0
2246,286078,0,-1,0
2247,286088,0,-1,0
2248,286098,0,-2,0
2249,286108,0,-2,0
2250,286118,0,-2,0
2251,286128,0,-2,0
2252,286138,0,-2,0
2253,286148,0,-2,0
2254,286158,0,-2,0
2255,286168,0,-2,0
2256,286178,0,-2,0
2257,286188,0,-2,0
2258,286198,0,-2,0
2259,286208,0,-2,0
2260,286218,0,-2,0
2261,286228,0,-2,0
2262,286238,0,-2,0
2263,286248,0,-2,0
2264,286258,0,-2,0
2265,286268,0,-2,0
2266,286278,0,-1,0
2267,286288,0,-2,0
2268,286298,0,-1,0
2269,286308,0,-1,0
2270,286318,0,-1,0
2271,286328,0,-1,0
2272,286338,0,-1,0
2273,286348,0,-1,0
2274,286358,0,-1,0
2275,286368,0,-1,0
2276,286378,0,-1,0
2277,286388,0,-1,0
2278,286398,0,-1,0
2279,286408,0,-1,0
2280,286418,0,-1,0
2281,286428,0,-1,0
2282,286438,0,-1,0
2283,286448,0,-1,0
2284,286458,0,-1,0
2285,286468,0,-1,0
2286,286478,0,0,0
2287,286488,0,0,0
2288,286498,0,0,0
2289,286508,0,0,0
2290,286518,0,0,0
2291,286528,0,0,0
2292,286538,0,0,0
2293,286548,0,0,0
2294,286558,0,0,0
2295,286568,0,-1,0
2296,286578,0,0,0
2297,286588,0,-1,0
2298,286598,1,-1,0
2299,286608,0,-1,0
2300,286618,0,0,0
2301,286628,0,0,0
2302,286638,0,0,0
2303,286648,0,0,0
2304,286658,0,0,0
2305,286668,0,0,0
2306,286678,0,-1,0
2307,286688,0,-1,0
2308,286698,1,-1,0
2309,286708,0,-1,0
2310,286718,0,-1,0
2311,286728,0,-1,0
2312,286738,0,-2,0
2313,286748,0,-2,0
2314,286758,0,-2,0
2315,286768,0,-2,0
2316,286778,0,-2,0
2317,286788,0,-2,0
2318,286798,0,-2,0
2319,286808,0,-2,0
2320,286818,0,-2,0
2321,286828,0,-2,0
2322,286838,0,-2,0
2323,286848,0,-2,0
2324,286858,0,-2,0
2325,286868,0,-2,0
2326,286878,0,-2,0
2327,286888,0,-2,0
2328,286898,0,-2,0
2329,286908,0,-2,0
2330,286918,0,-2,0
2331,286928,0,-2,0
2332,286938,0,-2,0
2333,286948,0,-2,0
2334,286958,0,-2,0
2335,286968,0,-2,0
2336,286978,0,-2,0
2337,286988,0,-2,0
2338,286998,0,-2,0
2339,287008,0,-2,0
2340,287018,0,-2,0
2341,287028,0,-2,0
2342,287038,0,-2,0
2343,287048,0,-2,0
2344,287058,0,-1,0
2345,287068,0,-1,0
2346,287078,0,-1,0
2347,287088,0,-1,0
2348,287098,0,-1,0
2349,287108,0,-1,0
2350,287118,0,-1,0
2351,287128,0,-1,0
2352,287138,0,-1,0
2353,287148,0,-1,0
2354,287158,0,-1,0
2355,287168,0,-1,0
2356,287178,0,-2,0
2357,287188,0,-1,0
2358,287198,0,-1,0
2359,287208,1,-1,0
2360,287218,0,-1,0
2361,287228,0,-1,0
2362,287238,0,-1,0
2363,287248,0,-2,0
2364,287258,0,-2,0
2365,287268,0,-1,0
2366,287278,0,-1,0
2367,287288,0,-2,0
2368,287298,0,-1,0
2369,287308,0,-1,0
2370,287318,0,-1,0
2371,287328,0,-1,0
2372,287338,0,-1,0
2373,287348,0,-1,0
2374,287358,0,-2,0
2375,287368,0,-2,0
2376,287378,0,-2,0
2377,287388,0,-2,0
2378,287398,0,-2,0
2379,287408,0,-2,0
2380,287418,0,-2,0
2381,287428,0,-1,0
2382,287438,0,-2,0
2383,287448,0,-2,0
2384,287458,0,-2,0
2385,287468,0,-2,0
2386,287478,0,-2,0
2387,287488,0,-2,0
2388,287498,0,-2,0
2389,287508,0,-1,0
2390,287518,0,-2,0
2391,287528,0,-2,0
2392,287538,0,-1,0
2393,287548,0,-1,0
2394,287558,0,-2,0
2395,287568,0,-2,0
2396,287578,0,-2,0
2397,287588,0,-2,0
2398,287598,0,-2,0
2399,287608,0,-2,0
2400,287618,0,-2,0
2401,287628,0,-2,0
2402,287638,0,-2,0
2403,287648,0,-2,0
2404,287658,0,-2,0
2405,287668,0,-2,0
2406,287678,0,-2,0
2407,287688,0,-2,0
2408,287698,0,-2,0
2409,287708,0,-1,0
2410,287718,0,-1,0
2411,287728,0,-2,0
2412,287738,0,-1,0
2413,287748,0,-2,0
2414,287758,-1,-2,0
2415,287768,0,-2,0
2416,287778,0,-1,0
2417,287788,0,-1,0
2418,287798,0,-2,0
2419,287808,0,-1,0
2420,287818,0,-1,0
2421,287828,0,-2,0
2422,287838,0,-2,0
2423,287848,0,-2,0
2424,287858,0,-2,0
2425,287868,0,-2,0
2426,287878,0,-1,0
2427,287888,0,-1,0
2428,287898,0,-2,0
2429,287908,0,-1,0
2430,287918,0,-2,0
2431,287928,0,-1,0
2432,287938,0,-1,0
2433,287948,0,-1,0
2434,287958,0,-1,0
2435,287968,0,-1,0
2436,287978,0,-2,0
2437,287988,0,-2,0
2438,287998,0,-2,0
2439,288008,0,-2,0
2440,288018,0,-2,0
2441,288028,0,-1,0
2442,288038,0,-2,0
2443,288048,0,-2,0
2444,288058,-1,-1,0
2445,288068,-1,-1,0
2446,288078,0,-1,0
2447,288088,-1,-1,0
2448,288098,0,-1,0
2449,288108,0,-1,0
2450,288118,-1,-1,0
2451,288128,-1,-1,0
2452,288138,-1,-1,0
2453,288148,-1,-1,0
2454,288158,-1,-1,0
2455,288168,-1,-1,0
2456,288178,-1,-1,0
2457,288188,-1,-1,0
2458,288198,-1,-1,0
2459,288208,-1,-1,0
2460,288218,-1,-1,0
2461,288228,-1,-1,0
2462,288238,-1,-1,0
2463,288248,-1,-1,0
2464,288258,-1,-1,0
2465,288268,-1,-1,0
2466,288278,-1,-1,0
2467,288288,-1,-1,0
2468,288298,-1,-1,0
2469,288308,0,-1,0
2470,288318,-1,-1,0
2471,288328,0,-1,0
2472,288338,0,-1,0
2473,288348,0,-2,0
2474,288358,0,-1,0
2475,288368,0,-2,0
2476,288378,-1,-2,0
2477,288388,0,-2,0
2478,288398,0,-2,0
2479,288408,0,-1,0
2480,288418,0,-1,0
2481,288428,0,-2,0
2482,288438,0,-2,0
2483,288448,0,-2,0
2484,288458,0,-1,0
2485,288468,0,-1,0
2486,288478,0,-1,0
2487,288488,0,-1,0
2488,288498,0,-1,0
2489,288508,0,-1,0
2490,288518,0,-1,0
2491,288528,0,-1,0
2492,288538,0,-1,0
2493,288548,0,-1,0
2494,288558,-1,-1,0
2495,288568,-1,-1,0
2496,288578,-1,-1,0
2497,288588,-1,-1,0
2498,288598,-1,-1,0
2499,288608,-1,-1,0
2500,288618,-1,-1,0
2501,288628,-1,-1,0
2502,288638,-1,-1,0
2503,288648,-1,-1,0
2504,288658,-1,-1,0
2505,288668,-1,-1,0
2506,288678,-1,-1,0
2507,288688,-1,-1,0
2508,288698,-1,-1,0
2509,288708,-1,-1,0
2510,288718,0,-1,0
2511,288728,-1,-1,0
2512,288738,-1,-1,0
2513,288748,-1,-1,0
2514,288758,-1,-1,0
2515,288768,-1,-1,0
2516,288778,-1,-1,0
2517,288788,-1,-1,0
2518,288798,-1,-1,0
2519,288808,-1,-1,0
2520,288818,-1,-1,0
2521,288828,-1,-2,0
2522,288838,-1,-2,0
2523,288848,-1,-1,0
2524,288858,-1,-2,0
2525,288868,-1,-2,0
2526,288878,-1,-2,0
2527,288888,-1,-2,0
2528,288898,-1,-2,0
2529,288908,-1,-2,0
2530,288918,-1,-2,0
2531,288928,-1,-2,0
2532,288938,-1,-2,0
2533,288948,-1,-2,0
2534,288958,-1,-2,0
2535,288968,-1,-2,0
2536,288978,-1,-2,0
2537,288988,-1,-3,0
2538,288998,-1,-3,0
2539,289008,-1,-2,0
2540,289018,-1,-2,0
2541,289028,-1,-2,0
2542,289038,-1,-2,0
2543,289048,-1,-3,0
2544,289058,-1,-3,0
2545,289068,-1,-2,0
2546,289078,-1,-3,0
2547,289088,-1,-3,0
2548,289098,-1,-3,0
2549,289108,-1,-3,0
2550,289118,-1,-3,0
2551,289128,-1,-2,0
2552,289138,-1,-3,0
2553,289148,-1,-3,0
2554,289158,-1,-3,0
2555,289168,-1,-2,0
2556,289178,-1,-3,0
2557,289188,-1,-2,0
2558,289198,-2,-2,0
2559,289208,-1,-2,0
2560,289218,-1,-2,0
2561,289228,-1,-2,0
2562,289238,-1,-2,0
2563,289248,-1,-1,0
2564,289258,-1,-1,0
2565,289268,-1,-1,0
2566,289278,-1,-1,0
2567,289288,-1,-1,0
2568,289298,-1,0,0
2569,289308,-1,0,0
2570,289318,-1,0,0
2571,289328,-1,0,0
2572,289338,-1,1,0
2573,289348,-1,1,0
2574,289358,-1,0,0
2575,289368,-1,1,0
2576,289378,-1,1,0
2577,289388,-1,1,0
2578,289398,-1,1,0
2579,289408,-1,1,0
2580,289418,-1,1,0
2581,289428,-1,1,0
2582,289438,-1,1,0
2583,289448,-1,1,0
2584,289458,-1,1,0
2585,289468,0,1,0
2586,289478,-1,1,0
2587,289488,-1,1,0
2588,289498,0,1,0
2589,289508,0,1,0
2590,289518,0,1,0
2591,289528,0,1,0
2592,289538,0,0,0
2593,289548,0,0,0
2594,289558,-1,0,0
2595,289568,0,0,0
2596,289578,0,0,0
2597,289588,-1,0,0
2598,289598,-1,0,0
2599,289608,0,0,0
2600,289618,-1,0,0
2601,289628,-1,0,0
2602,289638,0,0,0
2603,289648,0,0,0
2604,289658,0,0,0
2605,289668,0,0,0
2606,289678,0,-1,0
2607,289688,0,0,0
2608,289698,0,-1,0
2609,289708,0,0,0
2610,289718,0,0,0
2611,289728,0,0,0
2612,289738,-1,0,0
2613,289748,-1,-1,0
2614,289758,0,-1,0
2615,289768,0,-1,0
2616,289778,-1,-1,0
2617,289788,-1,-1,0
2618,289798,0,-1,0
2619,289808,-1,-1,0
2620,289818,-1,-1,0
2621,289828,-1,-1,0
2622,289838,-1,-1,0
2623,289848,-1,-2,0
2624,289858,-1,-1,0
2625,289868,-1,-2,0
2626,289878,-1,-2,0
2627,289888,-1,-2,0
2628,289898,-1,-2,0
2629,289908,-1,-2,0
2630,289918,-1,-2,0
2631,289928,-1,-2,0
2632,289938,-1,-2,0
2633,289948,-1,-2,0
2634,289958,-1,-2,0
2635,289968,-1,-2,0
2636,289978,-1,-3,0
2637,289988,-1,-3,0
2638,289998,-1,-3,0
2639,290008,0,-3,0
2640,290018,-1,-3,0
2641,290028,-1,-3,0
2642,290038,-1,-3,0
2643,290048,-1,-3,0
2644,290058,-1,-3,0
2645,290068,-1,-3,0
2646,290078,-1,-3,0
2647,290088,-1,-3,0
2648,290098,-1,-3,0
2649,290108,-1,-3,0
2650,290118,-1,-3,0
2651,290128,-1,-3,0
2652,290138,-1,-3,0
2653,290148,-1,-3,0
2654,290158,-1,-3,0
2655,290168,-1,-3,0
2656,290178,-1,-3,0
2657,290188,-1,-2,0
2658,290198,-1,-2,0
2659,290208,-1,-2,0
2660,290218,-1,-2,0
2661,290228,-1,-3,0
2662,290238,-1,-3,0
2663,290248,-1,-3,0
2664,290258,-1,-3,0
2665,290268,-1,-3,0
2666,290278,-1,-2,0
2667,290288,-1,-2,0
2668,290298,-1,-2,0
2669,290308,-1,-2,0
2670,290318,-1,-2,0
2671,290328,-1,-2,0
2672,290338,-1,-2,0
2673,290348,-1,-2,0
2674,290358,-1,-2,0
2675,290368,-1,-1,0
2676,290378,-1,-1,0
2677,290388,-1,-1,0
2678,290398,-1,-1,0
2679,290408,-1,-1,0
2680,290418,-1,-1,0
2681,290428,-1,-1,0
2682,290438,-1,-1,0
2683,290448,-1,-1,0
2684,290458,-1,-1,0
2685,290468,-1,-1,0
2686,290478,-1,-1,0
2687,290488,-1,0,0
2688,290498,-1,-1,0
2689,290508,0,0,0
2690,290518,0,0,0
2691,290528,0,0,0
2692,290538,0,0,0
2693,290548,0,0,0
2694,290558,0,0,0
2695,290568,0,0,0
2696,290578,0,0,0
2697,290588,0,0,0
2698,290598,0,0,0
2699,290608,0,0,0
2700,290618,0,0,0
2701,290628,0,0,0
2702,290638,0,1,0
2703,290648,0,1,0
2704,290658,0,1,0
2705,290668,0,1,0
2706,290678,0,1,0
2707,290688,0,1,0
2708,290698,0,1,0
2709,290708,0,1,0
2710,290718,0,1,0
2711,290728,0,1,0
2712,290738,0,1,0
2713,290748,0,1,0
2714,290758,0,1,0
2715,290768,0,1,0
2716,290778,0,1,0
2717,290788,0,1,0
2718,290798,0,1,0
2719,290808,0,0,0
2720,290818,0,0,0
2721,290828,0,0,0
2722,290838,0,1,0
2723,290848,0,1,0
2724,290858,0,1,0
2725,290868,0,0,0
2726,290878,0,0,0
2727,290888,0,0,0
2728,290898,0,0,0
2729,290908,0,0,0
2730,290918,0,0,0
2731,290928,0,-1,0
2732,290938,0,-1,0
2733,290948,0,-1,0
2734,290958,0,-1,0
2735,290968,-1,-1,0
2736,290978,0,-1,0
2737,290988,0,-1,0
2738,290998,-1,-1,0
2739,291008,-1,-2,0
2740,291018,0,-2,0
2741,291028,-1,-2,0
2742,291038,-1,-1,0
2743,291048,-1,-2,0
2744,291058,-1,-2,0
2745,291068,0,-2,0
2746,291078,-1,-2,0
2747,291088,-1,-2,0
2748,291098,-1,-2,0
2749,291108,0,-2,0
2750,291118,0,-2,0
2751,291128,-1,-2,0
2752,291138,-1,-2,0
2753,291148,0,-2,0
2754,291158,0,-2,0
2755,291168,-1,-2,0
2756,291178,-1,-2,0
2757,291188,0,-2,0
2758,291198,0,-3,0
2759,291208,-1,-3,0
2760,291218,-1,-3,0
2761,291228,-1,-2,0
2762,291238,-1,-2,0
2763,291248,-1,-2,0
2764,291258,-1,-2,0
2765,291268,-1,-2,0
2766,291278,0,-2,0
2767,291288,0,-2,0
2768,291298,0,-2,0
2769,291308,-1,-2,0
2770,291318,-1,-2,0
2771,291328,0,-2,0
2772,291338,0,-2,0
2773,291348,-1,-1,0
2774,291358,-1,-1,0
2775,291368,-1,-1,0
2776,291378,-1,-1,0
2777,291388,-1,-1,0
2778,291398,0,-1,0
2779,291408,0,-2,0
2780,291418,-1,-1,0
2781,291428,-1,-2,0
2782,291438,0,-1,0
2783,291448,-1,-2,0
2784,291458,0,-2,0
2785,291468,0,-2,0
2786,291478,0,-1,0
2787,291488,0,-1,0
2788,291498,0,-1,0
2789,291508,-1,-2,0
2790,291518,-1,-1,0
2791,291528,0,-1,0
2792,291538,0,-1,0
2793,291548,-1,-1,0
2794,291558,0,-1,0
2795,291568,0,-1,0
2796,291578,0,-1,0
2797,291588,0,-1,0
2798,291598,0,-1,0
2799,291608,0,-1,0
2800,291618,0,-1,0
2801,291628,0,-1,0
2802,291638,0,-1,0
2803,291648,0,-1,0
2804,291658,0,-1,0
2805,291668,0,-1,0
2806,291678,0,-1,0
2807,291688,0,-1,0
2808,291698,0,-1,0
2809,291708,0,-1,0
2810,291718,0,-1,0
2811,291728,0,-1,0
2812,291738,0,-1,0
2813,291748,0,-1,0
2814,291758,-1,-1,0
2815,291768,0,-1,0
2816,291778,0,-1,0
2817,291788,0,-1,0
2818,291798,0,-1,0
2819,291808,0,-1,0
2820,291818,0,-1,0
2821,291828,0,-1,0
2822,291838,0,-1,0
2823,291848,-1,-1,0
2824,291858,0,-1,0
2825,291868,0,-1,0
2826,291878,0,-1,0
2827,291888,0,-1,0
2828,291898,0,-1,0
2829,291908,0,-1,0
2830,291918,0,-1,0
2831,291928,0,-2,0
2832,291938,0,-1,0
2833,291948,0,-1,0
2834,291958,0,-2,0
2835,291968,0,-2,0
2836,291978,0,-2,0
2837,291988,0,-2,0
2838,291998,0,-2,0
2839,292008,0,-2,0
2840,292018,0,-2,0
2841,292028,0,-2,0
2842,292038,0,-2,0
2843,292048,0,-2,0
2844,292058,0,-2,0
2845,292068,0,-2,0
2846,292078,0,-3,0
2847,292088,0,-3,0
2848,292098,0,-2,0
2849,292108,0,-3,0
2850,292118,0,-2,0
2851,292128,0,-2,0
2852,292138,0,-2,0
2853,292148,0,-1,0
2854,292158,0,-1,0
2855,292168,0,-1,0
2856,292178,0,-1,0
2857,292188,0,-1,0
2858,292198,0,-2,0
2859,292208,0,-2,0
2860,292218,-1,-2,0
2861,292228,0,-1,0
2862,292238,-1,-1,0
2863,292248,0,-1,0
2864,292258,0,-1,0
2865,292268,0,-1,0
2866,292278,0,-1,0
2867,292288,0,-2,0
2868,292298,0,-2,0
2869,292308,0,-2,0
2870,292318,0,-2,0
2871,292328,0,-2,0
2872,292338,0,-2,0
2873,292348,0,-2,0
2874,292358,1,-2,0
2875,292368,0,-1,0
2876,292378,0,-1,0
2877,292388,0,-1,0
2878,292398,0,-1,0
2879,292408,0,-1,0
2880,292418,0,0,0
2881,292428,0,0,0
2882,292438,0,-1,0
2883,292448,0,-1,0
2884,292458,0,0,0
2885,292468,0,0,0
2886,292478,0,0,0
2887,292488,1,0,0
2888,292498,0,0,0
2889,292508,0,0,0
2890,292518,0,0,0
2891,292528,0,0,0
2892,292538,0,0,0
2893,292548,0,0,0
2894,292558,0,0,0
2895,292568,0,0,0
2896,292578,0,0,0
2897,292588,0,0,0
2898,292598,1,0,0
2899,292608,0,0,0
2900,292618,0,0,0
2901,292628,1,0,0
2902,292638,0,0,0
2903,292648,0,0,0
2904,292658,0,-1,0
2905,292668,0,-1,0
2906,292678,0,-1,0
2907,292688,0,-1,0
2908,292698,0,-1,0
2909,292708,0,-1,0
2910,292718,0,-1,0
2911,292728,0,-1,0
2912,292738,1,-1,0
2913,292748,0,-2,0
2914,292758,0,-1,0
2915,292768,0,-2,0
2916,292778,0,-2,0
2917,292788,15,0,0
2918,292798,65,1,0
2919,292808,-1,-1,0
2920,292818,-1,-2,0
2921,292828,-1,-3,0
2922,292838,-3,-4,0
2923,292848,-2,-1,0
2924,292858,-2,-2,0
2925,292868,-4,-2,0
2926,292878,-2,-2,0
2927,292888,-1,-3,0
2928,292898,0,-3,0
2929,292908,0,-2,0
2930,292918,-1,-2,0
2931,292928,-1,-2,0
2932,292938,-24,-6,0
2933,292948,-42,-8,0
2934,292958,-6,-4,0
2935,292968,2,-4,0
2936,292978,3,-4,0
2937,292988,2,-3,0
2938,292998,3,-2,0
2939,293008,2,-1,0
2940,293018,2,-1,0
2941,293028,2,-2,0
2942,293038,2,-1,0
2943,293048,2,-1,0
2944,293058,2,-1,0
2945,293068,2,-1,0
2946,293078,2,-1,0
2947,293088,2,-1,0
2948,293098,2,-1,0
2949,293108,1,0,0
2950,293118,1,-1,0
2951,293128,1,-1,0
2952,293138,1,-1,0
2953,293148,1,-1,0
2954,293158,1,-1,0
2955,293168,1,0,0
2956,293178,1,0,0
2957,293188,1,0,0
2958,293198,1,0,0
2959,293208,1,0,0
2960,293218,1,-1,0
2961,293228,2,-1,0
2962,293238,2,-1,0
2963,293248,2,-1,0
2964,293258,2,-1,0
2965,293268,1,-1,0
2966,293278,1,-1,0
2967,293288,1,-1,0
2968,293298,2,-1,0
2969,293308,1,-1,0
2970,293318,1,-1,0
2971,293328,0,-1,0
2972,293338,0,0,0
2973,293348,0,0,0
2974,293358,0,0,0
2975,293368,0,0,0
2976,293378,0,0,0
2977,293388,0,0,0
2978,293398,1,0,0
2979,293408,0,0,0
2980,293418,1,0,0
2981,293428,0,0,0
2982,293438,0,0,0
2983,293448,0,1,0
2984,293458,0,0,0
2985,293468,0,0,0
2986,293478,0,1,0
2987,293488,0,0,0
2988,293498,0,1,0
2989,293508,0,0,0
2990,293518,0,0,0
2991,293528,0,0,0
2992,293538,0,0,0
2993,293548,0,0,0
2994,293558,0,0,0
2995,293568,0,0,0
2996,293578,0,0,0
2997,293588,0,-1,0
2998,293598,0,-1,0
2999,293608,0,0,0
3000,293618,0,0,0
3001,293628,0,0,0
3002,293638,0,0,0
3003,293648,0,0,0
3004,293658,0,0,0
3005,293668,0,0,0
3006,293678,-1,0,0
3007,293688,-1,0,0
3008,293698,-1,0,0
3009,293708,-1,0,0
3010,293718,-1,0,0
3011,293728,-1,0,0
3012,293738,-1,0,0
3013,293748,-1,-1,0
3014,293758,-2,-1,0
3015,293768,-1,0,0
3016,293778,-1,0,0
3017,293788,-1,0,0
3018,293798,-1,0,0
3019,293808,-1,0,0
3020,293818,-1,0,0
3021,293828,-1,0,0
3022,293838,-1,0,0
3023,293848,-1,0,0
3024,293858,-2,-1,0
3025,293868,-2,0,0
3026,293878,-2,0,0
3027,293888,-2,-1,0
3028,293898,-3,-1,0
3029,293908,-3,-1,0
3030,293918,-3,-1,0
3031,293928,-4,-1,0
3032,293938,-3,-1,0
3033,293948,-3,-1,0
3034,293958,-3,-1,0
3035,293968,-4,0,0
3036,293978,-5,0,0
3037,293988,-6,0,0
3038,293998,-6,-1,0
3039,294008,-6,-1,0
3040,294018,-7,0,0
3041,294028,-8,0,0
3042,294038,-9,0,0
3043,294048,-12,0,0
3044,294058,-8,0,0
3045,294068,-7,-1,0
3046,294078,-5,-1,0
3047,294088,-4,-1,0
3048,294098,-4,-1,0
3049,294108,-1,-1,0
3050,294118,0,-1,0
3051,294128,-1,-1,0
3052,294138,-1,0,0
3053,294148,1,1,0
3054,294158,2,1,0
3055,294168,2,1,0
3056,294178,1,1,0
3057,294188,0,1,0
3058,294198,-1,0,0
3059,294208,-3,-1,0
3060,294218,-4,-2,0
3061,294228,-3,-1,0
3062,294238,0,-1,0
3063,294248,1,-1,0
3064,294258,0,-1,0
3065,294268,-1,-1,0
3066,294278,-1,-1,0
3067,294288,-3,-1,0
3068,294298,-5,-1,0
3069,294308,-5,-1,0
3070,294318,-5,-1,0
3071,294328,-5,-1,0
3072,294338,-4,-1,0
3073,294348,-3,-1,0
3074,294358,-3,0,0
3075,294368,-2,0,0
3076,294378,-3,0,0
3077,294388,-3,0,0
3078,294398,-3,1,0
3079,294408,-3,1,0
3080,294418,-3,1,0
3081,294428,-3,0,0
3082,294438,-2,0,0
3083,294448,-2,0,0
3084,294458,-2,-1,0
3085,294468,-1,-1,0
3086,294478,-1,-1,0
3087,294488,-2,-1,0
3088,294498,-3,-2,0
3089,294508,-2,-3,0
3090,294518,-2,-3,0
3091,294528,-2,-2,0
3092,294538,-3,-2,0
3093,294548,-3,-2,0
3094,294558,-3,-2,0
3095,294568,-2,-2,0
3096,294578,-2,-1,0
3097,294588,-1,-1,0
3098,294598,-1,-1,0
3099,294608,-1,-1,0
3100,294618,-4,-1,0
3101,294628,-4,-1,0
3102,294638,-2,0,0
3103,294648,-2,0,0
3104,294658,-2,-1,0
3105,294668,-2,-1,0
3106,294678,-1,-1,0
3107,294688,-1,-1,0
3108,294698,-2,0,0
3109,294708,-2,0,0
3110,294718,-2,-1,0
3111,294728,-2,0,0
3112,294738,-2,0,0
3113,294748,-2,0,0
3114,294758,-2,0,0
3115,294768,-2,0,0
3116,294778,-2,0,0
3117,294788,-2,0,0
3118,294798,-2,0,0
3119,294808,-2,0,0
3120,294818,-1,0,0
3121,294828,-1,0,0
3122,294838,-1,0,0
3123,294848,-2,0,0
3124,294858,-1,0,0
3125,294868,-2,0,0
3126,294878,-2,0,0
3127,294888,-2,-1,0
3128,294898,-1,-1,0
3129,294908,-1,-1,0
3130,294918,-1,-1,0
3131,294928,-1,-1,0
3132,294938,-2,-1,0
3133,294948,-2,0,0
3134,294958,-2,-1,0
3135,294968,-2,-1,0
3136,294978,-1,-1,0
3137,294988,-1,-1,0
3138,294998,-1,-1,0
3139,295008,-2,0,0
3140,295018,-1,-1,0
3141,295028,-2,-1,0
3142,295038,-1,0,0
3143,295048,-2,0,0
3144,295058,-2,0,0
3145,295068,-2,0,0
3146,295078,-2,0,0
3147,295088,-2,0,0
3148,295098,-2,0,0
3149,295108,-2,0,0
3150,295118,-2,0,0
3151,295128,-2,0,0
3152,295138,-2,0,0
3153,295148,-2,0,0
3154,295158,-2,0,0
3155,295168,-2,-1,0
3156,295178,-2,-1,0
3157,295188,-2,-1,0
3158,295198,-2,-1,0
3159,295208,-1,-1,0
3160,295218,-2,-1,0
3161,295228,-2,-1,0
3162,295238,-2,-1,0
3163,295248,-2,-1,0
3164,295258,-2,-1,0
3165,295268,-2,-1,0
3166,295278,-2,-1,0
3167,295288,-2,-1,0
3168,295298,-2,-1,0
3169,295308,-2,-1,0
3170,295318,-2,-1,0
3171,295328,-2,-1,0
3172,295338,-2,-1,0
3173,295348,-2,-1,0
3174,295358,-2,-1,0
3175,295368,-2,-1,0
3176,295378,-2,-1,0
3177,295388,-2,0,0
3178,295398,-2,0,0
3179,295408,-2,0,0
3180,295418,-2,0,0
3181,295428,-2,0,0
3182,295438,-2,0,0
3183,295448,-2,0,0
3184,295458,-2,0,0
3185,295468,-2,0,0
3186,295478,-2,0,0
3187,295488,-2,0,0
3188,295498,-2,0,0
3189,295508,-2,0,0
3190,295518,-2,0,0
3191,295528,-2,0,0
3192,295538,-2,0,0
3193,295548,-2,0,0
3194,295558,-2,0,0
3195,295568,-2,0,0
3196,295578,-2,0,0
3197,295588,-2,0,0
3198,295598,-2,0,0
3199,295608,-2,-1,0
3200,295618,-2,0,0
3201,295628,-2,0,0
3202,295638,-2,0,0
3203,295648,-2,0,0
3204,295658,-2,0,0
3205,295668,-2,0,0
3206,295678,-2,0,0
3207,295688,-2,-1,0
3208,295698,-2,0,0
3209,295708,-2,0,0
3210,295718,-2,0,0
3211,295728,-2,0,0
3212,295738,-2,0,0
3213,295748,-2,0,0
3214,295758,-2,0,0
3215,295768,-2,0,0
3216,295778,-2,0,0
3217,295788,-2,0,0
3218,295798,-2,0,0
3219,295808,-2,0,0
3220,295818,-2,-1,0
3221,295828,-2,0,0
3222,295838,-2,-1,0
3223,295848,-2,0,0
3224,295858,-2,-1,0
3225,295868,-1,-1,0
3226,295878,-2,-1,0
3227,295888,-2,-1,0
3228,295898,-1,-1,0
3229,295908,-1,-1,0
3230,295918,-2,-1,0
3231,295928,-2,-1,0
3232,295938,-1,-1,0
3233,295948,-1,-1,0
3234,295958,-1,-1,0
3235,295968,-1,-1,0
3236,295978,-1,-1,0
3237,295988,-1,-1,0
3238,295998,-2,-1,0
3239,296008,-2,-1,0
3240,296018,-2,-1,0
3241,296028,-1,-1,0
3242,296038,-2,-1,0
3243,296048,-1,-1,0
3244,296058,-1,-1,0
3245,296068,-2,-1,0
3246,296078,-2,-1,0
3247,296088,-2,-1,0
3248,296098,-2,-1,0
3249,296108,-2,-1,0
3250,296118,-1,-1,0
3251,296128,-1,-1,0
3252,296138,-2,-1,0
3253,296148,-2,-1,0
3254,296158,-2,-1,0
3255,296168,-1,-1,0
3256,296178,-2,-1,0
3257,296188,-2,-1,0
3258,296198,-1,-1,0
3259,296208,-2,-1,0
3260,296218,-2,-1,0
3261,296228,-2,-1,0
3262,296238,-2,-1,0
3263,296248,-2,-1,0
3264,296258,-2,-1,0
3265,296268,-2,-1,0
3266,296278,-2,-1,0
3267,296288,-2,-1,0
3268,296298,-2,-1,0
3269,296308,-2,-1,0
3270,296318,-2,-1,0
3271,296328,-2,-1,0
3272,296338,-2,-1,0
3273,296348,-1,-1,0
3274,296358,-2,-1,0
3275,296368,-2,-1,0
3276,296378,-1,-1,0
3277,296388,-1,-1,0
3278,296398,-2,-1,0
3279,296408,-2,-1,0
3280,296418,-1,-1,0
3281,296428,-1,-1,0
3282,296438,-2,-1,0
3283,296448,-2,-1,0
3284,296458,-2,-1,0
3285,296468,-2,-1,0
3286,296478,-2,-1,0
3287,296488,-2,-1,0
3288,296498,-1,-1,0
3289,296508,-2,-1,0
3290,296518,-2,-1,0
3291,296528,-2,-2,0
3292,296538,-2,-1,0
3293,296548,-2,-1,0
3294,296558,-2,-1,0
3295,296568,-2,-1,0
3296,296578,-2,-1,0
3297,296588,-2,-2,0
3298,296598,-2,-1,0
3299,296608,-2,-1,0
3300,296618,-2,-1,0
3301,296628,-1,-1,0
3302,296638,-2,-1,0
3303,296648,-2,-1,0
3304,296658,-2,-1,0
3305,296668,-2,-1,0
3306,296678,-1,-1,0
3307,296688,-2,-1,0
3308,296698,-2,-1,0
3309,296708,-2,-1,0
3310,296718,-2,-1,0
3311,296728,-2,-1,0
3312,296738,-1,-1,0
3313,296748,-1,-1,0
3314,296758,-2,-1,0
3315,296768,-1,-1,0
3316,296778,-2,-1,0
3317,296788,-1,-1,0
3318,296798,-2,-1,0
3319,296808,-2,-1,0
3320,296818,-2,-1,0
3321,296828,-2,-1,0
3322,296838,-2,-1,0
3323,296848,-2,-1,0
3324,296858,-2,-1,0
3325,296868,-2,-1,0
3326,296878,-2,-1,0
3327,296888,-2,-1,0
3328,296898,-2,-1,0
3329,296908,-2,-1,0
3330,296918,-2,-1,0
3331,296928,-2,-1,0
3332,296938,-1,-1,0
3333,296948,-2,-1,0
3334,296958,-2,-1,0
3335,296968,-2,-1,0
3336,296978,-2,-1,0
3337,296988,-2,-1,0
3338,296998,-2,-1,0
3339,297008,-2,-1,0
3340,297018,-2,-1,0
3341,297028,-2,-1,0
3342,297038,-2,-1,0
3343,297048,-2,-1,0
3344,297058,-2,-1,0
3345,297068,-2,-1,0
3346,297078,-2,-1,0
3347,297088,-2,-1,0
3348,297098,-1,-1,0
3349,297108,-2,-1,0
3350,297118,-1,-1,0
3351,297128,-1,-1,0
3352,297138,-1,0,0
3353,297148,-2,-1,0
3354,297158,-1,-1,0
3355,297168,-1,-1,0
3356,297178,-1,-1,0
3357,297188,-2,-1,0
3358,297198,-2,0,0
3359,297208,-1,-1,0
3360,297218,-2,-1,0
3361,297228,-2,0,0
3362,297238,-2,-1,0
3363,297248,-2,-1,0
3364,297258,-2,0,0
3365,297268,-2,0,0
3366,297278,-2,-1,0
3367,297288,-2,-1,0
3368,297298,-2,-1,0
3369,297308,-2,-1,0
3370,297318,-2,-1,0
3371,297328,-2,-1,0
3372,297338,-2,-1,0
3373,297348,-1,-1,0
3374,297358,-2,-1,0
3375,297368,-2,-1,0
3376,297378,-2,-1,0
3377,297388,-2,-1,0
3378,297398,-2,-1,0
3379,297408,-2,-1,0
3380,297418,-2,-1,0
3381,297428,-2,-1,0
3382,297438,-2,-1,0
3383,297448,-2,-1,0
3384,297458,-2,-1,0
3385,297468,-2,-1,0
3386,297478,-2,-1,0
3387,297488,-1,-1,0
3388,297498,-2,-1,0
3389,297508,-2,-1,0
3390,297518,-2,-1,0
3391,297528,-1,-1,0
3392,297538,-2,-1,0
3393,297548,-2,-1,0
3394,297558,-2,-1,0
3395,297568,-2,-1,0
3396,297578,-2,-1,0
3397,297588,-2,-1,0
3398,297598,-2,-1,0
3399,297608,-2,-1,0
3400,297618,-2,-1,0
3401,297628,-1,-1,0
3402,297638,-2,-1,0
3403,297648,-2,-1,0
3404,297658,-2,-1,0
3405,297668,-1,-1,0
3406,297678,-2,-1,0
3407,297688,-2,-1,0
3408,297698,-2,-1,0
3409,297708,-2,-1,0
3410,297718,-1,-1,0
3411,297728,-1,-2,0
3412,297738,-1,-1,0
3413,297748,-2,-1,0
3414,297758,-2,-1,0
3415,297768,-2,-1,0
3416,297778,-2,-1,0
3417,297788,-1,-2,0
3418,297798,-1,-1,0
3419,297808,-2,-1,0
3420,297818,-2,-2,0
3421,297828,-2,-1,0
3422,297838,-1,-1,0
3423,297848,-2,-1,0
3424,297858,-2,-1,0
3425,297868,-2,-1,0
3426,297878,-2,-1,0
3427,297888,-1,-2,0
3428,297898,-1,-2,0
3429,297908,-2,-1,0
3430,297918,-2,-2,0
3431,297928,-2,-2,0
3432,297938,-2,-1,0
3433,297948,-2,-2,0
3434,297958,-2,-1,0
3435,297968,-2,-2,0
3436,297978,-1,-2,0
3437,297988,-2,-2,0
3438,297998,-2,-2,0
3439,298008,-2,-2,0
3440,298018,-2,-2,0
3441,298028,-2,-1,0
3442,298038,-1,-2,0
3443,298048,-1,-2,0
3444,298058,-2,-1,0
3445,298068,-2,-1,0
3446,298078,-2,-1,0
3447,298088,-2,-1,0
3448,298098,-2,-2,0
3449,298108,-2,-2,0
3450,298118,-2,-1,0
3451,298128,-1,-1,0
3452,298138,-1,-2,0
3453,298148,-2,-2,0
3454,298158,-2,-1,0
3455,298168,-1,-2,0
3456,298178,-2,-1,0
3457,298188,-1,-1,0
3458,298198,-2,-1,0
3459,298208,-1,-1,0
3460,298218,-2,-2,0
3461,298228,-2,-1,0
3462,298238,-2,-2,0
3463,298248,-1,-1,0
3464,298258,-1,-1,0
3465,298268,-1,-2,0
3466,298278,-2,-1,0
3467,298288,-2,-2,0
3468,298298,-1,-1,0
3469,298308,-1,-1,0
3470,298318,-1,-2,0
3471,298328,-1,-1,0
3472,298338,-1,-1,0
3473,298348,-1,-1,0
3474,298358,-2,-1,0
3475,298368,-2,-1,0
3476,298378,-1,-1,0
3477,298388,-2,-1,0
3478,298398,-1,-1,0
3479,298408,-2,-1,0
3480,298418,-1,-1,0
3481,298428,-2,-1,0
3482,298438,-2,-1,0
3483,298448,-2,-1,0
3484,298458,-2,-1,0
3485,298468,-1,-1,0
3486,298478,-2,-1,0
3487,298488,-1,-1,0
3488,298498,-1,-1,0
3489,298508,-1,-1,0
3490,298518,-2,-1,0
3491,298528,-2,-1,0
3492,298538,-2,-1,0
3493,298548,-2,-1,0
3494,298558,-2,-1,0
3495,298568,-2,-1,0
3496,298578,-2,-1,0
3497,298588,-1,-1,0
3498,298598,-1,-1,0
3499,298608,-2,-1,0
3500,298618,-2,-1,0
3501,298628,-2,-1,0
3502,298638,-2,-1,0
3503,298648,-1,-1,0
3504,298658,-1,-1,0
3505,298668,-1,-1,0
3506,298678,-2,-1,0
3507,298688,-1,-1,0
3508,298698,-2,-1,0
3509,298708,-2,-1,0
3510,298718,-2,-1,0
3511,298728,-2,-1,0
3512,298738,-2,-1,0
3513,298748,-1,-1,0
3514,298758,-2,-1,0
3515,298768,-1,-1,0
3516,298778,-2,-1,0
3517,298788,-2,-1,0
3518,298798,-1,-1,0
3519,298808,-2,-1,0
3520,298818,-1,-1,0
3521,298828,-2,-1,0
3522,298838,-1,-1,0
3523,298848,-2,-1,0
3524,298858,-1,-1,0
3525,298868,-2,-1,0
3526,298878,-2,-1,0
3527,298888,-1,-1,0
3528,298898,-2,-1,0
3529,298908,-2,-1,0
3530,298918,-2,-1,0
3531,298928,-2,-1,0
3532,298938,-2,-1,0
3533,298948,-2,-1,0
3534,298958,-1,-2,0
3535,298968,-1,-1,0
3536,298978,-1,-1,0
3537,298988,-2,-1,0
3538,298998,-1,-1,0
3539,299008,-1,-1,0
3540,299018,-1,-1,0
3541,299028,-2,-1,0
3542,299038,-1,-1,0
3543,299048,-1,-1,0
3544,299058,-1,-1,0
3545,299068,-1,-1,0
3546,299078,-2,-1,0
3547,299088,-1,-1,0
3548,299098,-1,-1,0
3549,299108,-2,-1,0
3550,299118,-2,-1,0
3551,299128,-2,-1,0
3552,299138,-2,-1,0
3553,299148,-2,-1,0
3554,299158,-1,-1,0
3555,299168,-2,-1,0
3556,299178,-1,-1,0
3557,299188,-2,-1,0
3558,299198,-1,-1,0
3559,299208,-2,-1,0
3560,299218,-2,-1,0
3561,299228,-2,-1,0
3562,299238,-1,-1,0
3563,299248,-1,-1,0
3564,299258,-1,-1,0
3565,299268,-2,-1,0
3566,299278,-1,-1,0
3567,299288,-1,-1,0
3568,299298,-1,-1,0
3569,299308,-2,-1,0
3570,299318,-2,-1,0
3571,299328,-1,-1,0
3572,299338,-1,-1,0
3573,299348,-2,-1,0
3574,299358,-1,-1,0
3575,299368,-2,-1,0
3576,299378,-2,-1,0
3577,299388,-2,-1,0
3578,299398,-2,-1,0
3579,299408,-2,-1,0
3580,299418,-2,-1,0
3581,299428,-2,-1,0
3582,299438,-1,-1,0
3583,299448,-1,-1,0
3584,299458,-1,-1,0
3585,299468,-2,-1,0
3586,299478,-2,-1,0
3587,299488,-2,-1,0
3588,299498,-2,-1,0
3589,299508,-2,-1,0
3590,299518,-2,-1,0
3591,299528,-2,-1,0
3592,299538,-2,-1,0
3593,299548,-1,-1,0
3594,299558,-1,-1,0
3595,299568,-1,-1,0
3596,299578,-1,-1,0
3597,299588,-1,-1,0
3598,299598,-2,-1,0
3599,299608,-2,-1,0
3600,299618,-1,-1,0
3601,299628,-1,-1,0
3602,299638,-1,-1,0
3603,299648,-2,-1,0
3604,299658,-1,-1,0
3605,299668,-1,-1,0
3606,299678,-1,-1,0
3607,299688,-2,-2,0
3608,299698,-2,-2,0
3609,299708,-1,-1,0
3610,299718,-1,-2,0
3611,299728,-1,-2,0
3612,299738,-1,-1,0
3613,299748,-1,-1,0
3614,299758,-2,-1,0
3615,299768,-1,-1,0
3616,299778,-1,-1,0
3617,299788,-1,-1,0
3618,299798,-1,-1,0
3619,299808,-1,-1,0
3620,299818,-2,-1,0
3621,299828,-2,-1,0
3622,299838,-2,-1,0
3623,299848,-1,-1,0
3624,299858,-2,-1,0
3625,299868,-1,-1,0
3626,299878,-1,-1,0
3627,299888,-1,-1,0
3628,299898,-1,-1,0
3629,299908,-1,-1,0
3630,299918,-1,-1,0
3631,299928,-2,-1,0
3632,299938,-1,-1,0
3633,299948,-2,-1,0
3634,299958,-1,-1,0
3635,299968,-1,-1,0
3636,299978,-2,-1,0
3637,299988,-1,-1,0
3638,299998,-2,-1,0
3639,300008,-1,-1,0
3640,300018,-1,-1,0
3641,300028,-2,-1,0
3642,300038,-2,-1,0
3643,300048,-1,-1,0
3644,300058,-1,-1,0
3645,300068,-2,-1,0
3646,300078,-1,-1,0
3647,300088,-1,-1,0
3648,300098,-1,-1,0
3649,300108,-1,-1,0
3650,300118,-1,-1,0
3651,300128,-1,-1,0
3652,300138,-2,-1,0
3653,300148,-2,-1,0
3654,300158,-2,-1,0
3655,300168,-2,-1,0
3656,300178,-1,-1,0
3657,300188,-1,-2,0
3658,300198,-1,-1,0
3659,300208,-1,-1,0
3660,300218,-2,-1,0
3661,300228,-2,-1,0
3662,300238,-2,-1,0
3663,300248,-2,-1,0
3664,300258,-2,-1,0
3665,300268,-2,-1,0
3666,300278,-2,-1,0
3667,300288,-2,-1,0
3668,300298,-1,-1,0
3669,300308,-2,-1,0
3670,300318,-1,-1,0
3671,300328,-2,-1,0
3672,300338,-2,-1,0
3673,300348,-2,-1,0
3674,300358,-1,-1,0
3675,300368,-1,-1,0
3676,300378,-2,-1,0
3677,300388,-1,-1,0
3678,300398,-2,-2,0
3679,300408,-1,-2,0
3680,300418,-1,-2,0
3681,300428,-1,-2,0
3682,300438,-2,-2,0
3683,300448,-2,-2,0
3684,300458,-1,-1,0
3685,300468,-1,-1,0
3686,300478,-2,-2,0
3687,300488,-2,-2,0
3688,300498,-1,-2,0
3689,300508,-1,-2,0
3690,300518,-2,-2,0
3691,300528,-2,-2,0
3692,300538,-1,-1,0
3693,300548,-1,-1,0
3694,300558,-2,-2,0
3695,300568,-1,-2,0
3696,300578,-2,-1,0
3697,300588,-2,-1,0
3698,300598,-1,-1,0
3699,300608,-1,-2,0
3700,300618,-1,-2,0
3701,300628,-2,-2,0
3702,300638,-2,-2,0
3703,300648,-2,-1,0
3704,300658,-1,-2,0
3705,300668,-1,-2,0
3706,300678,-2,-2,0
3707,300688,-1,-1,0
3708,300698,-1,-1,0
3709,300708,-1,-2,0
3710,300718,-2,-1,0
3711,300728,-2,-2,0
3712,300738,-2,-2,0
3713,300748,-1,-1,0
3714,300758,-1,-1,0
3715,300768,-2,-1,0
3716,300778,-1,-1,0
3717,300788,-1,-1,0
3718,300798,-2,-1,0
3719,300808,-2,-1,0
3720,300818,-2,-1,0
3721,300828,-2,-1,0
3722,300838,-2,-2,0
3723,300848,-2,-1,0
3724,300858,-2,-2,0
3725,300868,-1,-1,0
3726,300878,-2,-1,0
3727,300888,-2,-1,0
3728,300898,-2,-1,0
3729,300908,-2,-1,0
3730,300918,-2,-1,0
3731,300928,-1,-1,0
3732,300938,-2,-1,0
3733,300948,-1,-2,0
3734,300958,-2,-1,0
3735,300968,-1,-1,0
3736,300978,-2,-1,0
3737,300988,-2,-1,0
3738,300998,-2,-1,0
3739,301008,-2,-1,0
3740,301018,-2,-1,0
3741,301028,-1,-1,0
3742,301038,-2,-1,0
3743,301048,-2,-1,0
3744,301058,-1,-1,0
3745,301068,-1,-1,0
3746,301078,-1,-1,0
3747,301088,-2,-1,0
3748,301098,-2,-1,0
3749,301108,-1,-1,0
3750,301118,-2,-1,0
3751,301128,-1,-1,0
3752,301138,-2,-1,0
3753,301148,-1,-1,0
3754,301158,-1,-1,0
3755,301168,-1,-1,0
3756,301178,-1,-1,0
3757,301188,-1,-1,0
3758,301198,-2,-1,0
3759,301208,-1,-1,0
3760,301218,-2,-1,0
3761,301228,-2,-1,0
3762,301238,-2,-1,0
3763,301248,-1,-1,0
3764,301258,-1,-1,0
3765,301268,-2,-1,0
3766,301278,-2,-1,0
3767,301288,-2,-1,0
3768,301298,-1,-1,0
3769,301308,-1,-1,0
3770,301318,-2,-1,0
3771,301328,-2,-1,0
3772,301338,-2,-1,0
3773,301348,-2,-1,0
3774,301358,-2,-1,0
3775,301368,-2,-1,0
3776,301378,-2,-1,0
3777,301388,-2,-1,0
3778,301398,-2,-1,0
3779,301408,-2,-1,0
3780,301418,-1,-1,0
3781,301428,-1,-1,0
3782,301438,-1,-1,0
3783,301448,-2,-1,0
3784,301458,-2,-1,0
3785,301468,-1,-1,0
3786,301478,-2,-1,0
3787,301488,-2,-1,0
3788,301498,-2,-1,0
3789,301508,-2,-1,0
3790,301518,-2,-1,0
3791,301528,-2,-1,0
3792,301538,-2,-1,0
3793,301548,-2,-1,0
3794,301558,-1,-1,0
3795,301568,-2,-1,0
3796,301578,-2,-1,0
3797,301588,-2,-1,0
3798,301598,-1,-1,0
3799,301608,-1,-1,0
3800,301618,-1,-1,0
3801,301628,-1,-1,0
3802,301638,-2,-1,0
3803,301648,-1,-1,0
3804,301658,-2,-1,0
3805,301668,-2,-1,0
3806,301678,-2,-1,0
3807,301688,-1,-1,0
3808,301698,-1,-1,0
3809,301708,-2,-1,0
3810,301718,-2,-1,0
3811,301728,-2,-1,0
3812,301738,-2,-1,0
3813,301748,-2,-1,0
3814,301758,-2,-1,0
3815,301768,-2,-1,0
3816,301778,-2,-1,0
3817,301788,-1,-1,0
3818,301798,-1,-1,0
3819,301808,-2,-1,0
3820,301818,-2,-1,0
3821,301828,-1,-1,0
3822,301838,-2,-1,0
3823,301848,-1,-1,0
3824,301858,-2,-1,0
3825,301868,-2,-1,0
3826,301878,-2,-1,0
3827,301888,-2,-1,0
3828,301898,-1,-1,0
3829,301908,-2,-1,0
3830,301918,-2,-1,0
3831,301928,-2,-1,0
3832,301938,-1,-1,0
3833,301948,-2,-1,0
3834,301958,-1,-1,0
3835,301968,-2,-1,0
3836,301978,-2,-1,0
3837,301988,-2,-1,0
3838,301998,-2,-1,0
3839,302008,-2,-1,0
3840,302018,-2,-1,0
3841,302028,-2,-1,0
3842,302038,-1,-1,0
3843,302048,-1,-1,0
3844,302058,-1,-1,0
3845,302068,-1,-1,0
3846,302078,-2,-1,0
3847,302088,-2,-1,0
3848,302098,-1,-1,0
3849,302108,-2,-1,0
3850,302118,-2,-1,0
3851,302128,-2,-1,0
3852,302138,-2,-1,0
3853,302148,-2,-1,0
3854,302158,-1,-1,0
3855,302168,-1,-1,0
3856,302178,-2,-1,0
3857,302188,-2,-1,0
3858,302198,-2,-1,0
3859,302208,-2,-1,0
3860,302218,-2,-1,0
3861,302228,-2,-1,0
3862,302238,-2,-1,0
3863,302248,-2,-1,0
3864,302258,-2,-1,0
3865,302268,-2,-1,0
3866,302278,-2,-1,0
3867,302288,-2,-1,0
3868,302298,-2,-1,0
3869,302308,-2,-1,0
3870,302318,-2,-1,0
3871,302328,-2,-1,0
3872,302338,-2,-1,0
3873,302348,-1,-1,0
3874,302358,-2,-1,0
3875,302368,-2,-1,0
3876,302378,-2,-2,0
3877,302388,-2,-2,0
3878,302398,-2,-2,0
3879,302408,-2,-1,0
3880,302418,-2,-2,0
3881,302428,-2,-2,0
3882,302438,-2,-1,0
3883,302448,-2,-1,0
3884,302458,-1,-1,0
3885,302468,-2,-1,0
3886,302478,-2,-1,0
3887,302488,-1,-1,0
3888,302498,-2,-1,0
3889,302508,-2,-1,0
3890,302518,-1,-1,0
3891,302528,-2,-1,0
3892,302538,-2,-2,0
3893,302548,-2,-2,0
3894,302558,-2,-2,0
3895,302568,-2,-1,0
3896,302578,-2,-1,0
3897,302588,-1,-2,0
3898,302598,-2,-1,0
3899,302608,-1,-2,0
3900,302618,-2,-2,0
3901,302628,-2,-2,0
3902,302638,-1,-2,0
3903,302648,-1,-1,0
3904,302658,-2,-1,0
3905,302668,-1,-1,0
3906,302678,-2,-1,0
3907,302688,-1,-1,0
3908,302698,-2,-1,0
3909,302708,-1,-1,0
3910,302718,-2,-1,0
3911,302728,-1,-1,0
3912,302738,-1,-1,0
3913,302748,-2,-1,0
3914,302758,-2,-1,0
3915,302768,-1,-1,0
3916,302778,-2,-1,0
3917,302788,-2,-1,0
3918,302798,-1,-1,0
3919,302808,-2,-1,0
3920,302818,-2,-1,0
3921,302828,-2,-1,0
3922,302838,-2,-1,0
3923,302848,-2,-1,0
3924,302858,-2,-1,0
3925,302868,-1,-1,0
3926,302878,-2,-1,0
3927,302888,-1,-1,0
3928,302898,-2,-1,0
3929,302908,-2,-1,0
3930,302918,-1,-1,0
3931,302928,-2,-1,0
3932,302938,-2,-1,0
3933,302948,-2,-1,0
3934,302958,-2,-1,0
3935,302968,-2,-1,0
3936,302978,-1,-1,0
3937,302988,-2,-1,0
3938,302998,-2,-1,0
3939,303008,-2,-1,0
3940,303018,-1,-1,0
3941,303028,-2,-1,0
3942,303038,-1,-1,0
3943,303048,-2,-1,0
3944,303058,-1,-1,0
3945,303068,-2,-1,0
3946,303078,-1,-1,0
3947,303088,-2,-1,0
3948,303098,-2,-1,0
3949,303108,-2,-1,0
3950,303118,-2,-1,0
3951,303128,-2,-1,0
3952,303138,-2,-1,0
3953,303148,-2,-1,0
3954,303158,-1,-1,0
3955,303168,-2,-1,0
3956,303178,-2,-1,0
3957,303188,-2,-1,0
3958,303198,-2,-1,0
3959,303208,-1,-1,0
3960,303218,-2,-1,0
3961,303228,-2,-1,0
3962,303238,-2,-1,0
3963,303248,-2,-1,0
3964,303258,-2,-1,0
3965,303268,-2,-1,0
3966,303278,-2,-1,0
3967,303288,-2,-1,0
3968,303298,-2,-1,0
3969,303308,-2,-1,0
3970,303318,-2,-1,0
3971,303328,-1,-1,0
3972,303338,-2,-1,0
3973,303348,-2,-1,0
3974,303358,-2,-1,0
3975,303368,-2,-2,0
3976,303378,-2,-1,0
3977,303388,-2,-1,0
3978,303398,-2,-1,0
3979,303408,-1,-1,0
3980,303418,-1,-2,0
3981,303428,-1,-2,0
3982,303438,-2,-1,0
3983,303448,-2,-2,0
3984,303458,-1,-1,0
3985,303468,-2,-1,0
3986,303478,-2,-1,0
3987,303488,-2,-1,0
3988,303498,-2,-2,0
3989,303508,-2,-1,0
3990,303518,-2,-1,0
3991,303528,-2,-1,0
3992,303538,-2,-1,0
3993,303548,-2,-1,0
3994,303558,-2,-1,0
3995,303568,-1,-1,0
3996,303578,-1,-1,0
3997,303588,-2,-1,0
3998,303598,-2,-1,0
3999,303608,-1,-1,0
4000,303618,-2,-1,0
4001,303628,-1,-1,0
4002,303638,-2,-1,0
4003,303648,-1,-1,0
4004,303658,-2,-1,0
4005,303668,-2,-1,0
4006,303678,-2,-1,0
4007,303688,-1,-1,0
4008,303698,-1,-1,0
4009,303708,-2,-1,0
4010,303718,-2,-1,0
4011,303728,-2,-1,0
4012,303738,-2,-1,0
4013,303748,-1,-1,0
4014,303758,-2,-1,0
4015,303768,-1,-1,0
4016,303778,-1,-1,0
4017,303788,-1,-1,0
4018,303798,-1,-1,0
4019,303808,-1,-1,0
4020,303818,-1,-1,0
4021,303828,-1,-1,0
4022,303838,-2,-1,0
4023,303848,-1,-1,0
4024,303858,-1,-1,0
4025,303868,-1,-1,0
4026,303878,-2,-1,0
4027,303888,-1,-1,0
4028,303898,-1,-1,0
4029,303908,-1,-1,0
4030,303918,-2,-1,0
4031,303928,-1,-1,0
4032,303938,-1,-1,0
4033,303948,-2,-1,0
4034,303958,-2,-1,0
4035,303968,-2,-1,0
4036,303978,-2,-1,0
4037,303988,-1,-1,0
4038,303998,-2,-1,0
4039,304008,-2,-1,0
4040,304018,-2,-1,0
4041,304028,-2,-1,0
4042,304038,-1,-1,0
4043,304048,-2,-1,0
4044,304058,-1,-1,0
4045,304068,-1,-1,0
4046,304078,-1,-1,0
4047,304088,-1,-1,0
4048,304098,-1,-1,0
4049,304108,-2,-1,0
4050,304118,-1,-1,0
4051,304128,-2,-1,0
4052,304138,-1,-1,0
4053,304148,-2,-1,0
4054,304158,-1,-1,0
4055,304168,-1,-1,0
4056,304178,-1,-1,0
4057,304188,-1,-1,0
4058,304198,-1,-1,0
4059,304208,-2,-1,0
4060,304218,-2,-1,0
4061,304228,-2,-1,0
4062,304238,-1,-1,0
4063,304248,-2,-1,0
4064,304258,-1,-1,0
4065,304268,-1,-1,0
4066,304278,-2,-1,0
4067,304288,-2,-1,0
4068,304298,-1,-1,0
4069,304308,-2,-1,0
4070,304318,-1,-1,0
4071,304328,-2,-1,0
4072,304338,-1,-1,0
4073,304348,-2,-1,0
4074,304358,-2,-1,0
4075,304368,-2,-1,0
4076,304378,-1,-1,0
4077,304388,-1,-1,0
4078,304398,-1,-1,0
4079,304408,-2,-1,0
4080,304418,-1,-1,0
4081,304428,-1,-1,0
4082,304438,-1,-1,0
4083,304448,-1,-1,0
4084,304458,-2,-1,0
4085,304468,-2,-1,0
4086,304478,-1,-1,0
4087,304488,-1,-1,0
4088,304498,-2,-1,0
4089,304508,-2,-1,0
4090,304518,-1,-1,0
4091,304528,-1,-1,0
4092,304538,-1,-1,0
4093,304548,-1,-1,0
4094,304558,-1,-1,0
4095,304568,-1,-1,0
4096,304578,-2,-2,0
4097,304588,-2,-1,0
4098,304598,-1,-1,0
4099,304608,-2,-1,0
4100,304618,-2,-1,0
4101,304628,-1,-1,0
4102,304638,-1,-1,0
4103,304648,-1,-1,0
4104,304658,-1,-1,0
4105,304668,-1,-1,0
4106,304678,-2,-1,0
4107,304688,-1,-1,0
4108,304698,-1,-1,0
4109,304708,-1,-1,0
4110,304718,-1,-1,0
4111,304728,-2,-1,0
4112,304738,-1,-1,0
4113,304748,-1,-1,0
4114,304758,-2,-1,0
4115,304768,-1,-1,0
4116,304778,-2,-1,0
4117,304788,-1,-1,0
4118,304798,-1,-1,0
4119,304808,-2,-1,0
4120,304818,-1,-1,0
4121,304828,-1,-1,0
4122,304838,-2,-1,0
4123,304848,-2,-1,0
4124,304858,-2,-1,0
4125,304868,-1,-1,0
4126,304878,-2,-1,0
4127,304888,-1,-1,0
4128,304898,-2,-1,0
4129,304908,-2,-1,0
4130,304918,-2,-1,0
4131,304928,-2,-1,0
4132,304938,-2,-1,0
4133,304948,-2,-1,0
4134,304958,-2,-1,0
4135,304968,-2,-1,0
4136,304978,-2,-1,0
4137,304988,-2,-1,0
4138,304998,-2,-1,0
4139,305008,-1,-1,0
4140,305018,-2,-1,0
4141,305028,-2,-1,0
4142,305038,-2,-1,0
4143,305048,-2,-1,0
4144,305058,-2,-1,0
4145,305068,-2,-1,0
4146,305078,-2,-1,0
4147,305088,-2,-1,0
4148,305098,-2,-1,0
4149,305108,-2,-1,0
4150,305118,-2,-1,0
4151,305128,-2,-1,0
4152,305138,-2,-1,0
4153,305148,-2,-1,0
4154,305158,-1,-1,0
4155,305168,-2,-1,0
4156,305178,-2,-1,0
4157,305188,-2,-1,0
4158,305198,-2,-1,0
4159,305208,-2,-1,0
4160,305218,-2,-1,0
4161,305228,-2,-1,0
4162,305238,-2,-1,0
4163,305248,-2,-1,0
4164,305258,-2,-1,0
4165,305268,-2,-1,0
4166,305278,-2,-1,0
4167,305288,-2,-1,0
4168,305298,-2,-1,0
4169,305308,-2,-1,0
4170,305318,-2,-1,0
4171,305328,-1,-1,0
4172,305338,-2,-1,0
4173,305348,-1,-1,0
4174,305358,-2,-1,0
4175,305368,-1,-1,0
4176,305378,-2,-1,0
4177,305388,-2,-1,0
4178,305398,-2,-1,0
4179,305408,-1,-1,0
4180,305418,-2,-1,0
4181,305428,-2,-1,0
4182,305438,-2,-1,0
4183,305448,-2,-1,0
4184,305458,-2,-1,0
4185,305468,-1,-1,0
4186,305478,-2,-1,0
4187,305488,-2,-1,0
4188,305498,-2,-1,0
4189,305508,-2,-1,0
4190,305518,-2,-1,0
4191,305528,-1,-1,0
4192,305538,-2,-1,0
4193,305548,-2,-1,0
4194,305558,-2,-1,0
4195,305568,-2,-1,0
4196,305578,-2,-1,0
4197,305588,-2,-1,0
4198,305598,-2,-1,0
4199,305608,-2,-1,0
4200,305618,-2,-1,0
4201,305628,-2,-1,0
4202,305638,-2,-1,0
4203,305648,-2,-1,0
4204,305658,-2,-1,0
4205,305668,-2,-1,0
4206,305678,-2,-1,0
4207,305688,-2,-1,0
4208,305698,-2,-1,0
4209,305708,-2,-1,0
4210,305718,-1,-1,0
4211,305728,-2,-1,0
4212,305738,-2,-1,0
4213,305748,-2,-1,0
4214,305758,-2,-2,0
4215,305768,-1,-1,0
4216,305778,-2,-1,0
4217,305788,-2,-1,0
4218,305798,-2,-1,0
4219,305808,-2,-1,0
4220,305818,-2,-2,0
4221,305828,-1,-1,0
4222,305838,-2,-1,0
4223,305848,-2,-1,0
4224,305858,-2,-1,0
4225,305868,-2,-1,0
4226,305878,-2,-1,0
4227,305888,-2,-1,0
4228,305898,-2,-1,0
4229,305908,-2,-1,0
4230,305918,-2,-1,0
4231,305928,-1,-1,0
4232,305938,-1,-1,0
4233,305948,-2,-1,0
4234,305958,-2,-1,0
4235,305968,-2,-1,0
4236,305978,-2,-1,0
4237,305988,-2,-1,0
4238,305998,-2,-1,0
4239,306008,-2,-1,0
4240,306018,-2,-1,0
4241,306028,-2,-1,0
4242,306038,-2,-1,0
4243,306048,-2,-1,0
4244,306058,-2,-1,0
4245,306068,-2,-1,0
4246,306078,-2,-1,0
4247,306088,-2,-1,0
4248,306098,-2,-1,0
4249,306108,-2,-1,0
4250,306118,-2,-1,0
4251,306128,-1,-1,0
4252,306138,-2,-1,0
4253,306148,-2,-1,0
4254,306158,-2,-1,0
4255,306168,-2,-1,0
4256,306178,-2,-1,0
4257,306188,-2,-1,0
4258,306198,-2,-1,0
4259,306208,-1,-1,0
4260,306218,-2,-1,0
4261,306228,-2,-1,0
4262,306238,-2,-1,0
4263,306248,-2,-1,0
4264,306258,-2,-1,0
4265,306268,-2,-1,0
4266,306278,-2,-1,0
4267,306288,-1,-1,0
4268,306298,-2,-1,0
4269,306308,-2,-1,0
4270,306318,-2,-1,0
4271,306328,-1,-1,0
4272,306338,-2,-1,0
4273,306348,-2,-1,0
4274,306358,-2,-1,0
4275,306368,-2,-1,0
4276,306378,-1,-1,0
4277,306388,-2,-1,0
4278,306398,-2,-1,0
4279,306408,-2,-1,0
4280,306418,-2,-1,0
4281,306428,-2,-1,0
4282,306438,-2,-1,0
4283,306448,-2,-1,0
4284,306458,-1,-1,0
4285,306468,-2,-1,0
4286,306478,-2,-1,0
4287,306488,-2,-1,0
4288,306498,-2,-1,0
4289,306508,-2,-1,0
4290,306518,-2,-1,0
4291,306528,-2,-1,0
4292,306538,-2,-1,0
4293,306548,-2,-1,0
4294,306558,-2,-1,0
4295,306568,-2,-1,0
4296,306578,-1,-1,0
4297,306588,-2,-1,0
4298,306598,-2,-1,0
4299,306608,-2,-1,0
4300,306618,-2,-1,0
4301,306628,-2,-1,0
4302,306638,-2,-1,0
4303,306648,-2,-1,0
4304,306658,-2,-1,0
4305,306668,-2,-1,0
4306,306678,-2,-1,0
4307,306688,-2,-1,0
4308,306698,-2,-1,0
4309,306708,-2,-1,0
4310,306718,-2,-1,0
4311,306728,-2,-1,0
4312,306738,-2,-1,0
4313,306748,-2,-1,0
4314,306758,-2,-1,0
4315,306768,-2,-1,0
4316,306778,-2,-1,0
4317,306788,-2,-1,0
4318,306798,-2,-1,0
4319,306808,-2,-1,0
4320,306818,-2,-1,0
4321,306828,-2,-1,0
4322,306838,-2,-1,0
4323,306848,-2,-1,0
4324,306858,-2,-1,0
4325,306868,-2,-1,0
4326,306878,-2,-1,0
4327,306888,-2,-1,0
4328,306898,-2,-1,0
4329,306908,-2,-1,0
4330,306918,-2,-1,0
4331,306928,-2,-1,0
4332,306938,-2,-1,0
4333,306948,-2,-1,0
4334,306958,-2,-1,0
4335,306968,-2,-1,0
4336,306978,-2,-1,0
4337,306988,-2,-1,0
4338,306998,-2,-1,0
4339,307008,-2,-1,0
4340,307018,-2,-1,0
4341,307028,-2,-1,0
4342,307038,-2,-1,0
4343,307048,-2,-1,0
4344,307058,-2,-1,0
4345,307068,-2,-1,0
4346,307078,-2,-1,0
4347,307088,-2,-1,0
4348,307098,-2,-2,0
4349,307108,-2,-2,0
4350,307118,-2,-2,0
4351,307128,-2,-2,0
4352,307138,-2,-2,0
4353,307148,-2,-2,0
4354,307158,-2,-1,0
4355,307168,-1,-1,0
4356,307178,-1,-2,0
4357,307188,-2,-2,0
4358,307198,-2,-1,0
4359,307208,-2,-1,0
4360,307218,-1,-1,0
4361,307228,-2,-1,0
4362,307238,-2,-1,0
4363,307248,-2,-1,0
4364,307258,-2,-1,0
4365,307268,-2,-1,0
4366,307278,-2,-1,0
4367,307288,-2,-1,0
4368,307298,-2,-1,0
4369,307308,-2,-1,0
4370,307318,-2,-1,0
4371,307328,-2,-1,0
4372,307338,-2,-1,0
4373,307348,-2,-2,0
4374,307358,-2,-1,0
4375,307368,-2,-2,0
4376,307378,-2,-1,0
4377,307388,-2,-2,0
4378,307398,-2,-1,0
4379,307408,-2,-1,0
4380,307418,-1,-2,0
4381,307428,-2,-1,0
4382,307438,-2,-1,0
4383,307448,-2,-1,0
4384,307458,-2,-1,0
4385,307468,-2,-1,0
4386,307478,-2,-1,0
4387,307488,-2,-1,0
4388,307498,-2,-1,0
4389,307508,-2,-1,0
4390,307518,-2,-1,0
4391,307528,-2,-1,0
4392,307538,-2,-1,0
4393,307548,-2,-1,0
4394,307558,-2,-1,0
4395,307568,-2,-1,0
4396,307578,-2,-1,0
4397,307588,-2,-1,0
4398,307598,-1,-1,0
4399,307608,-2,-1,0
4400,307618,-2,-1,0
4401,307628,-2,-1,0
4402,307638,-2,-1,0
4403,307648,-2,-1,0
4404,307658,-1,-1,0
4405,307668,-1,-1,0
4406,307678,-1,-1,0
4407,307688,-2,-1,0
4408,307698,-1,-1,0
4409,307708,-2,-1,0
4410,307718,-2,-1,0
4411,307728,-2,-1,0
4412,307738,-2,-1,0
4413,307748,-2,-1,0
4414,307758,-2,-1,0
4415,307768,-2,-1,0
4416,307778,-2,-1,0
4417,307788,-2,-1,0
4418,307798,-2,-1,0
4419,307808,-2,-1,0
4420,307818,-2,-1,0
4421,307828,-2,-1,0
4422,307838,-2,-1,0
4423,307848,-1,-1,0
4424,307858,-2,-1,0
4425,307868,-2,-1,0
4426,307878,-2,-1,0
4427,307888,-1,-1,0
4428,307898,-2,-1,0
4429,307908,-2,-1,0
4430,307918,-2,-1,0
4431,307928,-2,-1,0
4432,307938,-1,-1,0
4433,307948,-2,-1,0
4434,307958,-1,-1,0
4435,307968,-1,-1,0
4436,307978,-1,-1,0
4437,307988,-2,-1,0
4438,307998,-2,-1,0
4439,308008,-2,-1,0
4440,308018,-1,-1,0
4441,308028,-1,-1,0
4442,308038,-1,-1,0
4443,308048,-1,-1,0
4444,308058,-2,-1,0
4445,308068,-2,-1,0
4446,308078,-2,-1,0
4447,308088,-2,-1,0
4448,308098,-2,-1,0
4449,308108,-2,-1,0
4450,308118,-1,-1,0
4451,308128,-1,-1,0
4452,308138,-2,-1,0
4453,308148,-2,-1,0
4454,308158,-2,-1,0
4455,308168,-1,-1,0
4456,308178,-2,-1,0
4457,308188,-2,-1,0
4458,308198,-2,-1,0
4459,308208,-2,-1,0
4460,308218,-2,-1,0
4461,308228,-1,-1,0
4462,308238,-1,-1,0
4463,308248,-2,-1,0
4464,308258,-2,-1,0
4465,308268,-1,-1,0
4466,308278,-2,-1,0
4467,308288,-1,-1,0
4468,308298,-1,-1,0
4469,308308,-2,-1,0
4470,308318,-2,-1,0
4471,308328,-2,-1,0
4472,308338,-2,-1,0
4473,308348,-2,-1,0
4474,308358,-1,-1,0
4475,308368,-2,-1,0
4476,308378,-1,-1,0
4477,308388,-1,-1,0
4478,308398,-2,-1,0
4479,308408,-2,-1,0
4480,308418,-2,-1,0
4481,308428,-2,-1,0
4482,308438,-2,-1,0
4483,308448,-1,-1,0
4484,308458,-1,-1,0
4485,308468,-1,-1,0
4486,308478,-2,-1,0
4487,308488,-1,-1,0
4488,308498,-2,-1,0
4489,308508,-2,-1,0
4490,308518,-2,-1,0
4491,308528,-1,-1,0
4492,308538,-2,-1,0
4493,308548,-2,-1,0
4494,308558,-2,-1,0
4495,308568,-1,-1,0
4496,308578,-2,-1,0
4497,308588,-2,-1,0
4498,308598,-1,-1,0
4499,308608,-2,-1,0
4500,308618,-1,-1,0
4501,308628,-2,-1,0
4502,308638,-2,-1,0
4503,308648,-2,-1,0
4504,308658,-2,-1,0
4505,308668,-2,-1,0
4506,308678,-1,-1,0
4507,308688,-2,-1,0
4508,308698,-2,-1,0
4509,308708,-1,-1,0
4510,308718,-2,-1,0
4511,308728,-2,-1,0
4512,308738,-1,-1,0
4513,308748,-1,-1,0
4514,308758,-1,-1,0
4515,308768,-2,-1,0
4516,308778,-2,-1,0
4517,308788,-2,-1,0
4518,308798,-2,-1,0
4519,308808,-2,-1,0
4520,308818,-1,-1,0
4521,308828,-2,-1,0
4522,308838,-1,-1,0
4523,308848,-2,-1,0
4524,308858,-1,-1,0
4525,308868,-2,-1,0
4526,308878,-2,-1,0
4527,308888,-1,-1,0
4528,308898,-2,-1,0
4529,308908,-1,-2,0
4530,308918,-1,-1,0
4531,308928,-2,-1,0
4532,308938,-1,-1,0
4533,308948,-2,-2,0
4534,308958,-1,-1,0
4535,308968,-1,-1,0
4536,308978,-2,-2,0
4537,308988,-2,-1,0
4538,308998,-2,-1,0
4539,309008,-2,-1,0
4540,309018,-2,-2,0
4541,309028,-1,-2,0
4542,309038,-2,-1,0
4543,309048,-2,-2,0
4544,309058,-2,-1,0
4545,309068,-1,-2,0
4546,309078,-1,-1,0
4547,309088,-2,-1,0
4548,309098,-2,-2,0
4549,309108,-2,-1,0
4550,309118,-2,-1,0
4551,309128,-1,-1,0
4552,309138,-2,-1,0
4553,309148,-1,-1,0
4554,309158,-2,-1,0
4555,309168,-1,-1,0
4556,309178,-2,-1,0
4557,309188,-2,-1,0
4558,309198,-2,-1,0
4559,309208,-2,-1,0
4560,309218,-2,-1,0
4561,309228,-2,-1,0
4562,309238,-2,-1,0
4563,309248,-1,-1,0
4564,309258,-2,-1,0
4565,309268,-2,-1,0
4566,309278,-2,-1,0
4567,309288,-1,-1,0
4568,309298,-1,-1,0
4569,309308,-1,-1,0
4570,309318,-2,-1,0
4571,309328,-1,-1,0
4572,309338,-2,-1,0
4573,309348,-1,-1,0
4574,309358,-1,-1,0
4575,309368,-1,-1,0
4576,309378,-1,-1,0
4577,309388,-1,-1,0
4578,309398,-2,-1,0
4579,309408,-2,-1,0
4580,309418,-1,-1,0
4581,309428,-1,-1,0
4582,309438,-2,-1,0
4583,309448,-2,-2,0
4584,309458,-2,-1,0
4585,309468,-2,-1,0
4586,309478,-2,-1,0
4587,309488,-2,-1,0
4588,309498,-2,-1,0
4589,309508,-2,-1,0
4590,309518,-2,-1,0
4591,309528,-1,-1,0
4592,309538,-2,-1,0
4593,309548,-1,-1,0
4594,309558,-1,-1,0
4595,309568,-1,-1,0
4596,309578,-1,-1,0
4597,309588,-1,-1,0
4598,309598,-1,-1,0
4599,309608,-2,-1,0
4600,309618,-2,-1,0
4601,309628,-2,-1,0
4602,309638,-2,-2,0
4603,309648,-2,-1,0
4604,309658,-2,-1,0
4605,309668,-2,-1,0
4606,309678,-1,-1,0
4607,309688,-2,-1,0
4608,309698,-2,-1,0
4609,309708,-1,-1,0
4610,309718,-2,-1,0
4611,309728,-2,-1,0
4612,309738,-1,-1,0
4613,309748,-1,-1,0
4614,309758,-2,-1,0
4615,309768,-1,-1,0
4616,309778,-1,-1,0
4617,309788,-1,-1,0
4618,309798,-1,-1,0
4619,309808,-2,-1,0
4620,309818,-2,-1,0
4621,309828,-2,-1,0
4622,309838,-2,-1,0
4623,309848,-1,-1,0
4624,309858,-2,-2,0
4625,309868,-2,-1,0
4626,309878,-2,-1,0
4627,309888,-2,-1,0
4628,309898,-1,-1,0
4629,309908,-2,-1,0
4630,309918,-2,-2,0
4631,309928,-2,-1,0
4632,309938,-2,-1,0
4633,309948,-1,-1,0
4634,309958,-1,-1,0
4635,309968,-1,-1,0
4636,309978,-1,-1,0
4637,309988,-2,-1,0
4638,309998,-1,-1,0
4639,310008,-1,-1,0
4640,310018,-2,-1,0
4641,310028,-1,-1,0
4642,310038,-2,-1,0
4643,310048,-1,-1,0
4644,310058,-2,-1,0
4645,310068,-1,-2,0
4646,310078,-1,-1,0
4647,310088,-2,-2,0
4648,310098,-1,-1,0
4649,310108,-1,-1,0
4650,310118,-1,-1,0
4651,310128,-1,-1,0
4652,310138,-1,-1,0
4653,310148,-1,-1,0
4654,310158,-1,-1,0
4655,310168,-2,-1,0
4656,310178,-1,-1,0
4657,310188,-2,-1,0
4658,310198,-2,-1,0
4659,310208,-1,-1,0
4660,310218,-2,-1,0
4661,310228,-1,-1,0
4662,310238,-2,-1,0
4663,310248,-2,-1,0
4664,310258,-2,-1,0
4665,310268,-2,-1,0
4666,310278,-1,-2,0
4667,310288,-2,-1,0
4668,310298,-2,-1,0
4669,310308,-2,-1,0
4670,310318,-2,-1,0
4671,310328,-2,-1,0
4672,310338,-2,-1,0
4673,310348,-2,-1,0
4674,310358,-1,-1,0
4675,310368,-2,-1,0
4676,310378,-2,-1,0
4677,310388,-1,-1,0
4678,310398,-2,-1,0
4679,310408,-2,-1,0
4680,310418,-2,-1,0
4681,310428,-2,-1,0
4682,310438,-2,-1,0
4683,310448,-2,-1,0
4684,310458,-1,-1,0
4685,310468,-2,-1,0
4686,310478,-2,-1,0
4687,310488,-2,-1,0
4688,310498,-1,-1,0
4689,310508,-2,-1,0
4690,310518,-2,-1,0
4691,310528,-2,-1,0
4692,310538,-1,-1,0
4693,310548,-2,-1,0
4694,310558,-1,-1,0
4695,310568,-2,-1,0
4696,310578,-2,-1,0
4697,310588,-2,-1,0
4698,310598,-2,-1,0
4699,310608,-1,-1,0
4700,310618,-2,-1,0
4701,310628,-2,-1,0
4702,310638,-2,-1,0
4703,310648,-2,-1,0
4704,310658,-2,-1,0
4705,310668,-1,-1,0
4706,310678,-1,-1,0
4707,310688,-2,-1,0
4708,310698,-2,-1,0
4709,310708,-1,-1,0
4710,310718,-2,-1,0
4711,310728,-2,-1,0
4712,310738,-1,-1,0
4713,310748,-1,-1,0
4714,310758,-2,-1,0
4715,310768,-2,-1,0
4716,310778,-2,-1,0
4717,310788,-1,-1,0
4718,310798,-2,-1,0
4719,310808,-2,-1,0
4720,310818,-2,-1,0
4721,310828,-2,-1,0
4722,310838,-2,-1,0
4723,310848,-1,-1,0
4724,310858,-2,-1,0
4725,310868,-2,-1,0
4726,310878,-2,-1,0
4727,310888,-2,-1,0
4728,310898,-2,-1,0
4729,310908,-2,-1,0
4730,310918,-2,-1,0
4731,310928,-2,-1,0
4732,310938,-2,-1,0
4733,310948,-2,-1,0
4734,310958,-2,-1,0
4735,310968,-2,-1,0
4736,310978,-2,-1,0
4737,310988,-2,-1,0
4738,310998,-2,-1,0
4739,311008,-2,-1,0
4740,311018,-2,-1,0
4741,311028,-2,-1,0
4742,311038,-2,-1,0
4743,311048,-2,-1,0
4744,311058,-2,-1,0
4745,311068,-2,-1,0
4746,311078,-2,-1,0
4747,311088,-2,-1,0
4748,311098,-1,-1,0
4749,311108,-1,-1,0
4750,311118,-2,-1,0
4751,311128,-2,-1,0
4752,311138,-2,-1,0
4753,311148,-2,-1,0
4754,311158,-1,-1,0
4755,311168,-2,-1,0
4756,311178,-1,-1,0
4757,311188,-1,-1,0
4758,311198,-1,-1,0
4759,311208,-2,-1,0
4760,311218,-2,-1,0
4761,311228,-2,-1,0
4762,311238,-1,-1,0
4763,311248,-2,-1,0
4764,311258,-2,-1,0
4765,311268,-1,-1,0
4766,311278,-2,-1,0
4767,311288,-2,-1,0
4768,311298,-2,-1,0
4769,311308,-2,-1,0
4770,311318,-2,-1,0
4771,311328,-1,-1,0
4772,311338,-2,-1,0
4773,311348,-2,-1,0
4774,311358,-1,-1,0
4775,311368,-1,-1,0
4776,311378,-1,-1,0
4777,311388,-1,-1,0
4778,311398,-2,-1,0
4779,311408,-2,-1,0
4780,311418,-2,-1,0
4781,311428,-2,-1,0
4782,311438,-2,-1,0
4783,311448,-2,-1,0
4784,311458,-2,-1,0
4785,311468,-1,-1,0
4786,311478,-2,-1,0
4787,311488,-2,-1,0
4788,311498,-2,-1,0
4789,311508,-2,-1,0
4790,311518,-2,-1,0
4791,311528,-2,-1,0
4792,311538,-2,-1,0
4793,311548,-2,-1,0
4794,311558,-2,-1,0
4795,311568,-2,-1,0
4796,311578,-1,-1,0
4797,311588,-1,-1,0
4798,311598,-2,-1,0
4799,311608,-1,-1,0
4800,311618,-1,-1,0
4801,311628,-2,-1,0
4802,311638,-2,-1,0
4803,311648,-2,-1,0
4804,311658,-1,-1,0
4805,311668,-2,-1,0
4806,311678,-2,-1,0
4807,311688,-2,-1,0
4808,311698,-2,-1,0
4809,311708,-2,-1,0
4810,311718,-1,-1,0
4811,311728,-1,-1,0
4812,311738,-1,-1,0
4813,311748,-2,-1,0
4814,311758,-2,-1,0
4815,311768,-2,-1,0
4816,311778,-2,-1,0
4817,311788,-2,-1,0
4818,311798,-2,-1,0
4819,311808,-2,-1,0
4820,311818,-1,-2,0
4821,311828,-1,-1,0
4822,311838,-2,-1,0
4823,311848,-2,-1,0
4824,311858,-2,-1,0
4825,311868,-1,-1,0
4826,311878,-2,-1,0
4827,311888,-2,-2,0
4828,311898,-2,-1,0
4829,311908,-2,-1,0
4830,311918,-1,-1,0
4831,311928,-2,-1,0
4832,311938,-2,-1,0
4833,311948,-1,-1,0
4834,311958,-2,-1,0
4835,311968,-2,-1,0
4836,311978,-1,-1,0
4837,311988,-2,-1,0
4838,311998,-1,-1,0
4839,312008,-2,-1,0
4840,312018,-2,-1,0
4841,312028,-1,-1,0
4842,312038,-2,-1,0
4843,312048,-1,-1,0
4844,312058,-2,-1,0
4845,312068,-1,-1,0
4846,312078,-1,-1,0
4847,312088,-2,-1,0
4848,312098,-2,-1,0
4849,312108,-2,-1,0
4850,312118,-2,-1,0
4851,312128,-1,-1,0
4852,312138,-2,-1,0
4853,312148,-2,-1,0
4854,312158,-2,-1,0
4855,312168,-2,-1,0
4856,312178,-2,-1,0
4857,312188,-2,-1,0
4858,312198,-2,-1,0
4859,312208,-2,-1,0
4860,312218,-1,-1,0
4861,312228,-2,-1,0
4862,312238,-1,-1,0
4863,312248,-1,-1,0
4864,312258,-1,-1,0
4865,312268,-1,-1,0
4866,312278,-2,-1,0
4867,312288,-1,-1,0
4868,312298,-1,-1,0
4869,312308,-1,-1,0
4870,312318,-2,-1,0
4871,312328,-2,-1,0
4872,312338,-2,-1,0
4873,312348,-2,-1,0
4874,312358,-1,-1,0
4875,312368,-2,-1,0
4876,312378,-3,-1,0
4877,312388,-2,-1,0
4878,312398,-2,-1,0
4879,312408,-2,-1,0
4880,312418,-2,-1,0
4881,312428,-3,-1,0
4882,312438,-3,-1,0
4883,312448,-2,-1,0
4884,312458,-2,-1,0
4885,312468,-2,-1,0
4886,312478,-2,-1,0
4887,312488,-2,-1,0
4888,312498,-2,-1,0
4889,312508,-2,-1,0
4890,312518,-2,-1,0
4891,312528,-3,-1,0
4892,312538,-2,-1,0
4893,312548,-3,-1,0
4894,312558,-2,-1,0
4895,312568,-2,-1,0
4896,312578,-2,-1,0
4897,312588,-2,-1,0
4898,312598,-2,-1,0
4899,312608,-2,-1,0
4900,312618,-3,-1,0
4901,312628,-2,-1,0
4902,312638,-2,-1,0
4903,312648,-3,-1,0
4904,312658,-2,-1,0
4905,312668,-2,-1,0
4906,312678,-2,-1,0
4907,312688,-2,-1,0
4908,312698,-2,-1,0
4909,312708,-2,-1,0
4910,312718,-2,-1,0
4911,312728,-2,-1,0
4912,312738,-2,-1,0
4913,312748,-2,-1,0
4914,312758,-2,-1,0
4915,312768,-2,-1,0
4916,312778,-2,-1,0
4917,312788,-2,-1,0
4918,312798,-2,-1,0
4919,312808,-2,-1,0
4920,312818,-2,-1,0
4921,312828,-2,-1,0
4922,312838,-2,-1,0
4923,312848,-2,-1,0
4924,312858,-2,-1,0
4925,312868,-2,-1,0
4926,312878,-2,-1,0
4927,312888,-2,-1,0
4928,312898,-2,-1,0
4929,312908,-2,-2,0
4930,312918,-2,-2,0
4931,312928,-2,-2,0
4932,312938,-1,-3,0
4933,312948,-2,-3,0
4934,312958,-1,-4,0
4935,312968,-1,-4,0
4936,312978,-1,-4,0
4937,312988,0,-5,0
4938,312998,0,-4,0
4939,313008,0,-3,0
4940,313018,1,-3,0
4941,313028,0,-3,0
4942,313038,-1,-2,0
4943,313048,-1,-1,0
4944,313058,-1,-1,0
4945,313068,-1,-1,0
4946,313078,-1,-1,0
4947,313088,-1,-1,0
4948,313098,-1,-1,0
4949,313108,-1,-1,0
4950,313118,-1,-2,0
4951,313128,-1,-3,0
4952,313138,-4,-14,0
4953,313148,-12,-16,0
4954,313158,-3,-3,0
4955,313168,-1,-1,0
4956,313178,0,-2,0
4957,313188,-1,-1,0
4958,313198,0,-2,0
4959,313208,1,-2,0
4960,313218,1,-2,0
4961,313228,2,-2,0
4962,313238,2,-2,0
4963,313248,1,-2,0
4964,313258,0,-2,0
4965,313268,0,-1,0
4966,313278,-1,-1,0
4967,313288,0,-1,0
4968,313298,0,-2,0
4969,313308,0,-2,0
4970,313318,0,-1,0
4971,313328,0,-1,0
4972,313338,-1,-1,0
4973,313348,-1,-1,0
4974,313358,-2,-1,0
4975,313368,-2,-1,0
4976,313378,-1,-1,0
4977,313388,0,-1,0
4978,313398,0,-1,0
4979,313408,0,-1,0
4980,313418,0,-1,0
4981,313428,0,-1,0
4982,313438,0,-1,0
4983,313448,0,-1,0
4984,313458,-1,-1,0
4985,313468,-1,-1,0
4986,313478,-1,-1,0
4987,313488,-1,-1,0
4988,313498,-1,-1,0
4989,313508,-1,-1,0
4990,313518,-1,-1,0
4991,313528,-1,-1,0
4992,313538,-1,-1,0
4993,313548,-1,-1,0
4994,313558,-1,-1,0
4995,313568,-1,-1,0
4996,313578,-1,-2,0
4997,313588,-1,-2,0
4998,313598,0,-2,0
4999,313608,0,-2,0
5000,313618,0,-2,0
5001,313628,0,-2,0
5002,313638,0,-2,0
5003,313648,-1,-1,0
5004,313658,-1,-2,0
5005,313668,-1,-2,0
5006,313678,-1,-2,0
5007,313688,0,-2,0
5008,313698,0,-2,0
5009,313708,-1,-1,0
5010,313718,-1,-2,0
5011,313728,-1,-2,0
5012,313738,-1,-2,0
5013,313748,-1,-2,0
5014,313758,-1,-1,0
5015,313768,0,-1,0
5016,313778,-1,-2,0
5017,313788,-1,-1,0
5018,313798,-1,-2,0
5019,313808,-1,-1,0
5020,313818,-1,-1,0
5021,313828,0,-1,0
5022,313838,0,-2,0
5023,313848,-1,-2,0
5024,313858,0,-2,0
5025,313868,-1,-1,0
5026,313878,0,-2,0
5027,313888,-1,-1,0
5028,313898,-1,-2,0
5029,313908,-1,-1,0
5030,313918,-1,-2,0
5031,313928,-1,-2,0
5032,313938,0,-2,0
5033,313948,0,-2,0
5034,313958,-1,-2,0
5035,313968,0,-2,0
5036,313978,-1,-1,0
5037,313988,-1,-2,0
5038,313998,0,-2,0
5039,314008,-1,-1,0
5040,314018,0,-1,0
5041,314028,-1,-1,0
5042,314038,0,-2,0
5043,314048,-1,-2,0
5044,314058,-1,-1,0
5045,314068,-1,-1,0
5046,314078,-1,-2,0
5047,314088,0,-2,0
5048,314098,-1,-2,0
5049,314108,-1,-2,0
5050,314118,-1,-2,0
5051,314128,-1,-2,0
5052,314138,0,-2,0
5053,314148,-1,-2,0
5054,314158,-1,-1,0
5055,314168,-1,-2,0
5056,314178,-1,-1,0
5057,314188,-1,-2,0
5058,314198,-1,-2,0
5059,314208,-1,-1,0
5060,314218,-1,-1,0
5061,314228,-1,-2,0
5062,314238,-1,-2,0
5063,314248,0,-1,0
5064,314258,-1,-1,0
5065,314268,0,-1,0
5066,314278,0,-2,0
5067,314288,-1,-1,0
5068,314298,-1,-2,0
5069,314308,0,-2,0
5070,314318,-1,-2,0
5071,314328,0,-1,0
5072,314338,-1,-2,0
5073,314348,-1,-1,0
5074,314358,-1,-1,0
5075,314368,-1,-1,0
5076,314378,0,-1,0
5077,314388,0,-2,0
5078,314398,-1,-1,0
5079,314408,-1,-2,0
5080,314418,-1,-2,0
5081,314428,-1,-2,0
5082,314438,-1,-2,0
5083,314448,0,-2,0
5084,314458,-1,-1,0
5085,314468,-1,-2,0
5086,314478,-1,-2,0
5087,314488,-1,-2,0
5088,314498,-1,-2,0
5089,314508,0,-1,0
5090,314518,-1,-1,0
5091,314528,-1,-1,0
5092,314538,-1,-2,0
5093,314548,0,-1,0
5094,314558,-1,-2,0
5095,314568,-1,-1,0
5096,314578,-1,-1,0
5097,314588,-1,-2,0
5098,314598,0,-2,0
5099,314608,0,-2,0
