,ts,Ax,Ay,Az
0,-0.371,1.5625,0.0,0.0
1,-0.361,1.5625,-0.78125,0.0
2,-0.351,1.5625,0.0,0.0
3,-0.341,2.34375,0.0,0.0
4,-0.331,1.5625,0.0,0.0
5,-0.321,2.34375,0.0,0.0
6,-0.311,2.34375,0.0,0.0
7,-0.301,2.34375,-0.78125,0.0
8,-0.291,2.34375,-0.78125,0.0
9,-0.281,2.34375,0.0,0.0
10,-0.271,2.34375,-0.78125,0.0
11,-0.261,2.34375,0.0,0.0
12,-0.251,3.125,-0.78125,0.0
13,-0.241,3.125,0.0,0.0
14,-0.231,3.125,0.0,0.0
15,-0.221,3.125,0.0,0.0
16,-0.211,3.125,-0.78125,0.0
17,-0.201,3.125,0.0,0.0
18,-0.191,3.125,-0.78125,0.0
19,-0.181,3.125,0.0,0.0
20,-0.171,3.125,0.0,0.0
21,-0.161,3.125,0.0,0.0
22,-0.151,3.90625,-0.78125,0.0
23,-0.141,3.90625,0.0,0.0
24,-0.131,3.90625,0.0,0.0
25,-0.121,3.90625,0.0,0.0
26,-0.111,3.90625,0.0,0.0
27,-0.101,3.90625,0.0,0.0
28,-0.091,3.90625,-0.78125,0.0
29,-0.081,3.90625,0.0,0.0
30,-0.071,3.90625,0.0,0.0
31,-0.061,4.6875,0.0,0.0
32,-0.051,3.90625,0.0,0.0
33,-0.041,4.6875,0.0,0.0
34,-0.031,4.6875,-0.78125,0.0
35,-0.021,4.6875,0.0,0.0
36,-0.011,4.6875,0.0,0.0
37,-0.001,4.6875,0.0,0.0
38,0.009,4.6875,0.0,0.0
39,0.019,4.6875,0.0,0.0
40,0.029,5.46875,-0.78125,0.0
41,0.039,5.46875,-0.78125,0.0
42,0.049,5.46875,0.0,0.0
43,0.059,5.46875,0.0,0.0
44,0.069,5.46875,0.78125,0.0
45,0.079,5.46875,-0.78125,0.0
46,0.089,5.46875,-0.78125,0.0
47,0.099,5.46875,-0.78125,0.0
48,0.109,5.46875,0.0,0.0
49,0.119,5.46875,0.78125,0.0
50,0.129,5.46875,-0.78125,0.0
51,0.139,5.46875,-0.78125,0.0
52,0.149,5.46875,0.0,0.0
53,0.159,6.25,0.0,0.0
54,0.169,6.25,-0.78125,0.0
55,0.239,5.46875,0.0,0.0
56,0.249,7.03125,-0.78125,0.0
57,0.259,6.25,0.0,0.0
58,0.269,7.03125,0.0,0.0
59,0.279,6.25,0.0,0.0
60,0.289,7.03125,-1.5625,0.0
61,0.299,5.46875,0.78125,0.0
62,0.309,7.03125,-0.78125,0.0
63,0.319,6.25,1.5625,0.0
64,0.329,7.8125,-2.34375,0.0
65,0.339,6.25,0.78125,0.0
66,0.349,7.8125,-0.78125,0.0
67,0.359,6.25,0.78125,0.0
68,0.369,7.03125,-0.78125,0.0
69,0.379,7.03125,0.78125,0.0
70,0.389,7.03125,0.78125,0.0
71,0.399,7.03125,-0.78125,0.0
72,0.409,7.03125,0.78125,0.0
73,0.419,7.03125,-0.78125,0.0
74,0.429,7.8125,-0.78125,0.0
75,0.439,7.03125,0.78125,0.0
76,0.449,7.8125,-0.78125,0.0
77,0.459,6.25,0.78125,0.0
78,0.469,8.59375,-0.78125,0.0
79,0.479,6.25,0.0,0.0
80,0.489,8.59375,-0.78125,0.0
81,0.499,6.25,0.0,0.0
82,0.509,8.59375,0.0,0.0
83,0.519,7.03125,0.0,0.0
84,0.529,7.03125,0.0,0.0
85,0.539,7.8125,-0.78125,0.0
86,0.549,6.25,0.0,0.0
87,0.559,8.59375,-0.78125,0.0
88,0.569,6.25,0.0,0.0
89,0.579,8.59375,-0.78125,0.0
90,0.589,7.03125,0.78125,0.0
91,0.599,8.59375,-0.78125,0.0
92,0.609,7.03125,0.78125,0.0
93,0.619,7.8125,-0.78125,0.0
94,0.629,7.8125,0.0,0.0
95,0.639,7.03125,-0.78125,0.0
96,0.649,8.59375,0.0,0.0
97,0.659,7.03125,0.0,0.0
98,0.669,8.59375,0.0,0.0
99,0.679,6.25,0.0,0.0
100,0.689,8.59375,-0.78125,0.0
101,0.699,7.03125,0.78125,0.0
102,0.709,8.59375,-0.78125,0.0
103,0.719,7.03125,0.0,0.0
104,0.729,7.8125,-0.78125,0.0
105,0.739,7.8125,0.78125,0.0
106,0.749,7.03125,0.0,0.0
107,0.759,8.59375,0.0,0.0
108,0.769,7.03125,0.0,0.0
109,0.779,9.375,-0.78125,0.0
110,0.789,6.25,0.0,0.0
111,0.799,8.59375,-0.78125,0.0
112,0.809,7.03125,0.0,0.0
113,0.819,7.8125,0.0,0.0
114,0.829,7.8125,0.0,0.0
115,0.839,7.8125,0.0,0.0
116,0.849,8.59375,0.0,0.0
117,0.859,7.03125,0.0,0.0
118,0.869,9.375,-0.78125,0.0
119,0.879,7.03125,0.0,0.0
120,0.889,8.59375,0.0,0.0
121,0.899,7.8125,-0.78125,0.0
122,0.909,7.8125,0.78125,0.0
123,0.919,7.8125,-0.78125,0.0
124,0.929,8.59375,0.0,0.0
125,0.939,7.03125,-0.78125,0.0
126,0.949,9.375,-0.78125,0.0
127,0.959,7.03125,0.0,0.0
128,0.969,9.375,-0.78125,0.0
129,0.979,7.03125,0.0,0.0
130,0.989,8.59375,0.0,0.0
131,0.999,7.8125,0.0,0.0
132,1.009,7.8125,-0.78125,0.0
133,1.019,8.59375,-0.78125,0.0
134,1.029,7.03125,0.0,0.0
135,1.039,9.375,0.0,0.0
136,1.049,7.03125,0.0,0.0
137,1.059,9.375,0.0,0.0
138,1.069,7.03125,0.0,0.0
139,1.079,7.8125,-0.78125,0.0
140,1.089,7.8125,-0.78125,0.0
141,1.099,7.8125,0.0,0.0
142,1.109,8.59375,0.0,0.0
143,1.119,7.03125,0.0,0.0
144,1.129,9.375,0.0,0.0
145,1.139,6.25,0.78125,0.0
146,1.149,8.59375,-0.78125,0.0
147,1.159,7.03125,0.0,0.0
148,1.169,8.59375,-0.78125,0.0
149,1.179,8.59375,0.0,0.0
150,1.189,7.8125,0.0,0.0
151,1.199,9.375,0.0,0.0
152,1.209,7.03125,0.0,0.0
153,1.219,9.375,-0.78125,0.0
154,1.229,7.03125,0.0,0.0
155,1.239,8.59375,-0.78125,0.0
156,1.249,7.8125,0.0,0.0
157,1.259,7.8125,-0.78125,0.0
158,1.269,8.59375,0.0,0.0
159,1.279,7.03125,0.0,0.0
160,1.289,9.375,0.0,0.0
161,1.299,6.25,0.0,0.0
162,1.309,9.375,-0.78125,0.0
163,1.319,7.03125,0.0,0.0
164,1.329,8.59375,0.0,0.0
165,1.339,7.8125,0.0,0.0
166,1.349,7.8125,0.0,0.0
167,1.359,9.375,0.0,0.0
168,1.369,7.03125,0.0,0.0
169,1.379,9.375,-0.78125,0.0
170,1.389,7.8125,-0.78125,0.0
171,1.399,7.8125,0.0,0.0
172,1.409,8.59375,0.0,0.0
173,1.419,8.59375,0.0,0.0
174,1.429,7.8125,-0.78125,0.0
175,1.439,9.375,0.0,0.0
176,1.449,7.03125,0.0,0.0
177,1.459,9.375,-0.78125,0.0
178,1.469,7.03125,0.0,0.0
179,1.479,7.8125,-0.78125,0.0
180,1.489,8.59375,-0.78125,0.0
181,1.499,7.03125,0.0,0.0
182,1.509,9.375,0.0,0.0
183,1.519,7.03125,0.0,0.0
184,1.529,9.375,-0.78125,0.0
185,1.539,7.03125,0.0,0.0
186,1.549,8.59375,-0.78125,0.0
187,1.559,8.59375,0.0,0.0
188,1.569,7.03125,0.0,0.0
189,1.579,9.375,-0.78125,0.0
190,1.589,7.03125,0.0,0.0
191,1.599,8.59375,0.0,0.0
192,1.609,7.8125,0.0,0.0
193,1.619,7.8125,-0.78125,0.0
194,1.629,8.59375,0.0,0.0
195,1.639,7.03125,0.0,0.0
196,1.649,9.375,-0.78125,0.0
197,1.659,7.03125,0.0,0.0
198,1.669,8.59375,-0.78125,0.0
199,1.679,7.8125,0.0,0.0
200,1.689,7.8125,-0.78125,0.0
201,1.699,9.375,0.0,0.0
202,1.709,6.25,0.0,0.0
203,1.719,8.59375,0.0,0.0
204,1.729,7.03125,0.0,0.0
205,1.739,7.8125,-0.78125,0.0
206,1.749,8.59375,0.0,0.0
207,1.759,7.03125,0.0,0.0
208,1.769,9.375,0.0,0.0
209,1.779,7.03125,0.0,0.0
210,1.789,8.59375,0.0,0.0
211,1.799,7.8125,0.0,0.0
212,1.809,7.8125,0.0,0.0
213,1.819,8.59375,-0.78125,0.0
214,1.829,7.03125,0.0,0.0
215,1.839,9.375,0.0,0.0
216,1.849,7.03125,0.0,0.0
217,1.859,8.59375,0.0,0.0
218,1.869,7.8125,0.0,0.0
219,1.879,7.03125,-0.78125,0.0
220,1.889,9.375,-0.78125,0.0
221,1.899,6.25,-0.78125,0.0
222,1.909,8.59375,0.0,0.0
223,1.919,8.59375,0.0,0.0
224,1.929,7.03125,0.0,0.0
225,1.939,7.8125,0.0,0.0
226,1.949,8.59375,0.0,0.0
227,1.959,7.03125,0.0,0.0
228,1.969,9.375,-0.78125,0.0
229,1.979,7.03125,0.0,0.0
230,1.989,8.59375,-0.78125,0.0
231,1.999,7.8125,0.0,0.0
232,2.009,7.8125,0.0,0.0
233,2.019,8.59375,0.0,0.0
234,2.029,7.03125,0.0,0.0
235,2.039,8.59375,0.0,0.0
236,2.049,7.03125,0.0,0.0
237,2.059,8.59375,-0.78125,0.0
238,2.069,7.8125,0.0,0.0
239,2.079,7.03125,0.0,0.0
240,2.089,9.375,0.0,0.0
241,2.099,6.25,0.0,0.0
242,2.109,8.59375,-0.78125,0.0
243,2.119,7.8125,0.0,0.0
244,2.129,7.8125,-0.78125,0.0
245,2.139,8.59375,0.0,0.0
246,2.149,7.03125,0.0,0.0
247,2.159,8.59375,-0.78125,0.0
248,2.169,7.03125,0.0,0.0
249,2.179,7.8125,-0.78125,0.0
250,2.189,8.59375,-0.78125,0.0
251,2.199,7.03125,0.0,0.0
252,2.209,8.59375,0.0,0.0
253,2.219,7.03125,0.0,0.0
254,2.229,7.8125,-0.78125,0.0
255,2.239,8.59375,0.0,0.0
256,2.249,7.03125,0.0,0.0
257,2.259,9.375,-0.78125,0.0
258,2.269,7.03125,0.0,0.0
259,2.279,7.8125,0.0,0.0
260,2.289,7.8125,0.0,0.0
261,2.299,7.03125,0.0,0.0
262,2.309,8.59375,0.0,0.0
263,2.319,7.03125,0.0,0.0
264,2.329,7.8125,-0.78125,0.0
265,2.339,7.8125,-0.78125,0.0
266,2.349,7.03125,0.0,0.0
267,2.359,8.59375,-0.78125,0.0
268,2.369,7.03125,0.0,0.0
269,2.379,7.8125,0.0,0.0
270,2.389,7.8125,0.0,0.0
271,2.399,7.03125,0.0,0.0
272,2.409,8.59375,-0.78125,0.0
273,2.419,8.59375,-0.78125,0.0
274,2.429,7.03125,-0.78125,0.0
275,2.439,7.8125,-0.78125,0.0
276,2.449,7.8125,0.0,0.0
277,2.459,7.03125,0.0,0.0
278,2.469,8.59375,-0.78125,0.0
279,2.479,7.03125,0.0,0.0
280,2.489,7.8125,-0.78125,0.0
281,2.499,8.59375,-0.78125,0.0
282,2.509,7.03125,0.0,0.0
283,2.519,8.59375,-0.78125,0.0
284,2.529,7.8125,0.0,0.0
285,2.539,7.03125,0.0,0.0
286,2.549,8.59375,-0.78125,0.0
287,2.559,7.03125,0.0,0.0
288,2.569,7.8125,0.0,0.0
289,2.579,7.8125,0.0,0.0
290,2.589,7.03125,0.0,0.0
291,2.599,8.59375,-0.78125,0.0
292,2.609,7.03125,0.0,0.0
293,2.619,7.03125,-0.78125,0.0
294,2.629,8.59375,0.0,0.0
295,2.639,7.03125,0.0,0.0
296,2.649,7.8125,-0.78125,0.0
297,2.659,7.8125,0.0,0.0
298,2.669,7.03125,-0.78125,0.0
299,2.679,8.59375,-0.78125,0.0
300,2.689,7.03125,0.0,0.0
301,2.699,7.8125,0.0,0.0
302,2.709,8.59375,-0.78125,0.0
303,2.719,7.03125,0.0,0.0
304,2.729,7.8125,-0.78125,0.0
305,2.739,7.8125,0.0,0.0
306,2.749,7.03125,0.0,0.0
307,2.759,8.59375,-0.78125,0.0
308,2.769,7.03125,0.0,0.0
309,2.779,7.8125,0.0,0.0
310,2.789,8.59375,-0.78125,0.0
311,2.799,7.03125,0.0,0.0
312,2.809,7.8125,0.0,0.0
313,2.819,7.8125,-0.78125,0.0
314,2.829,7.03125,-0.78125,0.0
315,2.839,8.59375,-0.78125,0.0
316,2.849,7.8125,0.0,0.0
317,2.859,7.03125,-0.78125,0.0
318,2.869,8.59375,-0.78125,0.0
319,2.879,7.03125,-0.78125,0.0
320,2.889,7.03125,-0.78125,0.0
321,2.899,8.59375,-0.78125,0.0
322,2.909,7.03125,-0.78125,0.0
323,2.919,7.03125,0.0,0.0
324,2.929,7.8125,-0.78125,0.0
325,2.939,7.8125,-0.78125,0.0
326,2.949,7.03125,0.0,0.0
327,2.959,8.59375,-0.78125,0.0
328,2.969,7.8125,0.0,0.0
329,2.979,7.03125,0.0,0.0
330,2.989,8.59375,-0.78125,0.0
331,2.999,7.03125,0.0,0.0
332,3.009,7.03125,0.0,0.0
333,3.019,7.8125,-0.78125,0.0
334,3.029,6.25,0.0,0.0
335,3.039,7.8125,-0.78125,0.0
336,3.049,7.8125,0.0,0.0
337,3.059,7.03125,-0.78125,0.0
338,3.069,7.8125,-0.78125,0.0
339,3.079,7.03125,0.0,0.0
340,3.089,7.03125,0.0,0.0
341,3.099,7.8125,-0.78125,0.0
342,3.109,7.03125,0.0,0.0
343,3.119,7.8125,-0.78125,0.0
344,3.129,7.8125,-0.78125,0.0
345,3.139,7.03125,0.0,0.0
346,3.149,8.59375,-0.78125,0.0
347,3.159,7.03125,0.0,0.0
348,3.169,7.03125,0.0,0.0
349,3.179,8.59375,0.0,0.0
350,3.189,7.03125,0.0,0.0
351,3.199,7.8125,-0.78125,0.0
352,3.209,7.8125,0.0,0.0
353,3.219,7.03125,0.0,0.0
354,3.229,7.8125,0.0,0.0
355,3.239,7.8125,-0.78125,0.0
356,3.249,7.03125,0.0,0.0
357,3.259,7.8125,-0.78125,0.0
358,3.269,7.8125,0.0,0.0
359,3.279,7.03125,-0.78125,0.0
360,3.289,7.8125,0.0,0.0
361,3.299,7.8125,0.0,0.0
362,3.309,7.03125,0.0,0.0
363,3.319,7.8125,-0.78125,0.0
364,3.329,7.8125,-0.78125,0.0
365,3.339,7.03125,0.0,0.0
366,3.349,7.03125,0.0,0.0
367,3.359,7.8125,-0.78125,0.0
368,3.369,7.8125,0.0,0.0
369,3.379,6.25,0.0,0.0
370,3.389,7.03125,0.0,0.0
371,3.399,7.8125,0.0,0.0
372,3.409,7.03125,0.0,0.0
373,3.419,7.03125,0.0,0.0
374,3.429,7.03125,0.0,0.0
375,3.439,7.8125,-0.78125,0.0
376,3.449,7.8125,0.0,0.0
377,3.459,7.03125,0.0,0.0
378,3.469,7.8125,0.0,0.0
379,3.479,7.8125,-0.78125,0.0
380,3.489,7.03125,0.0,0.0
381,3.499,7.03125,0.0,0.0
382,3.509,7.8125,-0.78125,0.0
383,3.519,7.8125,0.0,0.0
384,3.529,7.03125,0.0,0.0
385,3.539,7.8125,0.0,0.0
386,3.549,7.8125,-0.78125,0.0
387,3.559,7.03125,0.0,0.0
388,3.569,7.03125,0.0,0.0
389,3.579,7.8125,-0.78125,0.0
390,3.589,7.8125,0.0,0.0
391,3.599,7.03125,0.0,0.0
392,3.609,7.03125,0.0,0.0
393,3.619,7.8125,-0.78125,0.0
394,3.629,7.03125,0.0,0.0
395,3.639,7.03125,0.0,0.0
396,3.649,7.03125,0.0,0.0
397,3.659,7.03125,-0.78125,0.0
398,3.669,7.8125,0.0,0.0
399,3.679,6.25,0.0,0.0
400,3.689,7.03125,-0.78125,0.0
401,3.699,7.8125,0.0,0.0
402,3.709,7.03125,0.0,0.0
403,3.719,7.03125,0.0,0.0
404,3.729,7.8125,0.0,0.0
405,3.739,7.8125,0.0,0.0
406,3.749,7.03125,0.0,0.0
407,3.759,7.03125,-0.78125,0.0
408,3.769,7.8125,-0.78125,0.0
409,3.779,7.03125,0.0,0.0
410,3.789,7.03125,0.0,0.0
411,3.799,7.03125,0.0,0.0
412,3.809,7.8125,0.0,0.0
413,3.819,7.03125,-0.78125,0.0
414,3.829,7.03125,-0.78125,0.0
415,3.839,7.8125,-0.78125,0.0
416,3.849,7.03125,0.0,0.0
417,3.859,7.03125,0.0,0.0
418,3.869,7.8125,-0.78125,0.0
419,3.879,7.03125,0.0,0.0
420,3.889,6.25,0.0,0.0
421,3.899,7.8125,0.0,0.0
422,3.909,7.8125,0.0,0.0
423,3.919,7.8125,0.0,0.0
424,3.929,7.03125,-0.78125,0.0
425,3.939,7.03125,-0.78125,0.0
426,3.949,7.03125,0.0,0.0
427,3.959,7.03125,-0.78125,0.0
428,3.969,7.03125,0.0,0.0
429,3.979,7.03125,0.0,0.0
430,3.989,7.03125,0.0,0.0
431,3.999,7.03125,-0.78125,0.0
432,4.009,7.03125,0.0,0.0
433,4.019,7.03125,0.0,0.0
434,4.029,7.03125,-0.78125,0.0
435,4.039,7.03125,0.0,0.0
436,4.049,7.03125,0.0,0.0
437,4.059,7.03125,0.0,0.0
438,4.069,7.03125,0.0,0.0
439,4.079,7.8125,0.0,0.0
440,4.089,7.03125,0.0,0.0
441,4.099,7.03125,0.0,0.0
442,4.109,7.03125,-0.78125,0.0
443,4.119,7.8125,-0.78125,0.0
444,4.129,7.03125,0.0,0.0
445,4.139,7.03125,0.0,0.0
446,4.149,7.03125,0.0,0.0
447,4.159,7.03125,-0.78125,0.0
448,4.169,7.03125,0.0,0.0
449,4.179,7.03125,0.0,0.0
450,4.189,7.03125,-0.78125,0.0
451,4.199,7.03125,-0.78125,0.0
452,4.209,7.03125,0.0,0.0
453,4.219,7.03125,0.0,0.0
454,4.229,7.03125,0.0,0.0
455,4.239,7.03125,0.0,0.0
456,4.249,7.03125,0.0,0.0
457,4.259,7.03125,-0.78125,0.0
458,4.269,7.03125,0.0,0.0
459,4.279,7.03125,0.0,0.0
460,4.289,7.03125,0.0,0.0
461,4.299,7.03125,0.0,0.0
462,4.309,7.03125,0.0,0.0
463,4.319,7.03125,-0.78125,0.0
464,4.329,7.03125,0.0,0.0
465,4.339,7.03125,0.0,0.0
466,4.349,7.03125,-0.78125,0.0
467,4.359,7.03125,0.0,0.0
468,4.369,7.03125,0.0,0.0
469,4.379,6.25,0.0,0.0
470,4.389,7.03125,0.0,0.0
471,4.399,7.03125,-0.78125,0.0
472,4.409,7.03125,-0.78125,0.0
473,4.419,7.03125,0.0,0.0
474,4.429,7.03125,0.0,0.0
475,4.439,7.03125,0.0,0.0
476,4.449,7.03125,0.0,0.0
477,4.459,7.03125,-0.78125,0.0
478,4.469,7.03125,0.0,0.0
479,4.479,6.25,0.0,0.0
480,4.489,7.03125,-0.78125,0.0
481,4.499,7.03125,0.0,0.0
482,4.509,7.03125,0.0,0.0
483,4.519,7.03125,0.0,0.0
484,4.529,6.25,-0.78125,0.0
485,4.539,6.25,0.0,0.0
486,4.549,7.03125,0.0,0.0
487,4.559,7.03125,-0.78125,0.0
488,4.569,7.03125,0.0,0.0
489,4.579,6.25,0.0,0.0
490,4.589,6.25,-0.78125,0.0
491,4.599,7.03125,-0.78125,0.0
492,4.609,7.03125,0.0,0.0
493,4.619,7.03125,0.0,0.0
494,4.629,7.03125,-0.78125,0.0
495,4.639,7.03125,0.0,0.0
496,4.649,7.03125,0.0,0.0
497,4.659,7.03125,0.0,0.0
498,4.669,6.25,0.0,0.0
499,4.679,7.03125,0.0,0.0
500,4.689,7.03125,-0.78125,0.0
501,4.699,7.03125,0.0,0.0
502,4.709,7.03125,0.0,0.0
503,4.719,6.25,0.0,0.0
504,4.729,6.25,0.0,0.0
505,4.739,6.25,0.0,0.0
506,4.749,6.25,0.0,0.0
507,4.759,7.03125,0.0,0.0
508,4.769,7.03125,-0.78125,0.0
509,4.779,7.03125,0.0,0.0
510,4.789,6.25,-0.78125,0.0
511,4.799,7.03125,-0.78125,0.0
512,4.809,7.03125,-0.78125,0.0
513,4.819,7.03125,0.0,0.0
514,4.829,6.25,0.0,0.0
515,4.839,7.03125,0.0,0.0
516,4.849,7.03125,-0.78125,0.0
517,4.859,6.25,-0.78125,0.0
518,4.869,7.03125,0.0,0.0
519,4.879,7.8125,0.0,0.0
520,4.889,6.25,0.0,0.0
521,4.899,6.25,0.0,0.0
522,4.909,6.25,0.0,0.0
523,4.919,7.03125,-0.78125,0.0
524,4.929,7.03125,-0.78125,0.0
525,4.939,6.25,0.0,0.0
526,4.949,7.03125,0.0,0.0
527,4.959,7.03125,-0.78125,0.0
528,4.969,6.25,-0.78125,0.0
529,4.979,6.25,-0.78125,0.0
530,4.989,6.25,-0.78125,0.0
531,4.999,7.03125,-0.78125,0.0
532,5.009,7.03125,-0.78125,0.0
533,5.019,7.03125,-0.78125,0.0
534,5.029,7.03125,-0.78125,0.0
535,5.039,6.25,0.0,0.0
536,5.049,7.03125,-0.78125,0.0
537,5.059,7.03125,-0.78125,0.0
538,5.069,6.25,0.0,0.0
539,5.079,6.25,-0.78125,0.0
540,5.089,7.03125,0.0,0.0
541,5.099,7.03125,-0.78125,0.0
542,5.109,6.25,0.0,0.0
543,5.119,6.25,0.0,0.0
544,5.129,7.03125,0.0,0.0
545,5.139,6.25,0.0,0.0
546,5.149,6.25,0.0,0.0
547,5.159,6.25,-0.78125,0.0
548,5.169,7.03125,-0.78125,0.0
549,5.179,6.25,0.0,0.0
550,5.189,6.25,-0.78125,0.0
551,5.199,6.25,-0.78125,0.0
552,5.209,6.25,0.0,0.0
553,5.219,6.25,-0.78125,0.0
554,5.229,7.03125,0.0,0.0
555,5.239,6.25,0.0,0.0
556,5.249,6.25,0.0,0.0
557,5.259,7.03125,0.0,0.0
558,5.269,6.25,-0.78125,0.0
559,5.279,6.25,-0.78125,0.0
560,5.289,6.25,-0.78125,0.0
561,5.299,6.25,0.0,0.0
562,5.309,7.03125,-0.78125,0.0
563,5.319,6.25,0.0,0.0
564,5.329,6.25,-0.78125,0.0
565,5.339,6.25,-1.5625,0.0
566,5.349,6.25,0.0,0.0
567,5.359,6.25,0.0,0.0
568,5.369,6.25,-0.78125,0.0
569,5.379,7.03125,-0.78125,0.0
570,5.389,7.03125,-0.78125,0.0
571,5.399,7.03125,0.0,0.0
572,5.409,7.03125,-0.78125,0.0
573,5.419,7.03125,0.0,0.0
574,5.429,6.25,0.0,0.0
575,5.439,6.25,0.0,0.0
576,5.449,7.03125,0.0,0.0
577,5.459,6.25,0.0,0.0
578,5.469,6.25,0.0,0.0
579,5.479,6.25,-0.78125,0.0
580,5.489,6.25,0.0,0.0
581,5.499,6.25,0.0,0.0
582,5.509,6.25,0.0,0.0
583,5.519,6.25,-0.78125,0.0
584,5.529,6.25,0.0,0.0
585,5.539,6.25,0.0,0.0
586,5.549,6.25,0.0,0.0
587,5.559,6.25,0.0,0.0
588,5.569,6.25,-0.78125,0.0
589,5.579,6.25,-0.78125,0.0
590,5.589,6.25,0.0,0.0
591,5.599,6.25,0.0,0.0
592,5.609,6.25,-0.78125,0.0
593,5.619,6.25,-0.78125,0.0
594,5.629,6.25,0.0,0.0
595,5.639,6.25,-0.78125,0.0
596,5.649,6.25,-0.78125,0.0
597,5.659,6.25,0.0,0.0
598,5.669,6.25,-0.78125,0.0
599,5.679,6.25,0.0,0.0
600,5.689,6.25,0.0,0.0
601,5.699,6.25,-0.78125,0.0
602,5.709,6.25,0.0,0.0
603,5.719,7.03125,-0.78125,0.0
604,5.729,6.25,0.0,0.0
605,5.739,6.25,0.0,0.0
606,5.749,6.25,0.0,0.0
607,5.759,6.25,-0.78125,0.0
608,5.769,6.25,0.0,0.0
609,5.779,6.25,-0.78125,0.0
610,5.789,7.03125,0.0,0.0
611,5.799,6.25,-0.78125,0.0
612,5.809,6.25,0.0,0.0
613,5.819,6.25,0.0,0.0
614,5.829,6.25,-0.78125,0.0
615,5.839,6.25,-0.78125,0.0
616,5.849,6.25,0.0,0.0
617,5.859,5.46875,0.0,0.0
618,5.869,6.25,-0.78125,0.0
619,5.879,6.25,-0.78125,0.0
620,5.889,6.25,0.0,0.0
621,5.899,6.25,-0.78125,0.0
622,5.909,6.25,-0.78125,0.0
623,5.919,6.25,0.0,0.0
624,5.929,6.25,-0.78125,0.0
625,5.939,6.25,-0.78125,0.0
626,5.949,6.25,0.0,0.0
627,5.959,6.25,-0.78125,0.0
628,5.969,6.25,-0.78125,0.0
629,5.979,6.25,0.0,0.0
630,5.989,5.46875,-0.78125,0.0
631,5.999,6.25,0.78125,0.0
632,6.009,6.25,-0.78125,0.0
633,6.019,5.46875,0.0,0.0
634,6.029,6.25,-0.78125,0.0
635,6.039,6.25,0.78125,0.0
636,6.049,6.25,0.0,0.0
637,6.059,5.46875,0.0,0.0
638,6.069,5.46875,-0.78125,0.0
639,6.079,6.25,0.0,0.0
640,6.089,6.25,0.0,0.0
641,6.099,7.03125,0.0,0.0
642,6.109,6.25,-0.78125,0.0
643,6.119,6.25,-0.78125,0.0
644,6.129,6.25,0.0,0.0
645,6.139,6.25,-0.78125,0.0
646,6.149,5.46875,0.0,0.0
647,6.159,6.25,0.0,0.0
648,6.169,5.46875,0.0,0.0
649,6.179,6.25,-0.78125,0.0
650,6.189,6.25,0.0,0.0
651,6.199,5.46875,-0.78125,0.0
652,6.209,6.25,0.0,0.0
653,6.219,6.25,-0.78125,0.0
654,6.229,6.25,0.0,0.0
655,6.239,6.25,-0.78125,0.0
656,6.249,5.46875,0.0,0.0
657,6.259,5.46875,0.0,0.0
658,6.269,6.25,-0.78125,0.0
659,6.279,6.25,-0.78125,0.0
660,6.289,6.25,-0.78125,0.0
661,6.299,5.46875,0.0,0.0
662,6.309,6.25,0.0,0.0
663,6.319,5.46875,0.0,0.0
664,6.329,6.25,-0.78125,0.0
665,6.339,5.46875,-0.78125,0.0
666,6.349,6.25,-0.78125,0.0
667,6.359,5.46875,0.0,0.0
668,6.369,6.25,-0.78125,0.0
669,6.379,6.25,0.0,0.0
670,6.389,6.25,0.0,0.0
671,6.399,5.46875,-0.78125,0.0
672,6.409,5.46875,-0.78125,0.0
673,6.419,5.46875,-0.78125,0.0
674,6.429,5.46875,-0.78125,0.0
675,6.439,5.46875,-0.78125,0.0
676,6.449,5.46875,0.0,0.0
677,6.459,5.46875,-0.78125,0.0
678,6.469,5.46875,-0.78125,0.0
679,6.479,6.25,-0.78125,0.0
680,6.489,5.46875,-0.78125,0.0
681,6.499,5.46875,-0.78125,0.0
682,6.509,5.46875,0.0,0.0
683,6.519,5.46875,0.0,0.0
684,6.529,6.25,0.0,0.0
685,6.539,5.46875,-0.78125,0.0
686,6.549,6.25,-0.78125,0.0
687,6.559,6.25,-0.78125,0.0
688,6.569,6.25,-0.78125,0.0
689,6.579,5.46875,0.0,0.0
690,6.589,5.46875,-0.78125,0.0
691,6.599,5.46875,0.0,0.0
692,6.609,5.46875,0.0,0.0
693,6.619,5.46875,-0.78125,0.0
694,6.629,6.25,-0.78125,0.0
695,6.639,5.46875,0.0,0.0
696,6.649,5.46875,0.0,0.0
697,6.659,5.46875,0.0,0.0
698,6.669,5.46875,0.0,0.0
699,6.679,5.46875,0.0,0.0
700,6.689,6.25,-0.78125,0.0
701,6.699,5.46875,-0.78125,0.0
702,6.709,5.46875,0.0,0.0
703,6.719,5.46875,-0.78125,0.0
704,6.729,5.46875,0.0,0.0
705,6.739,4.6875,0.0,0.0
706,6.749,5.46875,-0.78125,0.0
707,6.759,5.46875,-0.78125,0.0
708,6.769,5.46875,-0.78125,0.0
709,6.779,4.6875,-0.78125,0.0
710,6.789,4.6875,0.0,0.0
711,6.799,4.6875,-0.78125,0.0
712,6.809,4.6875,-0.78125,0.0
713,6.819,5.46875,-0.78125,0.0
714,6.829,5.46875,-0.78125,0.0
715,6.839,4.6875,-0.78125,0.0
716,6.849,4.6875,-0.78125,0.0
717,6.859,4.6875,0.0,0.0
718,6.869,4.6875,0.0,0.0
719,6.879,4.6875,-0.78125,0.0
720,6.889,3.90625,-0.78125,0.0
721,6.899,4.6875,-0.78125,0.0
722,6.909,4.6875,-0.78125,0.0
723,6.919,4.6875,-0.78125,0.0
724,6.929,3.90625,0.0,0.0
725,6.939,3.90625,0.0,0.0
726,6.949,3.90625,0.0,0.0
727,6.959,3.125,0.0,0.0
728,6.969,3.90625,-0.78125,0.0
729,6.979,2.34375,-3.125,0.0
730,6.989,3.125,0.0,0.0
731,6.999,3.125,0.0,0.0
732,7.009,2.34375,0.0,0.0
733,7.019,3.125,0.0,0.0
734,7.029,2.34375,0.0,0.0
735,7.039,1.5625,-0.78125,0.0
736,7.049,2.34375,-0.78125,0.0
737,7.059,1.5625,0.0,0.0
738,7.069,1.5625,-1.5625,0.0
739,7.079,1.5625,0.0,0.0
740,7.089,1.5625,0.0,0.0
741,7.099,0.78125,-0.78125,0.0
742,7.109,1.5625,-0.78125,0.0
743,7.119,0.78125,-0.78125,0.0
744,7.129,0.78125,-1.5625,0.0
745,7.139,0.78125,-0.78125,0.0
746,7.149,0.0,-0.78125,0.0
747,7.159,0.0,0.0,0.0
748,7.169,-0.78125,-0.78125,0.0
749,7.179,0.0,-0.78125,0.0
750,7.189,0.0,-0.78125,0.0
751,7.199,-0.78125,-0.78125,0.0
752,7.209,-0.78125,-0.78125,0.0
753,7.219,-0.78125,0.0,0.0
754,7.229,-0.78125,-0.78125,0.0
755,7.239,-0.78125,-0.78125,0.0
756,7.249,-0.78125,-0.78125,0.0
757,7.259,-0.78125,-0.78125,0.0
758,7.269,-0.78125,-0.78125,0.0
759,7.279,-0.78125,0.0,0.0
760,7.289,-0.78125,0.0,0.0
761,7.299,-0.78125,-1.5625,0.0
762,7.309,-1.5625,-0.78125,0.0
763,7.319,-1.5625,-0.78125,0.0
764,7.329,-1.5625,-0.78125,0.0
765,7.339,-1.5625,-0.78125,0.0
766,7.349,-1.5625,0.0,0.0
767,7.359,-1.5625,-0.78125,0.0
768,7.369,-1.5625,0.0,0.0
769,7.379,-1.5625,0.0,0.0
770,7.389,-2.34375,0.0,0.0
771,7.399,-0.78125,-0.78125,0.0
772,7.409,-1.5625,0.0,0.0
773,7.419,-1.5625,-0.78125,0.0
774,7.429,-1.5625,0.0,0.0
775,7.439,-0.78125,-0.78125,0.0
776,7.449,-1.5625,-0.78125,0.0
777,7.459,-0.78125,-0.78125,0.0
778,7.469,-1.5625,-0.78125,0.0
779,7.479,-1.5625,-0.78125,0.0
780,7.489,-1.5625,-0.78125,0.0
781,7.499,-0.78125,-0.78125,0.0
782,7.509,-0.78125,-0.78125,0.0
783,7.519,-0.78125,-0.78125,0.0
784,7.529,-1.5625,-0.78125,0.0
785,7.539,-0.78125,-0.78125,0.0
786,7.549,-1.5625,-0.78125,0.0
787,7.559,-0.78125,-0.78125,0.0
788,7.569,-1.5625,-0.78125,0.0
789,7.579,-0.78125,0.0,0.0
790,7.589,-1.5625,-0.78125,0.0
791,7.599,-0.78125,-0.78125,0.0
792,7.609,-1.5625,-0.78125,0.0
793,7.619,-0.78125,-0.78125,0.0
794,7.629,-1.5625,0.0,0.0
795,7.639,-1.5625,-0.78125,0.0
796,7.649,-1.5625,-0.78125,0.0
797,7.659,-1.5625,0.0,0.0
798,7.669,-1.5625,0.0,0.0
799,7.679,-1.5625,0.0,0.0
800,7.689,-1.5625,-0.78125,0.0
801,7.699,-0.78125,-0.78125,0.0
802,7.709,-0.78125,-0.78125,0.0
803,7.719,-1.5625,-0.78125,0.0
804,7.729,-1.5625,-0.78125,0.0
805,7.739,-1.5625,-0.78125,0.0
806,7.749,-0.78125,-0.78125,0.0
807,7.759,-1.5625,0.0,0.0
808,7.769,-1.5625,0.0,0.0
809,7.779,-1.5625,-0.78125,0.0
810,7.789,-0.78125,-0.78125,0.0
811,7.799,-1.5625,-0.78125,0.0
812,7.809,-1.5625,0.0,0.0
813,7.819,-1.5625,-0.78125,0.0
814,7.829,-1.5625,0.0,0.0
815,7.839,-1.5625,-0.78125,0.0
816,7.849,-1.5625,0.0,0.0
817,7.859,-0.78125,-0.78125,0.0
818,7.869,-1.5625,-0.78125,0.0
819,7.879,-1.5625,-0.78125,0.0
820,7.889,-1.5625,-0.78125,0.0
821,7.899,-1.5625,0.0,0.0
822,7.909,-1.5625,0.0,0.0
823,7.919,-1.5625,0.0,0.0
824,7.929,-0.78125,-0.78125,0.0
825,7.939,-1.5625,-0.78125,0.0
826,7.949,-1.5625,-0.78125,0.0
827,7.959,-0.78125,-0.78125,0.0
828,7.969,-0.78125,0.0,0.0
829,7.979,-0.78125,-0.78125,0.0
830,7.989,-1.5625,0.0,0.0
831,7.999,-0.78125,-0.78125,0.0
832,8.009,-0.78125,-0.78125,0.0
833,8.019,-0.78125,0.0,0.0
834,8.029,-0.78125,-0.78125,0.0
835,8.039,-1.5625,0.0,0.0
836,8.049,-1.5625,-0.78125,0.0
837,8.059,-1.5625,-0.78125,0.0
838,8.069,-0.78125,-0.78125,0.0
839,8.079,-0.78125,-0.78125,0.0
840,8.089,-0.78125,-0.78125,0.0
841,8.099,-1.5625,0.0,0.0
842,8.109,-0.78125,-0.78125,0.0
843,8.119,-0.78125,-0.78125,0.0
844,8.129,-0.78125,0.0,0.0
845,8.139,-1.5625,-0.78125,0.0
846,8.149,-0.78125,0.0,0.0
847,8.159,-0.78125,-0.78125,0.0
848,8.169,-0.78125,-0.78125,0.0
849,8.179,-0.78125,0.0,0.0
850,8.189,-0.78125,0.0,0.0
851,8.199,-0.78125,-0.78125,0.0
852,8.209,-1.5625,-0.78125,0.0
853,8.219,-0.78125,0.0,0.0
854,8.229,-0.78125,0.0,0.0
855,8.239,-0.78125,0.0,0.0
856,8.249,-0.78125,0.0,0.0
857,8.259,-0.78125,0.0,0.0
858,8.269,-0.78125,0.0,0.0
859,8.279,-0.78125,0.0,0.0
860,8.289,-0.78125,-0.78125,0.0
861,8.299,-0.78125,0.0,0.0
862,8.309,-0.78125,-0.78125,0.0
863,8.319,-0.78125,0.0,0.0
864,8.329,-0.78125,-0.78125,0.0
865,8.339,-0.78125,-0.78125,0.0
866,8.349,-1.5625,-0.78125,0.0
867,8.359,-0.78125,-0.78125,0.0
868,8.369,-0.78125,-0.78125,0.0
869,8.379,-1.5625,-0.78125,0.0
870,8.389,-1.5625,-0.78125,0.0
871,8.399,-1.5625,0.0,0.0
872,8.409,-0.78125,-0.78125,0.0
873,8.419,-0.78125,-0.78125,0.0
874,8.429,-1.5625,-0.78125,0.0
875,8.439,-0.78125,-0.78125,0.0
876,8.449,-0.78125,-0.78125,0.0
877,8.459,-0.78125,-0.78125,0.0
878,8.469,-0.78125,0.0,0.0
879,8.479,-0.78125,-0.78125,0.0
880,8.489,-1.5625,0.0,0.0
881,8.499,-1.5625,-0.78125,0.0
882,8.509,-0.78125,0.0,0.0
883,8.519,-0.78125,-0.78125,0.0
884,8.529,-1.5625,-0.78125,0.0
885,8.539,-0.78125,-0.78125,0.0
886,8.549,-0.78125,0.0,0.0
887,8.559,-1.5625,0.0,0.0
888,8.569,-1.5625,0.0,0.0
889,8.579,-0.78125,0.0,0.0
890,8.589,-0.78125,-0.78125,0.0
891,8.599,-1.5625,0.0,0.0
892,8.609,-1.5625,-0.78125,0.0
893,8.619,-1.5625,0.0,0.0
894,8.629,-0.78125,-0.78125,0.0
895,8.639,-1.5625,0.0,0.0
896,8.649,-0.78125,-0.78125,0.0
897,8.659,-0.78125,0.0,0.0
898,8.669,-0.78125,-0.78125,0.0
899,8.679,-0.78125,0.0,0.0
900,8.689,-0.78125,0.0,0.0
901,8.699,-0.78125,0.0,0.0
902,8.709,-0.78125,-0.78125,0.0
903,8.719,-0.78125,0.0,0.0
904,8.729,-0.78125,0.0,0.0
905,8.739,-0.78125,-0.78125,0.0
906,8.749,-0.78125,-0.78125,0.0
907,8.759,-1.5625,0.0,0.0
908,8.769,-0.78125,-0.78125,0.0
909,8.779,-0.78125,0.0,0.0
910,8.789,-0.78125,-0.78125,0.0
911,8.799,-0.78125,0.0,0.0
912,8.809,-1.5625,0.0,0.0
913,8.819,-0.78125,-0.78125,0.0
914,8.829,-0.78125,-0.78125,0.0
915,8.839,-0.78125,0.0,0.0
916,8.849,-0.78125,-0.78125,0.0
917,8.859,-0.78125,0.0,0.0
918,8.869,-0.78125,-0.78125,0.0
919,8.879,-0.78125,-0.78125,0.0
920,8.889,-0.78125,-0.78125,0.0
921,8.899,-0.78125,-0.78125,0.0
922,8.909,-0.78125,-0.78125,0.0
923,8.919,-0.78125,-0.78125,0.0
924,8.929,-0.78125,-0.78125,0.0
925,8.939,-0.78125,0.0,0.0
926,8.949,-0.78125,-0.78125,0.0
927,8.959,-0.78125,-0.78125,0.0
928,8.969,-0.78125,-0.78125,0.0
929,8.979,-0.78125,-0.78125,0.0
930,8.989,-0.78125,0.0,0.0
931,8.999,-0.78125,-0.78125,0.0
932,9.009,-0.78125,-0.78125,0.0
933,9.019,-1.5625,-0.78125,0.0
934,9.029,-0.78125,-0.78125,0.0
935,9.039,-0.78125,-0.78125,0.0
936,9.049,-0.78125,-0.78125,0.0
937,9.059,-0.78125,-0.78125,0.0
938,9.069,-0.78125,0.0,0.0
939,9.079,-0.78125,0.0,0.0
940,9.089,-0.78125,-0.78125,0.0
941,9.099,-0.78125,0.0,0.0
942,9.109,-0.78125,-0.78125,0.0
943,9.119,-0.78125,-0.78125,0.0
944,9.129,-0.78125,0.0,0.0
945,9.139,-0.78125,-0.78125,0.0
946,9.149,-0.78125,-0.78125,0.0
947,9.159,-0.78125,-0.78125,0.0
948,9.169,-0.78125,0.0,0.0
949,9.179,-0.78125,-0.78125,0.0
950,9.189,-1.5625,0.0,0.0
951,9.199,-0.78125,0.0,0.0
952,9.209,-0.78125,-0.78125,0.0
953,9.219,-0.78125,0.0,0.0
954,9.229,-0.78125,-0.78125,0.0
955,9.239,-0.78125,0.0,0.0
956,9.249,-0.78125,-0.78125,0.0
957,9.259,-0.78125,0.0,0.0
958,9.269,-0.78125,-0.78125,0.0
959,9.279,-0.78125,-0.78125,0.0
960,9.289,-0.78125,0.0,0.0
961,9.299,-0.78125,0.0,0.0
962,9.309,-0.78125,-0.78125,0.0
963,9.319,-0.78125,-0.78125,0.0
964,9.329,-0.78125,-0.78125,0.0
965,9.339,-0.78125,-0.78125,0.0
966,9.349,-0.78125,-0.78125,0.0
967,9.359,-0.78125,-0.78125,0.0
968,9.369,-0.78125,-0.78125,0.0
969,9.379,-0.78125,-0.78125,0.0
970,9.389,-0.78125,-0.78125,0.0
971,9.399,-0.78125,-0.78125,0.0
972,9.409,-0.78125,0.0,0.0
973,9.419,-0.78125,-0.78125,0.0
974,9.429,-0.78125,0.0,0.0
975,9.439,-0.78125,0.0,0.0
976,9.449,-0.78125,-0.78125,0.0
977,9.459,-0.78125,-0.78125,0.0
978,9.469,-0.78125,-0.78125,0.0
979,9.479,-0.78125,0.0,0.0
980,9.489,-1.5625,-0.78125,0.0
981,9.499,-0.78125,0.0,0.0
982,9.509,-0.78125,0.0,0.0
983,9.519,-0.78125,0.0,0.0
984,9.529,-0.78125,-0.78125,0.0
985,9.539,-0.78125,0.0,0.0
986,9.549,-0.78125,-0.78125,0.0
987,9.559,-0.78125,-0.78125,0.0
988,9.569,-0.78125,0.0,0.0
989,9.579,-0.78125,0.0,0.0
990,9.589,-0.78125,-0.78125,0.0
991,9.599,-0.78125,-0.78125,0.0
992,9.609,-0.78125,0.0,0.0
993,9.619,-0.78125,-0.78125,0.0
994,9.629,-0.78125,0.0,0.0
995,9.639,-0.78125,-0.78125,0.0
996,9.649,-0.78125,-0.78125,0.0
997,9.659,-0.78125,0.0,0.0
998,9.669,-0.78125,-0.78125,0.0
999,9.679,-0.78125,0.0,0.0
1000,9.689,-0.78125,0.0,0.0
1001,9.699,-0.78125,0.0,0.0
1002,9.709,-0.78125,-0.78125,0.0
1003,9.719,-0.78125,0.0,0.0
1004,9.729,-0.78125,-0.78125,0.0
1005,9.739,-0.78125,-0.78125,0.0
1006,9.749,-0.78125,-0.78125,0.0
1007,9.759,-0.78125,-0.78125,0.0
1008,9.769,-0.78125,0.0,0.0
1009,9.779,-0.78125,0.0,0.0
1010,9.789,-0.78125,-0.78125,0.0
1011,9.799,-0.78125,-0.78125,0.0
1012,9.809,-0.78125,-0.78125,0.0
1013,9.819,-0.78125,0.0,0.0
1014,9.829,-0.78125,0.0,0.0
1015,9.839,-0.78125,0.0,0.0
1016,9.849,-0.78125,0.0,0.0
1017,9.859,-0.78125,-0.78125,0.0
1018,9.869,-0.78125,0.0,0.0
1019,9.879,-0.78125,0.0,0.0
1020,9.889,-0.78125,0.0,0.0
1021,9.899,-0.78125,-0.78125,0.0
1022,9.909,-0.78125,0.0,0.0
1023,9.919,-0.78125,0.0,0.0
1024,9.929,-0.78125,-0.78125,0.0
1025,9.939,-0.78125,0.0,0.0
1026,9.949,-0.78125,0.0,0.0
1027,9.959,-0.78125,-0.78125,0.0
1028,9.969,-0.78125,0.0,0.0
1029,9.979,-0.78125,-0.78125,0.0
1030,9.989,-1.5625,-0.78125,0.0
1031,9.999,-0.78125,0.0,0.0
1032,10.009,-0.78125,-0.78125,0.0
1033,10.019,-0.78125,-0.78125,0.0
1034,10.029,-0.78125,-0.78125,0.0
1035,10.039,-0.78125,0.0,0.0
1036,10.049,-0.78125,-0.78125,0.0
1037,10.059,-0.78125,-0.78125,0.0
1038,10.069,-0.78125,-0.78125,0.0
1039,10.079,-0.78125,-0.78125,0.0
1040,10.089,-0.78125,-0.78125,0.0
1041,10.099,-0.78125,0.0,0.0
1042,10.109,-0.78125,0.0,0.0
1043,10.119,-0.78125,0.0,0.0
1044,10.129,-0.78125,-0.78125,0.0
1045,10.139,-0.78125,-0.78125,0.0
1046,10.149,-0.78125,-0.78125,0.0
1047,10.159,-0.78125,0.0,0.0
1048,10.169,-0.78125,-0.78125,0.0
1049,10.179,-0.78125,-0.78125,0.0
1050,10.189,-0.78125,-0.78125,0.0
1051,10.199,-0.78125,-0.78125,0.0
1052,10.209,-0.78125,0.0,0.0
1053,10.219,-0.78125,-0.78125,0.0
1054,10.229,0.0,-0.78125,0.0
1055,10.239,-0.78125,-0.78125,0.0
1056,10.249,-0.78125,-0.78125,0.0
1057,10.259,-0.78125,-0.78125,0.0
1058,10.269,-0.78125,0.0,0.0
1059,10.279,-0.78125,0.0,0.0
1060,10.289,-0.78125,0.0,0.0
1061,10.299,-0.78125,0.0,0.0
1062,10.309,-0.78125,-0.78125,0.0
1063,10.319,-0.78125,0.0,0.0
1064,10.329,-0.78125,-0.78125,0.0
1065,10.339,-0.78125,-0.78125,0.0
1066,10.349,-0.78125,-0.78125,0.0
1067,10.359,-0.78125,0.0,0.0
1068,10.369,-0.78125,0.0,0.0
1069,10.379,-0.78125,0.0,0.0
1070,10.389,-0.78125,0.0,0.0
1071,10.399,-0.78125,-0.78125,0.0
1072,10.409,-0.78125,0.0,0.0
1073,10.419,-0.78125,0.0,0.0
1074,10.429,-0.78125,-0.78125,0.0
1075,10.439,0.0,0.0,0.0
1076,10.449,-0.78125,-0.78125,0.0
1077,10.459,-0.78125,0.0,0.0
1078,10.469,-0.78125,0.0,0.0
1079,10.479,-0.78125,0.0,0.0
1080,10.489,-0.78125,-0.78125,0.0
1081,10.499,-0.78125,-0.78125,0.0
1082,10.509,-0.78125,0.0,0.0
1083,10.519,-0.78125,0.0,0.0
1084,10.529,-0.78125,0.0,0.0
1085,10.539,-0.78125,-0.78125,0.0
1086,10.549,0.0,-0.78125,0.0
1087,10.559,-0.78125,0.0,0.0
1088,10.569,-0.78125,0.0,0.0
1089,10.579,-0.78125,-0.78125,0.0
1090,10.589,-0.78125,-0.78125,0.0
1091,10.599,-0.78125,-0.78125,0.0
1092,10.609,-0.78125,-0.78125,0.0
1093,10.619,-0.78125,0.0,0.0
1094,10.629,-0.78125,-0.78125,0.0
1095,10.639,-0.78125,-0.78125,0.0
1096,10.649,-0.78125,-0.78125,0.0
1097,10.659,-0.78125,-0.78125,0.0
1098,10.669,-0.78125,-0.78125,0.0
1099,10.679,-0.78125,-0.78125,0.0
1100,10.689,-0.78125,-0.78125,0.0
1101,10.699,-0.78125,0.0,0.0
1102,10.709,-0.78125,-0.78125,0.0
1103,10.719,-0.78125,-0.78125,0.0
1104,10.729,-0.78125,0.0,0.0
1105,10.739,-0.78125,-0.78125,0.0
1106,10.749,-0.78125,-0.78125,0.0
1107,10.759,-0.78125,-0.78125,0.0
1108,10.769,-0.78125,-0.78125,0.0
1109,10.779,-0.78125,0.0,0.0
1110,10.789,-0.78125,-0.78125,0.0
1111,10.799,-0.78125,-0.78125,0.0
1112,10.809,-0.78125,-0.78125,0.0
1113,10.819,-0.78125,-0.78125,0.0
1114,10.829,-0.78125,-0.78125,0.0
1115,10.839,0.0,0.0,0.0
1116,10.849,-0.78125,-0.78125,0.0
1117,10.859,0.0,0.0,0.0
1118,10.869,-0.78125,-0.78125,0.0
1119,10.879,-0.78125,0.0,0.0
1120,10.889,-0.78125,0.0,0.0
1121,10.899,-0.78125,0.0,0.0
1122,10.909,-0.78125,-0.78125,0.0
1123,10.919,-0.78125,-0.78125,0.0
1124,10.929,-0.78125,0.0,0.0
1125,10.939,-0.78125,0.0,0.0
1126,10.949,-0.78125,0.0,0.0
1127,10.959,0.0,0.0,0.0
1128,10.969,-0.78125,-0.78125,0.0
1129,10.979,-0.78125,-0.78125,0.0
1130,10.989,-0.78125,-0.78125,0.0
1131,10.999,-0.78125,-0.78125,0.0
1132,11.009,-0.78125,-0.78125,0.0
1133,11.019,-0.78125,0.0,0.0
1134,11.029,-0.78125,-0.78125,0.0
1135,11.039,-0.78125,0.0,0.0
1136,11.049,-0.78125,-0.78125,0.0
1137,11.059,-0.78125,0.0,0.0
1138,11.069,-0.78125,-0.78125,0.0
1139,11.079,-0.78125,0.0,0.0
1140,11.089,-0.78125,0.0,0.0
1141,11.099,-0.78125,-0.78125,0.0
1142,11.109,-0.78125,0.0,0.0
1143,11.119,-0.78125,-0.78125,0.0
1144,11.129,-0.78125,0.0,0.0
1145,11.139,0.0,-0.78125,0.0
1146,11.149,-0.78125,0.0,0.0
1147,11.159,0.0,0.0,0.0
1148,11.169,-0.78125,-0.78125,0.0
1149,11.179,-0.78125,-0.78125,0.0
1150,11.189,-0.78125,0.0,0.0
1151,11.199,-0.78125,-0.78125,0.0
1152,11.209,0.0,-0.78125,0.0
1153,11.219,-0.78125,-0.78125,0.0
1154,11.229,-0.78125,-0.78125,0.0
1155,11.239,-0.78125,-0.78125,0.0
1156,11.249,-0.78125,-0.78125,0.0
1157,11.259,0.0,-0.78125,0.0
1158,11.269,-0.78125,-0.78125,0.0
1159,11.279,-0.78125,-0.78125,0.0
1160,11.289,-0.78125,-0.78125,0.0
1161,11.299,-0.78125,-0.78125,0.0
1162,11.309,-0.78125,0.0,0.0
1163,11.319,-0.78125,0.0,0.0
1164,11.329,0.0,0.0,0.0
1165,11.339,-0.78125,-0.78125,0.0
1166,11.349,0.0,-0.78125,0.0
1167,11.359,-0.78125,0.0,0.0
1168,11.369,-0.78125,-0.78125,0.0
1169,11.379,-0.78125,0.0,0.0
1170,11.389,-0.78125,0.0,0.0
1171,11.399,-0.78125,-0.78125,0.0
1172,11.409,-0.78125,0.0,0.0
1173,11.419,-0.78125,-0.78125,0.0
1174,11.429,0.0,-0.78125,0.0
1175,11.439,0.0,-0.78125,0.0
1176,11.449,0.0,0.0,0.0
1177,11.459,-0.78125,0.0,0.0
1178,11.469,-0.78125,-0.78125,0.0
1179,11.479,-0.78125,0.0,0.0
1180,11.489,-0.78125,-0.78125,0.0
1181,11.499,-0.78125,-0.78125,0.0
1182,11.509,0.0,0.0,0.0
1183,11.519,-0.78125,-0.78125,0.0
1184,11.529,-0.78125,0.0,0.0
1185,11.539,0.0,-0.78125,0.0
1186,11.549,0.0,0.0,0.0
1187,11.559,0.0,-0.78125,0.0
1188,11.569,-0.78125,-0.78125,0.0
1189,11.579,-0.78125,-0.78125,0.0
1190,11.589,-0.78125,0.0,0.0
1191,11.599,-0.78125,0.0,0.0
1192,11.609,-0.78125,0.0,0.0
1193,11.619,-0.78125,-0.78125,0.0
1194,11.629,-0.78125,0.0,0.0
1195,11.639,0.0,-0.78125,0.0
1196,11.649,-0.78125,-0.78125,0.0
1197,11.659,-0.78125,-0.78125,0.0
1198,11.669,-0.78125,-0.78125,0.0
1199,11.679,-0.78125,0.0,0.0
1200,11.689,-0.78125,0.0,0.0
1201,11.699,0.0,-0.78125,0.0
1202,11.709,-0.78125,0.0,0.0
1203,11.719,0.0,-0.78125,0.0
1204,11.729,0.0,0.0,0.0
1205,11.739,0.0,0.0,0.0
1206,11.749,0.0,-0.78125,0.0
1207,11.759,0.0,-0.78125,0.0
1208,11.769,0.0,-0.78125,0.0
1209,11.779,0.0,-0.78125,0.0
1210,11.789,0.0,0.0,0.0
1211,11.799,0.0,0.0,0.0
1212,11.809,-0.78125,-0.78125,0.0
1213,11.819,0.0,0.0,0.0
1214,11.829,0.0,0.0,0.0
1215,11.839,0.0,-0.78125,0.0
1216,11.849,0.0,0.0,0.0
1217,11.859,0.0,-0.78125,0.0
1218,11.869,0.0,-0.78125,0.0
1219,11.879,-0.78125,-0.78125,0.0
1220,11.889,-0.78125,-0.78125,0.0
1221,11.899,0.0,0.0,0.0
1222,11.909,0.0,-0.78125,0.0
1223,11.919,0.0,0.0,0.0
1224,11.929,0.0,-0.78125,0.0
1225,11.939,-0.78125,-0.78125,0.0
1226,11.949,0.0,-0.78125,0.0
1227,11.959,0.0,0.0,0.0
1228,11.969,0.0,0.0,0.0
1229,11.979,-0.78125,-0.78125,0.0
1230,11.989,-0.78125,-0.78125,0.0
1231,11.999,0.0,-0.78125,0.0
1232,12.009,0.0,0.0,0.0
1233,12.019,-0.78125,-0.78125,0.0
1234,12.029,0.0,-0.78125,0.0
1235,12.039,0.0,-0.78125,0.0
1236,12.049,0.0,0.78125,0.0
1237,12.059,-0.78125,-0.78125,0.0
1238,12.069,0.0,0.0,0.0
1239,12.079,0.0,-0.78125,0.0
1240,12.089,0.78125,0.0,0.0
1241,12.099,0.0,-0.78125,0.0
1242,12.109,0.0,0.78125,0.0
1243,12.119,0.0,-0.78125,0.0
1244,12.129,1.5625,-0.78125,0.0
1245,12.139,0.0,0.0,0.0
1246,12.149,0.0,0.0,0.0
1247,12.159,0.0,-0.78125,0.0
1248,12.169,0.0,-0.78125,0.0
1249,12.179,0.78125,0.0,0.0
1250,12.189,0.78125,0.0,0.0
1251,12.199,0.78125,-0.78125,0.0
1252,12.209,0.0,-0.78125,0.0
1253,12.219,1.5625,0.78125,0.0
1254,12.229,0.0,-0.78125,0.0
1255,12.239,0.78125,0.0,0.0
1256,12.249,1.5625,-0.78125,0.0
1257,12.259,0.78125,0.0,0.0
1258,12.269,0.78125,-0.78125,0.0
1259,12.279,0.78125,0.0,0.0
1260,12.289,0.78125,0.0,0.0
1261,12.299,0.78125,-0.78125,0.0
1262,12.309,1.5625,-0.78125,0.0
1263,12.319,0.78125,-0.78125,0.0
1264,12.329,0.78125,0.0,0.0
1265,12.339,0.78125,-0.78125,0.0
1266,12.349,2.34375,-0.78125,0.0
1267,12.359,0.78125,-0.78125,0.0
1268,12.369,0.78125,0.0,0.0
1269,12.379,0.78125,-0.78125,0.0
1270,12.389,0.78125,-0.78125,0.0
1271,12.399,1.5625,-0.78125,0.0
1272,12.409,0.78125,-0.78125,0.0
1273,12.419,0.78125,0.0,0.0
1274,12.429,2.34375,-0.78125,0.0
1275,12.439,0.78125,-0.78125,0.0
1276,12.449,1.5625,-0.78125,0.0
1277,12.459,1.5625,0.0,0.0
1278,12.469,1.5625,-0.78125,0.0
1279,12.479,1.5625,-0.78125,0.0
1280,12.489,2.34375,-0.78125,0.0
1281,12.499,2.34375,-0.78125,0.0
1282,12.509,1.5625,0.0,0.0
1283,12.519,1.5625,0.0,0.0
1284,12.529,1.5625,-0.78125,0.0
1285,12.539,1.5625,0.0,0.0
1286,12.549,1.5625,0.0,0.0
1287,12.559,2.34375,-0.78125,0.0
1288,12.569,2.34375,-0.78125,0.0
1289,12.579,2.34375,-0.78125,0.0
1290,12.589,2.34375,-0.78125,0.0
1291,12.599,2.34375,0.0,0.0
1292,12.609,2.34375,0.0,0.0
1293,12.619,1.5625,-0.78125,0.0
1294,12.629,2.34375,0.0,0.0
1295,12.639,1.5625,-0.78125,0.0
1296,12.649,2.34375,-0.78125,0.0
1297,12.659,1.5625,-0.78125,0.0
1298,12.669,2.34375,-0.78125,0.0
1299,12.679,2.34375,-0.78125,0.0
1300,12.689,2.34375,-0.78125,0.0
1301,12.699,3.125,0.0,0.0
1302,12.709,2.34375,-0.78125,0.0
1303,12.719,2.34375,0.0,0.0
1304,12.729,2.34375,0.0,0.0
1305,12.739,2.34375,-0.78125,0.0
1306,12.749,2.34375,-0.78125,0.0
1307,12.759,2.34375,0.0,0.0
1308,12.769,2.34375,-0.78125,0.0
1309,12.779,2.34375,-0.78125,0.0
1310,12.789,2.34375,0.0,0.0
1311,12.799,2.34375,-0.78125,0.0
1312,12.809,2.34375,0.0,0.0
1313,12.819,2.34375,0.0,0.0
1314,12.829,3.125,-0.78125,0.0
1315,12.839,2.34375,-0.78125,0.0
1316,12.849,2.34375,0.0,0.0
1317,12.859,2.34375,0.0,0.0
1318,12.869,3.125,-0.78125,0.0
1319,12.879,3.125,0.0,0.0
1320,12.889,3.125,0.0,0.0
1321,12.899,3.125,0.0,0.0
1322,12.909,3.125,-0.78125,0.0
1323,12.919,3.125,0.0,0.0
1324,12.929,2.34375,0.0,0.0
1325,12.939,2.34375,0.0,0.0
1326,12.949,2.34375,0.0,0.0
1327,12.959,2.34375,0.0,0.0
1328,12.969,2.34375,0.0,0.0
1329,12.979,2.34375,-0.78125,0.0
1330,12.989,3.125,0.0,0.0
1331,12.999,3.125,0.0,0.0
1332,13.009,2.34375,0.0,0.0
1333,13.019,3.125,0.0,0.0
1334,13.029,3.125,0.0,0.0
1335,13.039,3.125,0.0,0.0
1336,13.049,3.125,0.0,0.0
1337,13.059,3.90625,0.0,0.0
1338,13.069,3.90625,0.0,0.0
1339,13.079,3.125,0.0,0.0
1340,13.089,3.90625,-0.78125,0.0
1341,13.099,3.90625,0.0,0.0
1342,13.109,3.125,0.0,0.0
1343,13.119,3.90625,-0.78125,0.0
1344,13.129,3.125,0.0,0.0
1345,13.139,3.125,0.0,0.0
1346,13.149,3.90625,0.0,0.0
1347,13.159,3.90625,0.0,0.0
1348,13.169,3.90625,0.0,0.0
1349,13.179,4.6875,0.0,0.0
1350,13.189,4.6875,-0.78125,0.0
1351,13.199,3.90625,-0.78125,0.0
1352,13.209,3.90625,-0.78125,0.0
1353,13.219,3.90625,0.0,0.0
1354,13.229,3.90625,0.0,0.0
1355,13.239,4.6875,0.0,0.0
1356,13.249,3.90625,0.0,0.0
1357,13.259,3.90625,0.0,0.0
1358,13.269,3.90625,-0.78125,0.0
1359,13.279,3.90625,0.0,0.0
1360,13.289,4.6875,-0.78125,0.0
1361,13.299,4.6875,-0.78125,0.0
1362,13.309,5.46875,0.0,0.0
1363,13.319,4.6875,0.0,0.0
1364,13.329,5.46875,-0.78125,0.0
1365,13.339,5.46875,-0.78125,0.0
1366,13.349,4.6875,-0.78125,0.0
1367,13.359,5.46875,-0.78125,0.0
1368,13.369,4.6875,-0.78125,0.0
1369,13.379,7.03125,-0.78125,0.0
1370,13.389,5.46875,-0.78125,0.0
1371,13.399,6.25,0.0,0.0
1372,13.409,6.25,0.0,0.0
1373,13.419,6.25,-0.78125,0.0
1374,13.429,6.25,-1.5625,0.0
1375,13.439,5.46875,0.0,0.0
1376,13.449,5.46875,0.0,0.0
1377,13.459,6.25,0.0,0.0
1378,13.469,5.46875,-0.78125,0.0
1379,13.479,5.46875,0.0,0.0
1380,13.489,6.25,-0.78125,0.0
1381,13.499,6.25,-0.78125,0.0
1382,13.509,5.46875,-0.78125,0.0
1383,13.519,5.46875,0.0,0.0
1384,13.529,5.46875,-0.78125,0.0
1385,13.539,6.25,-0.78125,0.0
1386,13.549,5.46875,-0.78125,0.0
1387,13.559,5.46875,-0.78125,0.0
1388,13.569,4.6875,0.0,0.0
1389,13.579,5.46875,-0.78125,0.0
1390,13.589,6.25,-0.78125,0.0
1391,13.599,7.8125,-0.78125,0.0
1392,13.609,5.46875,0.0,0.0
1393,13.619,5.46875,0.0,0.0
1394,13.629,4.6875,-0.78125,0.0
1395,13.639,5.46875,-0.78125,0.0
1396,13.649,4.6875,0.0,0.0
1397,13.659,5.46875,0.0,0.0
1398,13.669,6.25,0.0,0.0
1399,13.679,7.03125,-0.78125,0.0
1400,13.689,5.46875,0.0,0.0
1401,13.699,4.6875,-0.78125,0.0
1402,13.709,5.46875,0.0,0.0
1403,13.719,5.46875,-0.78125,0.0
1404,13.729,6.25,0.78125,0.0
1405,13.739,5.46875,-0.78125,0.0
1406,13.749,5.46875,-0.78125,0.0
1407,13.759,5.46875,0.0,0.0
1408,13.769,5.46875,-0.78125,0.0
1409,13.779,5.46875,0.0,0.0
1410,13.789,5.46875,-0.78125,0.0
1411,13.799,6.25,0.0,0.0
1412,13.809,5.46875,-0.78125,0.0
1413,13.819,4.6875,0.0,0.0
1414,13.829,6.25,-0.78125,0.0
1415,13.839,5.46875,0.0,0.0
1416,13.849,6.25,0.0,0.0
1417,13.859,5.46875,0.0,0.0
1418,13.869,5.46875,-0.78125,0.0
1419,13.879,4.6875,-0.78125,0.0
1420,13.889,6.25,-0.78125,0.0
1421,13.899,5.46875,0.0,0.0
1422,13.909,6.25,-0.78125,0.0
1423,13.919,6.25,0.0,0.0
1424,13.929,6.25,0.0,0.0
1425,13.939,6.25,0.0,0.0
1426,13.949,4.6875,0.0,0.0
1427,13.959,6.25,0.0,0.0
1428,13.969,5.46875,0.0,0.0
1429,13.979,7.03125,-0.78125,0.0
1430,13.989,5.46875,0.0,0.0
1431,13.999,6.25,-0.78125,0.0
1432,14.009,5.46875,0.0,0.0
1433,14.019,4.6875,-0.78125,0.0
1434,14.029,5.46875,0.0,0.0
1435,14.039,4.6875,-0.78125,0.0
1436,14.049,7.03125,0.0,0.0
1437,14.059,5.46875,-0.78125,0.0
1438,14.069,5.46875,0.0,0.0
1439,14.079,5.46875,0.0,0.0
1440,14.089,4.6875,-0.78125,0.0
1441,14.099,6.25,0.0,0.0
1442,14.109,4.6875,-0.78125,0.0
1443,14.119,6.25,0.78125,0.0
1444,14.129,4.6875,-0.78125,0.0
1445,14.139,5.46875,0.0,0.0
1446,14.149,5.46875,-0.78125,0.0
1447,14.159,5.46875,-0.78125,0.0
1448,14.169,5.46875,0.0,0.0
1449,14.179,6.25,-1.5625,0.0
1450,14.189,5.46875,0.0,0.0
1451,14.199,5.46875,0.0,0.0
1452,14.209,5.46875,0.0,0.0
1453,14.219,5.46875,-0.78125,0.0
1454,14.229,5.46875,0.0,0.0
1455,14.239,5.46875,-0.78125,0.0
1456,14.249,5.46875,0.0,0.0
1457,14.259,6.25,-0.78125,0.0
1458,14.269,4.6875,-0.78125,0.0
1459,14.279,5.46875,-0.78125,0.0
1460,14.289,5.46875,0.0,0.0
1461,14.299,4.6875,-0.78125,0.0
1462,14.309,6.25,0.78125,0.0
1463,14.319,5.46875,-0.78125,0.0
1464,14.329,5.46875,0.0,0.0
1465,14.339,5.46875,0.0,0.0
1466,14.349,5.46875,0.0,0.0
1467,14.359,5.46875,0.0,0.0
1468,14.369,5.46875,0.0,0.0
1469,14.379,5.46875,0.0,0.0
1470,14.389,6.25,0.0,0.0
1471,14.399,6.25,-0.78125,0.0
1472,14.409,6.25,0.0,0.0
1473,14.419,6.25,0.0,0.0
1474,14.429,6.25,0.0,0.0
1475,14.439,4.6875,-0.78125,0.0
1476,14.449,4.6875,-0.78125,0.0
1477,14.459,4.6875,-0.78125,0.0
1478,14.469,6.25,0.0,0.0
1479,14.479,5.46875,-0.78125,0.0
1480,14.489,6.25,0.0,0.0
1481,14.499,5.46875,-0.78125,0.0
1482,14.509,6.25,-0.78125,0.0
1483,14.519,4.6875,0.0,0.0
1484,14.529,5.46875,0.0,0.0
1485,14.539,5.46875,-0.78125,0.0
1486,14.549,3.90625,-0.78125,0.0
1487,14.559,4.6875,0.0,0.0
1488,14.569,5.46875,0.0,0.0
1489,14.579,5.46875,0.0,0.0
1490,14.589,5.46875,-0.78125,0.0
1491,14.599,5.46875,0.0,0.0
1492,14.609,5.46875,-0.78125,0.0
1493,14.619,5.46875,0.0,0.0
1494,14.629,4.6875,-0.78125,0.0
1495,14.639,6.25,0.0,0.0
1496,14.649,5.46875,0.0,0.0
1497,14.659,4.6875,-0.78125,0.0
1498,14.669,5.46875,0.0,0.0
1499,14.679,4.6875,-0.78125,0.0
1500,14.689,4.6875,0.0,0.0
1501,14.699,6.25,0.0,0.0
1502,14.709,3.90625,-0.78125,0.0
1503,14.719,5.46875,0.0,0.0
1504,14.729,5.46875,0.0,0.0
1505,14.739,4.6875,0.0,0.0
1506,14.749,4.6875,-0.78125,0.0
1507,14.759,3.90625,0.0,0.0
1508,14.769,5.46875,-0.78125,0.0
1509,14.779,3.90625,0.0,0.0
1510,14.789,3.90625,0.0,0.0
1511,14.799,4.6875,0.0,0.0
1512,14.809,4.6875,0.0,0.0
1513,14.819,4.6875,0.78125,0.0
1514,14.829,3.90625,-0.78125,0.0
1515,14.839,5.46875,0.0,0.0
1516,14.849,4.6875,0.0,0.0
1517,14.859,3.90625,0.0,0.0
1518,14.869,4.6875,-0.78125,0.0
1519,14.879,4.6875,0.0,0.0
1520,14.889,4.6875,0.0,0.0
1521,14.899,3.90625,0.0,0.0
1522,14.909,4.6875,0.0,0.0
1523,14.919,4.6875,-0.78125,0.0
1524,14.929,3.90625,-0.78125,0.0
1525,14.939,3.90625,-0.78125,0.0
1526,14.949,3.90625,-0.78125,0.0
1527,14.959,3.90625,0.0,0.0
1528,14.969,4.6875,0.0,0.0
1529,14.979,3.90625,-0.78125,0.0
1530,14.989,5.46875,0.0,0.0
1531,14.999,4.6875,-0.78125,0.0
1532,15.009,3.90625,0.0,0.0
1533,15.019,3.90625,-0.78125,0.0
1534,15.029,3.90625,0.0,0.0
1535,15.039,3.90625,-0.78125,0.0
1536,15.049,3.90625,-0.78125,0.0
1537,15.059,3.90625,-0.78125,0.0
1538,15.069,3.90625,-0.78125,0.0
1539,15.079,3.90625,-0.78125,0.0
1540,15.089,4.6875,-0.78125,0.0
1541,15.099,3.125,-0.78125,0.0
1542,15.109,3.125,-0.78125,0.0
1543,15.119,3.125,-0.78125,0.0
1544,15.129,3.125,-0.78125,0.0
1545,15.139,3.125,0.0,0.0
1546,15.149,3.90625,-0.78125,0.0
1547,15.159,3.125,-0.78125,0.0
1548,15.169,3.125,0.0,0.0
1549,15.179,3.125,-0.78125,0.0
1550,15.189,3.125,-0.78125,0.0
1551,15.199,3.125,0.0,0.0
1552,15.209,3.125,0.0,0.0
1553,15.219,2.34375,-0.78125,0.0
1554,15.229,3.125,-0.78125,0.0
1555,15.239,3.125,0.0,0.0
1556,15.249,3.90625,0.0,0.0
1557,15.259,3.125,0.0,0.0
1558,15.269,2.34375,-0.78125,0.0
1559,15.279,3.125,-0.78125,0.0
1560,15.289,3.125,-0.78125,0.0
1561,15.299,3.125,-0.78125,0.0
1562,15.309,2.34375,-0.78125,0.0
1563,15.319,2.34375,-0.78125,0.0
1564,15.329,3.125,0.0,0.0
1565,15.339,3.125,0.0,0.0
1566,15.349,3.125,0.0,0.0
1567,15.359,2.34375,0.0,0.0
1568,15.369,2.34375,-0.78125,0.0
1569,15.379,2.34375,-0.78125,0.0
1570,15.389,2.34375,-0.78125,0.0
1571,15.399,2.34375,0.0,0.0
1572,15.409,2.34375,0.0,0.0
1573,15.419,2.34375,0.0,0.0
1574,15.429,2.34375,-0.78125,0.0
1575,15.439,2.34375,-0.78125,0.0
1576,15.449,2.34375,0.0,0.0
1577,15.459,2.34375,0.0,0.0
1578,15.469,2.34375,0.0,0.0
1579,15.479,2.34375,0.0,0.0
1580,15.489,2.34375,-0.78125,0.0
1581,15.499,1.5625,-0.78125,0.0
1582,15.509,1.5625,-0.78125,0.0
1583,15.519,2.34375,-0.78125,0.0
1584,15.529,1.5625,0.0,0.0
1585,15.539,1.5625,0.0,0.0
1586,15.549,2.34375,-0.78125,0.0
1587,15.559,2.34375,0.0,0.0
1588,15.569,2.34375,-0.78125,0.0
1589,15.579,2.34375,-0.78125,0.0
1590,15.589,1.5625,0.0,0.0
1591,15.599,2.34375,-0.78125,0.0
1592,15.609,1.5625,-0.78125,0.0
1593,15.619,1.5625,0.0,0.0
1594,15.629,1.5625,-0.78125,0.0
1595,15.639,2.34375,-0.78125,0.0
1596,15.649,1.5625,0.0,0.0
1597,15.659,1.5625,0.0,0.0
1598,15.669,1.5625,0.0,0.0
1599,15.679,2.34375,-0.78125,0.0
1600,15.689,1.5625,-0.78125,0.0
1601,15.699,1.5625,-0.78125,0.0
1602,15.709,1.5625,0.0,0.0
1603,15.719,1.5625,-0.78125,0.0
1604,15.729,2.34375,0.0,0.0
1605,15.739,1.5625,-0.78125,0.0
1606,15.749,1.5625,-0.78125,0.0
1607,15.759,1.5625,-0.78125,0.0
1608,15.769,1.5625,-0.78125,0.0
1609,15.779,1.5625,0.0,0.0
1610,15.789,1.5625,0.0,0.0
1611,15.799,2.34375,-0.78125,0.0
1612,15.809,1.5625,0.0,0.0
1613,15.819,1.5625,0.0,0.0
1614,15.829,1.5625,0.0,0.0
1615,15.839,1.5625,0.0,0.0
1616,15.849,1.5625,0.0,0.0
1617,15.859,0.78125,-0.78125,0.0
1618,15.869,1.5625,-0.78125,0.0
1619,15.879,1.5625,0.0,0.0
1620,15.889,1.5625,0.0,0.0
1621,15.899,1.5625,-0.78125,0.0
1622,15.909,1.5625,0.0,0.0
1623,15.919,1.5625,0.0,0.0
1624,15.929,1.5625,0.0,0.0
1625,15.939,1.5625,0.0,0.0
1626,15.949,1.5625,-0.78125,0.0
1627,15.959,1.5625,0.0,0.0
1628,15.969,1.5625,0.0,0.0
1629,15.979,1.5625,-0.78125,0.0
1630,15.989,0.78125,-0.78125,0.0
1631,15.999,0.78125,0.0,0.0
1632,16.009,1.5625,-0.78125,0.0
1633,16.019,1.5625,0.0,0.0
1634,16.029,1.5625,-0.78125,0.0
1635,16.039,0.78125,-0.78125,0.0
1636,16.049,1.5625,-0.78125,0.0
1637,16.059,1.5625,0.0,0.0
1638,16.069,1.5625,-0.78125,0.0
1639,16.079,1.5625,-0.78125,0.0
1640,16.089,1.5625,0.0,0.0
1641,16.099,1.5625,-0.78125,0.0
1642,16.109,1.5625,-0.78125,0.0
1643,16.119,1.5625,-0.78125,0.0
1644,16.129,1.5625,-0.78125,0.0
1645,16.139,0.78125,-0.78125,0.0
1646,16.149,1.5625,0.0,0.0
1647,16.159,1.5625,0.0,0.0
1648,16.169,1.5625,-0.78125,0.0
1649,16.179,1.5625,-0.78125,0.0
1650,16.189,0.78125,-0.78125,0.0
1651,16.199,0.78125,-0.78125,0.0
1652,16.209,1.5625,-0.78125,0.0
1653,16.219,1.5625,-0.78125,0.0
1654,16.229,0.78125,0.0,0.0
1655,16.239,1.5625,-0.78125,0.0
1656,16.249,1.5625,-0.78125,0.0
1657,16.259,1.5625,-0.78125,0.0
1658,16.269,0.78125,-0.78125,0.0
1659,16.279,1.5625,0.0,0.0
1660,16.289,0.78125,-0.78125,0.0
1661,16.299,1.5625,-0.78125,0.0
1662,16.309,0.78125,0.0,0.0
1663,16.319,1.5625,-0.78125,0.0
1664,16.329,0.78125,-0.78125,0.0
1665,16.339,0.78125,0.0,0.0
1666,16.349,0.78125,0.0,0.0
1667,16.359,0.78125,-0.78125,0.0
1668,16.369,0.78125,-0.78125,0.0
1669,16.379,0.78125,-0.78125,0.0
1670,16.389,0.78125,-0.78125,0.0
1671,16.399,0.78125,-0.78125,0.0
1672,16.409,0.78125,-0.78125,0.0
1673,16.419,0.78125,-0.78125,0.0
1674,16.429,1.5625,0.0,0.0
1675,16.439,0.78125,-0.78125,0.0
1676,16.449,0.78125,-0.78125,0.0
1677,16.459,1.5625,-0.78125,0.0
1678,16.469,0.78125,-0.78125,0.0
1679,16.479,1.5625,0.0,0.0
1680,16.489,0.78125,0.0,0.0
1681,16.499,0.78125,-0.78125,0.0
1682,16.509,0.78125,-0.78125,0.0
1683,16.519,0.78125,0.0,0.0
1684,16.529,0.78125,0.0,0.0
1685,16.539,0.78125,-0.78125,0.0
1686,16.549,0.78125,-0.78125,0.0
1687,16.559,0.78125,0.0,0.0
1688,16.569,0.78125,0.0,0.0
1689,16.579,1.5625,0.0,0.0
1690,16.589,0.78125,-0.78125,0.0
1691,16.599,0.78125,-0.78125,0.0
1692,16.609,0.78125,-0.78125,0.0
1693,16.619,0.78125,-0.78125,0.0
1694,16.629,0.78125,-0.78125,0.0
1695,16.639,0.78125,-0.78125,0.0
1696,16.649,1.5625,0.0,0.0
1697,16.659,0.78125,0.0,0.0
1698,16.669,0.78125,-0.78125,0.0
1699,16.679,0.78125,-0.78125,0.0
1700,16.689,0.78125,0.0,0.0
1701,16.699,0.78125,-0.78125,0.0
1702,16.709,0.78125,0.0,0.0
1703,16.719,0.78125,-0.78125,0.0
1704,16.729,0.78125,-0.78125,0.0
1705,16.739,0.78125,-0.78125,0.0
1706,16.749,0.78125,0.0,0.0
1707,16.759,0.78125,-0.78125,0.0
1708,16.769,0.78125,-0.78125,0.0
1709,16.779,0.78125,-0.78125,0.0
1710,16.789,0.78125,-0.78125,0.0
1711,16.799,0.78125,-0.78125,0.0
1712,16.809,0.78125,-0.78125,0.0
1713,16.819,1.5625,-0.78125,0.0
1714,16.829,0.78125,-0.78125,0.0
1715,16.839,0.78125,0.0,0.0
1716,16.849,0.78125,-0.78125,0.0
1717,16.859,1.5625,0.0,0.0
1718,16.869,0.78125,-0.78125,0.0
1719,16.879,1.5625,-0.78125,0.0
1720,16.889,0.78125,-0.78125,0.0
1721,16.899,0.78125,-0.78125,0.0
1722,16.909,0.78125,0.0,0.0
1723,16.919,0.78125,0.0,0.0
1724,16.929,0.78125,0.0,0.0
1725,16.939,0.78125,-0.78125,0.0
1726,16.949,0.78125,-0.78125,0.0
1727,16.959,0.78125,0.0,0.0
1728,16.969,0.78125,-0.78125,0.0
1729,16.979,0.78125,-0.78125,0.0
1730,16.989,0.78125,0.0,0.0
1731,16.999,0.78125,-0.78125,0.0
1732,17.009,0.78125,0.0,0.0
1733,17.019,0.78125,-0.78125,0.0
1734,17.029,0.78125,-0.78125,0.0
1735,17.039,0.78125,-0.78125,0.0
1736,17.049,0.78125,0.0,0.0
1737,17.059,0.78125,-0.78125,0.0
1738,17.069,0.78125,0.0,0.0
1739,17.079,0.78125,0.0,0.0
1740,17.089,0.78125,0.0,0.0
1741,17.099,0.78125,-0.78125,0.0
1742,17.109,0.78125,0.0,0.0
1743,17.119,0.78125,0.0,0.0
1744,17.129,0.78125,0.0,0.0
1745,17.139,0.78125,-0.78125,0.0
1746,17.149,0.78125,0.0,0.0
1747,17.159,0.78125,-0.78125,0.0
1748,17.169,0.78125,-0.78125,0.0
1749,17.179,0.78125,0.0,0.0
1750,17.189,0.78125,-0.78125,0.0
1751,17.199,0.78125,-0.78125,0.0
1752,17.209,0.78125,-0.78125,0.0
1753,17.219,0.78125,-0.78125,0.0
1754,17.229,0.78125,-0.78125,0.0
1755,17.239,0.78125,0.0,0.0
1756,17.249,0.78125,-0.78125,0.0
1757,17.259,0.78125,-0.78125,0.0
1758,17.269,0.78125,-0.78125,0.0
1759,17.279,0.78125,-0.78125,0.0
1760,17.289,0.78125,-0.78125,0.0
1761,17.299,0.78125,-0.78125,0.0
1762,17.309,0.78125,0.0,0.0
1763,17.319,0.78125,0.0,0.0
1764,17.329,0.78125,0.0,0.0
1765,17.339,0.78125,0.0,0.0
1766,17.349,0.78125,0.0,0.0
1767,17.359,0.78125,-0.78125,0.0
1768,17.369,0.78125,-0.78125,0.0
1769,17.379,0.0,0.0,0.0
1770,17.389,1.5625,0.0,0.0
1771,17.399,0.78125,0.0,0.0
1772,17.409,0.78125,0.0,0.0
1773,17.419,0.78125,-0.78125,0.0
1774,17.429,0.78125,-0.78125,0.0
1775,17.439,0.0,-0.78125,0.0
1776,17.449,0.78125,0.0,0.0
1777,17.459,0.78125,-0.78125,0.0
1778,17.469,0.78125,-0.78125,0.0
1779,17.479,0.0,0.0,0.0
1780,17.489,0.78125,-0.78125,0.0
1781,17.499,0.78125,0.0,0.0
1782,17.509,0.78125,-0.78125,0.0
1783,17.519,0.78125,0.0,0.0
1784,17.529,0.78125,-0.78125,0.0
1785,17.539,0.78125,-0.78125,0.0
1786,17.549,0.0,0.0,0.0
1787,17.559,0.78125,0.0,0.0
1788,17.569,0.78125,0.0,0.0
1789,17.579,0.78125,-0.78125,0.0
1790,17.589,0.0,0.0,0.0
1791,17.599,0.78125,0.0,0.0
1792,17.609,0.0,0.0,0.0
1793,17.619,0.78125,-0.78125,0.0
1794,17.629,0.78125,0.0,0.0
1795,17.639,0.0,0.0,0.0
1796,17.649,0.78125,0.0,0.0
1797,17.659,0.0,0.0,0.0
1798,17.669,0.78125,-0.78125,0.0
1799,17.679,0.78125,-0.78125,0.0
1800,17.689,0.78125,0.0,0.0
1801,17.699,0.78125,-0.78125,0.0
1802,17.709,0.78125,0.0,0.0
1803,17.719,0.0,-0.78125,0.0
1804,17.729,0.0,0.0,0.0
1805,17.739,0.0,0.0,0.0
1806,17.749,0.78125,-0.78125,0.0
1807,17.759,0.0,-0.78125,0.0
1808,17.769,0.78125,0.0,0.0
1809,17.779,0.78125,0.0,0.0
1810,17.789,0.78125,-0.78125,0.0
1811,17.799,0.78125,-0.78125,0.0
1812,17.809,0.78125,0.0,0.0
1813,17.819,0.78125,-0.78125,0.0
1814,17.829,0.78125,0.0,0.0
1815,17.839,0.78125,-0.78125,0.0
1816,17.849,0.0,-0.78125,0.0
1817,17.859,0.78125,0.0,0.0
1818,17.869,0.0,0.0,0.0
1819,17.879,0.0,0.0,0.0
1820,17.889,0.78125,0.0,0.0
1821,17.899,0.0,-0.78125,0.0
1822,17.909,0.0,0.0,0.0
1823,17.919,0.0,0.0,0.0
1824,17.929,0.78125,-0.78125,0.0
1825,17.939,0.0,0.0,0.0
1826,17.949,0.78125,0.0,0.0
1827,17.959,0.78125,-0.78125,0.0
1828,17.969,0.78125,0.0,0.0
1829,17.979,0.78125,-0.78125,0.0
1830,17.989,0.0,-0.78125,0.0
1831,17.999,0.0,0.0,0.0
1832,18.009,0.0,0.0,0.0
1833,18.019,0.0,-0.78125,0.0
1834,18.029,0.0,0.0,0.0
1835,18.039,0.0,0.0,0.0
1836,18.049,0.0,0.0,0.0
1837,18.059,0.78125,-0.78125,0.0
1838,18.069,0.0,0.0,0.0
1839,18.079,0.0,-0.78125,0.0
1840,18.089,0.0,-0.78125,0.0
1841,18.099,0.78125,-0.78125,0.0
1842,18.109,0.0,0.0,0.0
1843,18.119,0.78125,0.0,0.0
1844,18.129,0.78125,-0.78125,0.0
1845,18.139,0.78125,0.0,0.0
1846,18.149,0.78125,0.0,0.0
1847,18.159,0.78125,-0.78125,0.0
1848,18.169,0.78125,-0.78125,0.0
1849,18.179,0.0,-0.78125,0.0
1850,18.189,0.78125,-0.78125,0.0
1851,18.199,0.0,-0.78125,0.0
1852,18.209,0.0,-0.78125,0.0
1853,18.219,0.78125,0.0,0.0
1854,18.229,0.78125,0.0,0.0
1855,18.239,0.78125,-0.78125,0.0
1856,18.249,0.78125,0.0,0.0
1857,18.259,0.78125,-0.78125,0.0
1858,18.269,0.0,-0.78125,0.0
1859,18.279,0.78125,0.0,0.0
1860,18.289,0.0,0.0,0.0
1861,18.299,0.78125,-0.78125,0.0
1862,18.309,0.78125,-0.78125,0.0
1863,18.319,0.0,-0.78125,0.0
1864,18.329,0.0,-0.78125,0.0
1865,18.339,0.0,0.0,0.0
1866,18.349,0.0,-0.78125,0.0
1867,18.359,0.0,0.0,0.0
1868,18.369,0.0,-0.78125,0.0
1869,18.379,0.0,-0.78125,0.0
1870,18.389,0.0,-0.78125,0.0
1871,18.399,0.0,0.0,0.0
1872,18.409,0.78125,0.0,0.0
1873,18.419,0.78125,0.0,0.0
1874,18.429,0.0,-0.78125,0.0
1875,18.439,0.0,0.0,0.0
1876,18.449,0.0,-0.78125,0.0
1877,18.459,0.0,-0.78125,0.0
1878,18.469,0.0,0.0,0.0
1879,18.479,0.0,0.0,0.0
1880,18.489,0.78125,-0.78125,0.0
1881,18.499,0.0,0.0,0.0
1882,18.509,0.0,-0.78125,0.0
1883,18.519,0.0,0.0,0.0
1884,18.529,0.78125,0.0,0.0
1885,18.539,0.0,0.0,0.0
1886,18.549,0.0,-0.78125,0.0
1887,18.559,0.0,0.0,0.0
1888,18.569,0.0,0.0,0.0
1889,18.579,0.0,-0.78125,0.0
1890,18.589,0.0,-0.78125,0.0
1891,18.599,0.0,0.0,0.0
1892,18.609,0.0,-0.78125,0.0
1893,18.619,0.78125,0.0,0.0
1894,18.629,0.0,-0.78125,0.0
1895,18.639,0.0,-0.78125,0.0
1896,18.649,0.78125,0.0,0.0
1897,18.659,0.0,0.0,0.0
1898,18.669,0.0,-0.78125,0.0
1899,18.679,0.0,0.0,0.0
1900,18.689,0.0,0.0,0.0
1901,18.699,0.0,0.0,0.0
1902,18.709,0.0,0.0,0.0
1903,18.719,0.0,0.0,0.0
1904,18.729,0.0,-0.78125,0.0
1905,18.739,0.0,0.0,0.0
1906,18.749,0.0,0.0,0.0
1907,18.759,0.78125,0.0,0.0
1908,18.769,0.0,0.0,0.0
1909,18.779,0.0,-0.78125,0.0
1910,18.789,0.0,0.0,0.0
1911,18.799,0.78125,0.0,0.0
1912,18.809,0.0,0.0,0.0
1913,18.819,0.0,0.0,0.0
1914,18.829,0.0,-0.78125,0.0
1915,18.839,0.0,0.0,0.0
1916,18.849,0.0,0.0,0.0
1917,18.859,0.0,-0.78125,0.0
1918,18.869,0.0,0.0,0.0
1919,18.879,0.0,0.0,0.0
1920,18.889,0.0,0.0,0.0
1921,18.899,0.0,-0.78125,0.0
1922,18.909,0.0,0.0,0.0
1923,18.919,0.0,0.0,0.0
1924,18.929,0.0,-0.78125,0.0
1925,18.939,0.0,0.0,0.0
1926,18.949,0.0,0.0,0.0
1927,18.959,0.0,-0.78125,0.0
1928,18.969,0.0,0.0,0.0
1929,18.979,0.0,0.0,0.0
1930,18.989,0.0,0.0,0.0
1931,18.999,0.0,0.0,0.0
1932,19.009,0.0,0.0,0.0
1933,19.019,0.0,0.0,0.0
1934,19.029,0.0,-0.78125,0.0
1935,19.039,0.0,-0.78125,0.0
1936,19.049,0.0,0.0,0.0
1937,19.059,0.0,0.0,0.0
1938,19.069,0.0,-0.78125,0.0
1939,19.079,0.0,0.0,0.0
1940,19.089,0.0,0.0,0.0
1941,19.099,0.0,-0.78125,0.0
1942,19.109,0.0,0.0,0.0
1943,19.119,0.0,0.0,0.0
1944,19.129,0.0,0.0,0.0
1945,19.139,0.0,0.0,0.0
1946,19.149,0.0,0.0,0.0
1947,19.159,0.0,0.0,0.0
1948,19.169,0.0,-0.78125,0.0
1949,19.179,0.0,-0.78125,0.0
1950,19.189,0.0,0.0,0.0
1951,19.199,0.0,0.0,0.0
1952,19.209,0.0,-0.78125,0.0
1953,19.219,0.0,-0.78125,0.0
1954,19.229,0.0,0.0,0.0
1955,19.239,0.0,-0.78125,0.0
1956,19.249,0.0,0.0,0.0
1957,19.259,0.0,-0.78125,0.0
1958,19.269,0.0,0.0,0.0
1959,19.279,0.0,0.0,0.0
1960,19.289,-0.78125,-0.78125,0.0
1961,19.299,0.0,-0.78125,0.0
1962,19.309,0.0,0.0,0.0
1963,19.319,0.0,-0.78125,0.0
1964,19.329,0.0,0.0,0.0
1965,19.339,0.0,-0.78125,0.0
1966,19.349,-0.78125,0.0,0.0
1967,19.359,0.0,-0.78125,0.0
1968,19.369,0.0,0.0,0.0
1969,19.379,0.0,-0.78125,0.0
1970,19.389,-0.78125,-0.78125,0.0
1971,19.399,0.0,0.0,0.0
1972,19.409,-0.78125,-0.78125,0.0
1973,19.419,-0.78125,0.0,0.0
1974,19.429,-0.78125,0.0,0.0
1975,19.439,-0.78125,-0.78125,0.0
1976,19.449,-0.78125,0.0,0.0
1977,19.459,0.0,-0.78125,0.0
1978,19.469,-0.78125,-0.78125,0.0
1979,19.479,-0.78125,0.0,0.0
1980,19.489,-0.78125,-0.78125,0.0
1981,19.499,-0.78125,0.0,0.0
1982,19.509,-0.78125,0.0,0.0
1983,19.519,-0.78125,-0.78125,0.0
1984,19.529,-0.78125,-0.78125,0.0
1985,19.539,-0.78125,-0.78125,0.0
1986,19.549,-0.78125,-0.78125,0.0
1987,19.559,-0.78125,0.0,0.0
1988,19.569,-0.78125,-0.78125,0.0
1989,19.579,-0.78125,0.0,0.0
1990,19.589,-0.78125,-0.78125,0.0
1991,19.599,-0.78125,-0.78125,0.0
1992,19.609,-0.78125,-0.78125,0.0
1993,19.619,-0.78125,-0.78125,0.0
1994,19.629,-0.78125,0.0,0.0
1995,19.639,-0.78125,0.0,0.0
1996,19.649,0.0,-0.78125,0.0
1997,19.659,-0.78125,-0.78125,0.0
1998,19.669,-0.78125,-0.78125,0.0
1999,19.679,-0.78125,-0.78125,0.0
2000,19.689,-0.78125,-0.78125,0.0
2001,19.699,-0.78125,-0.78125,0.0
2002,19.709,-0.78125,-0.78125,0.0
2003,19.719,-0.78125,-0.78125,0.0
2004,19.729,-0.78125,-0.78125,0.0
2005,19.739,-0.78125,-0.78125,0.0
2006,19.749,-0.78125,0.0,0.0
2007,19.759,-0.78125,0.0,0.0
2008,19.769,-0.78125,-0.78125,0.0
2009,19.779,-0.78125,-0.78125,0.0
2010,19.789,-0.78125,-0.78125,0.0
2011,19.799,-0.78125,0.0,0.0
2012,19.809,-0.78125,0.0,0.0
2013,19.819,-0.78125,-0.78125,0.0
2014,19.829,-0.78125,0.0,0.0
2015,19.839,-0.78125,-0.78125,0.0
2016,19.849,-0.78125,-0.78125,0.0
2017,19.859,-0.78125,-0.78125,0.0
2018,19.869,-0.78125,0.0,0.0
2019,19.879,-0.78125,0.0,0.0
2020,19.889,-0.78125,0.0,0.0
2021,19.899,-0.78125,0.0,0.0
2022,19.909,-0.78125,0.0,0.0
2023,19.919,-0.78125,0.0,0.0
2024,19.929,-0.78125,0.0,0.0
2025,19.939,-0.78125,-0.78125,0.0
2026,19.949,-0.78125,-0.78125,0.0
2027,19.959,-0.78125,-0.78125,0.0
2028,19.969,-0.78125,0.0,0.0
2029,19.979,-0.78125,0.0,0.0
2030,19.989,-0.78125,-0.78125,0.0
2031,19.999,-0.78125,0.0,0.0
2032,20.009,-0.78125,0.0,0.0
2033,20.019,-0.78125,-0.78125,0.0
2034,20.029,-0.78125,0.0,0.0
2035,20.039,-0.78125,-0.78125,0.0
2036,20.049,-0.78125,-0.78125,0.0
2037,20.059,-0.78125,0.0,0.0
2038,20.069,-0.78125,-0.78125,0.0
2039,20.079,-0.78125,-0.78125,0.0
2040,20.089,-0.78125,0.0,0.0
2041,20.099,-0.78125,-0.78125,0.0
2042,20.109,-0.78125,-0.78125,0.0
2043,20.119,-0.78125,0.0,0.0
2044,20.129,-0.78125,-0.78125,0.0
2045,20.139,-0.78125,0.0,0.0
2046,20.149,-0.78125,-0.78125,0.0
2047,20.159,-0.78125,0.0,0.0
2048,20.169,-0.78125,0.0,0.0
2049,20.179,-0.78125,-0.78125,0.0
2050,20.189,-0.78125,0.0,0.0
2051,20.199,-0.78125,0.0,0.0
2052,20.209,-0.78125,-0.78125,0.0
2053,20.219,-0.78125,0.0,0.0
2054,20.229,-0.78125,-0.78125,0.0
2055,20.239,-0.78125,0.0,0.0
2056,20.249,-0.78125,0.0,0.0
2057,20.259,-0.78125,0.0,0.0
2058,20.269,-0.78125,0.0,0.0
2059,20.279,-0.78125,0.0,0.0
2060,20.289,-0.78125,-0.78125,0.0
2061,20.299,-0.78125,0.0,0.0
2062,20.309,-0.78125,-0.78125,0.0
2063,20.319,-0.78125,0.0,0.0
2064,20.329,-0.78125,0.0,0.0
2065,20.339,-0.78125,-0.78125,0.0
2066,20.349,-0.78125,0.0,0.0
2067,20.359,-0.78125,0.0,0.0
2068,20.369,-0.78125,-0.78125,0.0
2069,20.379,-0.78125,-0.78125,0.0
2070,20.389,-0.78125,-0.78125,0.0
2071,20.399,-0.78125,-0.78125,0.0
2072,20.409,-0.78125,-0.78125,0.0
2073,20.419,-0.78125,0.0,0.0
2074,20.429,-0.78125,-0.78125,0.0
2075,20.439,-0.78125,-0.78125,0.0
2076,20.449,-0.78125,-0.78125,0.0
2077,20.459,-0.78125,0.0,0.0
2078,20.469,-0.78125,-0.78125,0.0
2079,20.479,-0.78125,0.0,0.0
2080,20.489,-0.78125,0.0,0.0
2081,20.499,-0.78125,-0.78125,0.0
2082,20.509,-0.78125,-0.78125,0.0
2083,20.519,-0.78125,-0.78125,0.0
2084,20.529,-0.78125,0.0,0.0
2085,20.539,-0.78125,0.0,0.0
2086,20.549,-0.78125,0.0,0.0
2087,20.559,-0.78125,0.0,0.0
2088,20.569,-0.78125,0.0,0.0
2089,20.579,-0.78125,-0.78125,0.0
2090,20.589,-0.78125,-0.78125,0.0
2091,20.599,-0.78125,-0.78125,0.0
2092,20.609,-0.78125,-0.78125,0.0
2093,20.619,-0.78125,0.0,0.0
2094,20.629,-0.78125,0.0,0.0
2095,20.639,-0.78125,-0.78125,0.0
2096,20.649,-0.78125,0.0,0.0
2097,20.659,-0.78125,-0.78125,0.0
2098,20.669,-0.78125,0.0,0.0
2099,20.679,-0.78125,0.0,0.0
2100,20.689,-0.78125,-0.78125,0.0
2101,20.699,-0.78125,0.0,0.0
2102,20.709,-0.78125,0.0,0.0
2103,20.719,-0.78125,0.0,0.0
2104,20.729,-0.78125,-0.78125,0.0
2105,20.739,-0.78125,-0.78125,0.0
2106,20.749,-0.78125,-0.78125,0.0
2107,20.759,-0.78125,0.0,0.0
2108,20.769,-0.78125,-0.78125,0.0
2109,20.779,-0.78125,-0.78125,0.0
2110,20.789,-0.78125,-0.78125,0.0
2111,20.799,-0.78125,0.0,0.0
2112,20.809,-0.78125,-0.78125,0.0
2113,20.819,-0.78125,-0.78125,0.0
2114,20.829,-0.78125,0.0,0.0
2115,20.839,-0.78125,0.0,0.0
2116,20.849,-0.78125,-0.78125,0.0
2117,20.859,-0.78125,0.0,0.0
2118,20.869,-0.78125,-0.78125,0.0
2119,20.879,-0.78125,-0.78125,0.0
2120,20.889,-0.78125,0.0,0.0
2121,20.899,-0.78125,0.0,0.0
2122,20.909,-0.78125,-0.78125,0.0
2123,20.919,-0.78125,-0.78125,0.0
2124,20.929,-0.78125,0.0,0.0
2125,20.939,-0.78125,0.0,0.0
2126,20.949,-0.78125,0.0,0.0
2127,20.959,-0.78125,-0.78125,0.0
2128,20.969,-0.78125,0.0,0.0
2129,20.979,-0.78125,0.0,0.0
2130,20.989,-0.78125,0.0,0.0
2131,20.999,-0.78125,0.0,0.0
2132,21.009,-0.78125,-0.78125,0.0
2133,21.019,-0.78125,0.0,0.0
2134,21.029,-0.78125,0.0,0.0
2135,21.039,-0.78125,0.0,0.0
2136,21.049,-0.78125,0.0,0.0
2137,21.059,-0.78125,0.0,0.0
2138,21.069,-0.78125,-0.78125,0.0
2139,21.079,-0.78125,0.0,0.0
2140,21.089,-0.78125,0.0,0.0
2141,21.099,-0.78125,0.0,0.0
2142,21.109,0.0,-0.78125,0.0
2143,21.119,-0.78125,-0.78125,0.0
2144,21.129,-0.78125,-0.78125,0.0
2145,21.139,-0.78125,-0.78125,0.0
2146,21.149,-0.78125,0.0,0.0
2147,21.159,-0.78125,0.0,0.0
2148,21.169,-0.78125,0.0,0.0
2149,21.179,0.0,0.0,0.0
2150,21.189,-0.78125,-0.78125,0.0
2151,21.199,-0.78125,-0.78125,0.0
2152,21.209,-0.78125,0.0,0.0
2153,21.219,-0.78125,0.0,0.0
2154,21.229,-0.78125,-0.78125,0.0
2155,21.239,-0.78125,0.0,0.0
2156,21.249,-0.78125,-0.78125,0.0
2157,21.259,-0.78125,-0.78125,0.0
2158,21.269,-0.78125,0.0,0.0
2159,21.279,-0.78125,0.0,0.0
2160,21.289,-0.78125,0.0,0.0
2161,21.299,-0.78125,0.0,0.0
2162,21.309,-0.78125,-0.78125,0.0
2163,21.319,-0.78125,-0.78125,0.0
2164,21.329,-0.78125,-0.78125,0.0
2165,21.339,-0.78125,-0.78125,0.0
2166,21.349,-0.78125,-0.78125,0.0
2167,21.359,-0.78125,0.0,0.0
2168,21.369,0.0,0.0,0.0
2169,21.379,-0.78125,0.0,0.0
2170,21.389,-0.78125,0.0,0.0
2171,21.399,-0.78125,-0.78125,0.0
2172,21.409,-0.78125,-0.78125,0.0
2173,21.419,-0.78125,-0.78125,0.0
2174,21.429,-0.78125,-0.78125,0.0
2175,21.439,-0.78125,-0.78125,0.0
2176,21.449,-0.78125,-0.78125,0.0
2177,21.459,-0.78125,0.0,0.0
2178,21.469,-0.78125,0.0,0.0
2179,21.479,-0.78125,0.0,0.0
2180,21.489,-0.78125,0.0,0.0
2181,21.499,-0.78125,0.0,0.0
2182,21.509,-0.78125,-0.78125,0.0
2183,21.519,-0.78125,0.0,0.0
2184,21.529,-0.78125,-0.78125,0.0
2185,21.539,-0.78125,0.0,0.0
2186,21.549,-0.78125,-0.78125,0.0
2187,21.559,-0.78125,0.0,0.0
2188,21.569,-0.78125,0.0,0.0
2189,21.579,-0.78125,-0.78125,0.0
2190,21.589,-0.78125,0.0,0.0
2191,21.599,-0.78125,0.0,0.0
2192,21.609,-0.78125,0.0,0.0
2193,21.619,-0.78125,-0.78125,0.0
2194,21.629,-0.78125,-0.78125,0.0
2195,21.639,-0.78125,-0.78125,0.0
2196,21.649,-0.78125,-0.78125,0.0
2197,21.659,-0.78125,-0.78125,0.0
2198,21.669,-0.78125,-0.78125,0.0
2199,21.679,-0.78125,0.0,0.0
2200,21.689,-0.78125,-0.78125,0.0
2201,21.699,-0.78125,-0.78125,0.0
2202,21.709,0.0,-0.78125,0.0
2203,21.719,-0.78125,0.0,0.0
2204,21.729,-0.78125,-0.78125,0.0
2205,21.739,-0.78125,0.0,0.0
2206,21.749,-0.78125,0.0,0.0
2207,21.759,-0.78125,0.0,0.0
2208,21.769,0.0,0.0,0.0
2209,21.779,-0.78125,0.0,0.0
2210,21.789,-0.78125,0.0,0.0
2211,21.799,-0.78125,-0.78125,0.0
2212,21.809,-0.78125,-0.78125,0.0
2213,21.819,-0.78125,0.0,0.0
2214,21.829,-0.78125,-0.78125,0.0
2215,21.839,-0.78125,0.0,0.0
2216,21.849,-0.78125,-0.78125,0.0
2217,21.859,-0.78125,0.0,0.0
2218,21.869,-0.78125,0.0,0.0
2219,21.879,-0.78125,0.0,0.0
2220,21.889,-0.78125,0.0,0.0
2221,21.899,-0.78125,-0.78125,0.0
2222,21.909,-0.78125,0.0,0.0
2223,21.919,-0.78125,0.0,0.0
2224,21.929,-0.78125,0.0,0.0
2225,21.939,-0.78125,0.0,0.0
2226,21.949,-0.78125,-0.78125,0.0
2227,21.959,-0.78125,-0.78125,0.0
2228,21.969,-0.78125,0.0,0.0
2229,21.979,-0.78125,-0.78125,0.0
2230,21.989,0.0,0.0,0.0
2231,21.999,0.0,-0.78125,0.0
2232,22.009,-0.78125,-0.78125,0.0
2233,22.019,-0.78125,0.0,0.0
2234,22.029,-0.78125,-0.78125,0.0
2235,22.039,-0.78125,0.0,0.0
2236,22.049,-0.78125,-0.78125,0.0
2237,22.059,0.0,0.0,0.0
2238,22.069,-0.78125,-0.78125,0.0
2239,22.079,-0.78125,0.0,0.0
2240,22.089,-0.78125,0.0,0.0
2241,22.099,-0.78125,-0.78125,0.0
2242,22.109,-0.78125,0.0,0.0
2243,22.119,-0.78125,0.0,0.0
2244,22.129,-0.78125,-0.78125,0.0
2245,22.139,-0.78125,0.0,0.0
2246,22.149,-0.78125,0.0,0.0
2247,22.159,-0.78125,-0.78125,0.0
2248,22.169,0.0,0.0,0.0
2249,22.179,-0.78125,0.0,0.0
2250,22.189,-0.78125,-0.78125,0.0
2251,22.199,-0.78125,-0.78125,0.0
2252,22.209,-0.78125,-0.78125,0.0
2253,22.219,-0.78125,-0.78125,0.0
2254,22.229,-0.78125,0.0,0.0
2255,22.239,-0.78125,-0.78125,0.0
2256,22.249,-0.78125,-0.78125,0.0
2257,22.259,-0.78125,0.0,0.0
2258,22.269,-0.78125,0.0,0.0
2259,22.279,-0.78125,-0.78125,0.0
2260,22.289,-0.78125,-0.78125,0.0
2261,22.299,0.0,-0.78125,0.0
2262,22.309,-0.78125,-0.78125,0.0
2263,22.319,-0.78125,-0.78125,0.0
2264,22.329,-0.78125,-0.78125,0.0
2265,22.339,-0.78125,-0.78125,0.0
2266,22.349,-0.78125,-0.78125,0.0
2267,22.359,-0.78125,-0.78125,0.0
2268,22.369,-0.78125,-0.78125,0.0
2269,22.379,-0.78125,-0.78125,0.0
2270,22.389,0.0,0.0,0.0
2271,22.399,-0.78125,-0.78125,0.0
2272,22.409,-0.78125,0.0,0.0
2273,22.419,-0.78125,-0.78125,0.0
2274,22.429,-0.78125,-0.78125,0.0
2275,22.439,-0.78125,0.0,0.0
2276,22.449,-0.78125,-0.78125,0.0
2277,22.459,-0.78125,-0.78125,0.0
2278,22.469,0.0,-0.78125,0.0
2279,22.479,0.0,0.0,0.0
2280,22.489,-0.78125,0.0,0.0
2281,22.499,-0.78125,0.0,0.0
2282,22.509,-0.78125,-0.78125,0.0
2283,22.519,-0.78125,0.0,0.0
2284,22.529,-0.78125,-0.78125,0.0
2285,22.539,-0.78125,0.0,0.0
2286,22.549,-0.78125,0.0,0.0
2287,22.559,-0.78125,-0.78125,0.0
2288,22.569,-0.78125,0.0,0.0
2289,22.579,-0.78125,0.0,0.0
2290,22.589,0.0,0.0,0.0
2291,22.599,0.0,-0.78125,0.0
2292,22.609,-0.78125,0.0,0.0
2293,22.619,-0.78125,0.0,0.0
2294,22.629,-0.78125,0.0,0.0
2295,22.639,-0.78125,0.0,0.0
2296,22.649,-0.78125,-0.78125,0.0
2297,22.659,0.0,-0.78125,0.0
2298,22.669,-0.78125,-0.78125,0.0
2299,22.679,-0.78125,0.0,0.0
2300,22.689,0.0,-0.78125,0.0
2301,22.699,-0.78125,0.0,0.0
2302,22.709,0.0,0.0,0.0
2303,22.719,0.0,0.0,0.0
2304,22.729,-0.78125,0.0,0.0
2305,22.739,0.0,0.0,0.0
2306,22.749,-0.78125,0.0,0.0
2307,22.759,-0.78125,0.0,0.0
2308,22.769,-0.78125,0.0,0.0
2309,22.779,-0.78125,0.0,0.0
2310,22.789,0.0,-0.78125,0.0
2311,22.799,-0.78125,0.0,0.0
2312,22.809,-0.78125,0.0,0.0
2313,22.819,-0.78125,0.0,0.0
2314,22.829,0.0,0.0,0.0
2315,22.839,0.0,0.0,0.0
2316,22.849,-0.78125,0.0,0.0
2317,22.859,-0.78125,0.0,0.0
2318,22.869,0.0,0.0,0.0
2319,22.879,0.0,0.0,0.0
2320,22.889,-0.78125,0.0,0.0
2321,22.899,0.0,-0.78125,0.0
2322,22.909,0.0,0.0,0.0
2323,22.919,-0.78125,0.0,0.0
2324,22.929,-0.78125,0.0,0.0
2325,22.939,0.0,0.0,0.0
2326,22.949,-0.78125,0.0,0.0
2327,22.959,0.0,0.0,0.0
2328,22.969,0.0,0.0,0.0
2329,22.979,-0.78125,-0.78125,0.0
2330,22.989,0.0,0.0,0.0
2331,22.999,-0.78125,0.0,0.0
2332,23.009,0.0,0.0,0.0
2333,23.019,-0.78125,-0.78125,0.0
2334,23.029,-0.78125,-0.78125,0.0
2335,23.039,-0.78125,0.0,0.0
2336,23.049,-0.78125,-0.78125,0.0
2337,23.059,0.0,-0.78125,0.0
2338,23.069,0.0,-0.78125,0.0
2339,23.079,0.0,-0.78125,0.0
2340,23.089,-0.78125,0.0,0.0
2341,23.099,-0.78125,0.0,0.0
2342,23.109,0.0,0.0,0.0
2343,23.119,0.0,-0.78125,0.0
2344,23.129,0.0,-0.78125,0.0
2345,23.139,-0.78125,0.0,0.0
2346,23.149,-0.78125,-0.78125,0.0
2347,23.159,0.0,0.0,0.0
2348,23.169,0.0,-0.78125,0.0
2349,23.179,0.0,0.0,0.0
2350,23.189,0.0,-0.78125,0.0
2351,23.199,0.0,-0.78125,0.0
2352,23.209,-0.78125,0.0,0.0
2353,23.219,0.0,0.0,0.0
2354,23.229,-0.78125,0.0,0.0
2355,23.239,0.0,0.0,0.0
2356,23.249,-0.78125,0.0,0.0
2357,23.259,-0.78125,0.0,0.0
2358,23.269,0.0,0.0,0.0
2359,23.279,-0.78125,-0.78125,0.0
2360,23.289,0.0,-0.78125,0.0
2361,23.299,0.0,-0.78125,0.0
2362,23.309,0.0,-0.78125,0.0
2363,23.319,0.0,0.0,0.0
2364,23.329,0.0,0.0,0.0
2365,23.339,0.0,0.0,0.0
2366,23.349,0.0,-0.78125,0.0
2367,23.359,-0.78125,0.0,0.0
2368,23.369,-0.78125,-0.78125,0.0
2369,23.379,-0.78125,-0.78125,0.0
2370,23.389,-0.78125,0.0,0.0
2371,23.399,-0.78125,0.0,0.0
2372,23.409,-0.78125,0.0,0.0
2373,23.419,0.0,0.0,0.0
2374,23.429,0.0,0.0,0.0
2375,23.439,0.0,0.0,0.0
2376,23.449,0.0,0.0,0.0
2377,23.459,0.0,0.0,0.0
2378,23.469,-0.78125,-0.78125,0.0
2379,23.479,-0.78125,0.0,0.0
2380,23.489,0.0,0.0,0.0
2381,23.499,0.0,-0.78125,0.0
2382,23.509,0.0,0.0,0.0
2383,23.519,0.0,0.0,0.0
2384,23.529,0.0,0.0,0.0
2385,23.539,0.0,-0.78125,0.0
2386,23.549,0.0,0.0,0.0
2387,23.559,0.0,0.0,0.0
2388,23.569,0.0,0.0,0.0
2389,23.579,-0.78125,-0.78125,0.0
2390,23.589,0.0,0.0,0.0
2391,23.599,0.0,0.0,0.0
2392,23.609,0.0,0.0,0.0
2393,23.619,0.0,0.0,0.0
2394,23.629,0.0,0.0,0.0
2395,23.639,-0.78125,-0.78125,0.0
2396,23.649,0.0,-0.78125,0.0
2397,23.659,-0.78125,-0.78125,0.0
2398,23.669,0.0,0.0,0.0
2399,23.679,0.0,0.0,0.0
2400,23.689,0.0,0.0,0.0
2401,23.699,0.0,0.0,0.0
2402,23.709,-0.78125,0.0,0.0
2403,23.719,0.0,0.0,0.0
2404,23.729,0.0,0.0,0.0
2405,23.739,-0.78125,-0.78125,0.0
2406,23.749,0.0,0.0,0.0
2407,23.759,0.0,0.0,0.0
2408,23.769,0.0,-0.78125,0.0
2409,23.779,0.0,-0.78125,0.0
2410,23.789,0.0,0.0,0.0
2411,23.799,0.0,0.0,0.0
2412,23.809,0.0,0.0,0.0
2413,23.819,-0.78125,0.0,0.0
2414,23.829,-0.78125,-0.78125,0.0
2415,23.839,-0.78125,-0.78125,0.0
2416,23.849,0.0,0.0,0.0
2417,23.859,0.0,0.0,0.0
2418,23.869,0.0,0.0,0.0
2419,23.879,0.0,0.0,0.0
2420,23.889,0.0,-0.78125,0.0
2421,23.899,0.0,0.0,0.0
2422,23.909,0.0,0.0,0.0
2423,23.919,0.0,-0.78125,0.0
2424,23.929,0.0,0.0,0.0
2425,23.939,-0.78125,-0.78125,0.0
2426,23.949,0.0,0.0,0.0
2427,23.959,-0.78125,-0.78125,0.0
2428,23.969,0.0,-0.78125,0.0
2429,23.979,0.0,-0.78125,0.0
2430,23.989,0.0,-0.78125,0.0
2431,23.999,0.0,-0.78125,0.0
2432,24.009,-0.78125,0.0,0.0
2433,24.019,-0.78125,-0.78125,0.0
2434,24.029,0.0,0.0,0.0
2435,24.039,0.0,0.0,0.0
2436,24.049,0.0,-0.78125,0.0
2437,24.059,0.0,0.0,0.0
2438,24.069,0.0,0.0,0.0
2439,24.079,0.0,0.0,0.0
2440,24.089,0.0,-0.78125,0.0
2441,24.099,0.0,-0.78125,0.0
2442,24.109,0.0,0.0,0.0
2443,24.119,0.0,0.0,0.0
2444,24.129,-0.78125,0.0,0.0
2445,24.139,0.0,-0.78125,0.0
2446,24.149,0.0,0.0,0.0
2447,24.159,0.0,0.0,0.0
2448,24.169,0.0,-0.78125,0.0
2449,24.179,0.0,0.0,0.0
2450,24.189,0.0,0.0,0.0
2451,24.199,0.0,-0.78125,0.0
2452,24.209,0.0,0.0,0.0
2453,24.219,-0.78125,-0.78125,0.0
2454,24.229,0.0,0.0,0.0
2455,24.239,0.0,-0.78125,0.0
2456,24.249,0.0,0.0,0.0
2457,24.259,0.0,0.0,0.0
2458,24.269,0.0,0.0,0.0
2459,24.279,0.0,-0.78125,0.0
2460,24.289,0.0,0.0,0.0
2461,24.299,-0.78125,-0.78125,0.0
2462,24.309,0.0,-0.78125,0.0
2463,24.319,0.0,0.0,0.0
2464,24.329,0.0,-0.78125,0.0
2465,24.339,0.0,0.0,0.0
2466,24.349,0.0,0.0,0.0
2467,24.359,0.0,0.0,0.0
2468,24.369,0.0,-0.78125,0.0
2469,24.379,-0.78125,-0.78125,0.0
2470,24.389,-0.78125,-0.78125,0.0
2471,24.399,0.0,0.0,0.0
2472,24.409,0.0,-0.78125,0.0
2473,24.419,0.0,0.0,0.0
2474,24.429,0.0,0.0,0.0
2475,24.439,0.0,0.0,0.0
2476,24.449,0.0,0.0,0.0
2477,24.459,0.0,0.0,0.0
2478,24.469,0.0,0.0,0.0
2479,24.479,0.0,-0.78125,0.0
2480,24.489,0.0,-0.78125,0.0
2481,24.499,0.0,-0.78125,0.0
2482,24.509,0.0,0.0,0.0
2483,24.519,0.0,-0.78125,0.0
2484,24.529,0.0,0.0,0.0
2485,24.539,0.0,0.0,0.0
2486,24.549,0.0,0.0,0.0
2487,24.559,0.0,0.0,0.0
2488,24.569,0.0,0.0,0.0
2489,24.579,0.0,0.0,0.0
2490,24.589,-0.78125,0.0,0.0
2491,24.599,0.0,0.0,0.0
2492,24.609,0.0,0.0,0.0
2493,24.619,0.0,0.0,0.0
2494,24.629,0.0,0.0,0.0
2495,24.639,0.0,0.0,0.0
2496,24.649,0.0,0.0,0.0
2497,24.659,-0.78125,0.0,0.0
2498,24.669,0.0,0.0,0.0
2499,24.679,-0.78125,0.0,0.0
2500,24.689,0.0,0.0,0.0
2501,24.699,0.0,0.0,0.0
2502,24.709,0.0,-0.78125,0.0
2503,24.719,0.0,-0.78125,0.0
2504,24.729,0.0,0.0,0.0
2505,24.739,0.0,0.0,0.0
2506,24.749,0.0,0.0,0.0
2507,24.759,0.0,0.0,0.0
2508,24.769,0.0,-0.78125,0.0
2509,24.779,0.0,0.0,0.0
2510,24.789,0.0,0.0,0.0
2511,24.799,0.0,-0.78125,0.0
2512,24.809,0.0,0.0,0.0
2513,24.819,0.0,0.0,0.0
2514,24.829,0.0,-0.78125,0.0
2515,24.839,0.0,0.0,0.0
2516,24.849,0.0,-0.78125,0.0
2517,24.859,0.0,0.0,0.0
2518,24.869,0.0,0.0,0.0
2519,24.879,0.0,0.0,0.0
2520,24.889,0.0,-0.78125,0.0
2521,24.899,0.0,-0.78125,0.0
2522,24.909,0.0,0.0,0.0
2523,24.919,0.0,0.0,0.0
2524,24.929,0.0,0.0,0.0
2525,24.939,0.0,-0.78125,0.0
2526,24.949,-0.78125,0.0,0.0
2527,24.959,0.0,0.0,0.0
2528,24.969,0.0,0.0,0.0
2529,24.979,0.0,0.0,0.0
2530,24.989,0.0,0.0,0.0
2531,24.999,0.0,0.0,0.0
2532,25.009,0.0,-0.78125,0.0
2533,25.019,0.0,0.0,0.0
2534,25.029,0.0,-0.78125,0.0
2535,25.039,0.0,0.0,0.0
2536,25.049,0.0,0.0,0.0
2537,25.059,0.0,0.0,0.0
2538,25.069,0.0,0.0,0.0
2539,25.079,0.0,0.0,0.0
2540,25.089,0.0,-0.78125,0.0
2541,25.099,0.0,-0.78125,0.0
2542,25.109,0.0,0.0,0.0
2543,25.119,0.0,0.0,0.0
2544,25.129,0.0,-0.78125,0.0
2545,25.139,0.0,0.0,0.0
2546,25.149,-0.78125,-0.78125,0.0
2547,25.159,0.0,0.0,0.0
2548,25.169,0.0,0.0,0.0
2549,25.179,0.0,-0.78125,0.0
2550,25.189,0.0,-0.78125,0.0
2551,25.199,0.0,0.0,0.0
2552,25.209,0.0,0.0,0.0
2553,25.219,0.0,0.0,0.0
2554,25.229,0.0,-0.78125,0.0
2555,25.239,0.0,-0.78125,0.0
2556,25.249,0.0,0.0,0.0
2557,25.259,0.0,0.0,0.0
2558,25.269,0.0,-0.78125,0.0
2559,25.279,0.0,0.0,0.0
2560,25.289,0.0,-0.78125,0.0
2561,25.299,0.0,0.0,0.0
2562,25.309,0.0,0.0,0.0
2563,25.319,0.0,-0.78125,0.0
2564,25.329,0.0,0.0,0.0
2565,25.339,0.0,0.0,0.0
2566,25.349,0.0,0.0,0.0
2567,25.359,-0.78125,-0.78125,0.0
2568,25.369,-0.78125,0.0,0.0
2569,25.379,0.0,0.0,0.0
2570,25.389,0.0,0.0,0.0
2571,25.399,0.0,0.0,0.0
2572,25.409,0.0,0.0,0.0
2573,25.419,0.0,0.0,0.0
2574,25.429,0.0,-0.78125,0.0
2575,25.439,0.0,-0.78125,0.0
2576,25.449,0.0,0.0,0.0
2577,25.459,0.0,-0.78125,0.0
2578,25.469,0.0,0.0,0.0
2579,25.479,0.0,-0.78125,0.0
2580,25.489,0.0,-0.78125,0.0
2581,25.499,0.0,0.0,0.0
2582,25.509,0.0,0.0,0.0
2583,25.519,0.0,-0.78125,0.0
2584,25.529,0.0,0.0,0.0
2585,25.539,0.0,0.0,0.0
2586,25.549,0.0,0.0,0.0
2587,25.559,0.0,0.0,0.0
2588,25.569,0.0,-0.78125,0.0
2589,25.579,0.0,0.0,0.0
2590,25.589,0.0,0.0,0.0
2591,25.599,0.0,-0.78125,0.0
2592,25.609,0.0,0.0,0.0
2593,25.619,0.0,-0.78125,0.0
2594,25.629,0.0,-0.78125,0.0
2595,25.639,0.0,-0.78125,0.0
2596,25.649,0.0,0.0,0.0
2597,25.659,0.0,-0.78125,0.0
2598,25.669,0.0,0.0,0.0
2599,25.679,0.0,-0.78125,0.0
2600,25.689,0.0,-0.78125,0.0
2601,25.699,0.0,0.0,0.0
2602,25.709,0.0,0.0,0.0
2603,25.719,0.0,-0.78125,0.0
2604,25.729,0.0,-0.78125,0.0
2605,25.739,0.0,0.0,0.0
2606,25.749,0.0,0.0,0.0
2607,25.759,0.0,0.0,0.0
2608,25.769,0.0,0.0,0.0
2609,25.779,0.0,0.0,0.0
2610,25.789,0.0,0.0,0.0
2611,25.799,0.0,0.0,0.0
2612,25.809,-0.78125,0.0,0.0
2613,25.819,0.0,-0.78125,0.0
2614,25.829,0.0,-0.78125,0.0
2615,25.839,0.0,0.0,0.0
2616,25.849,0.0,0.0,0.0
2617,25.859,0.0,0.0,0.0
2618,25.869,0.0,0.0,0.0
2619,25.879,0.0,0.0,0.0
2620,25.889,0.0,-0.78125,0.0
2621,25.899,0.0,0.0,0.0
2622,25.909,0.0,0.0,0.0
2623,25.919,0.0,0.0,0.0
2624,25.929,0.0,-0.78125,0.0
2625,25.939,0.0,0.0,0.0
2626,25.949,0.0,0.0,0.0
2627,25.959,0.0,0.0,0.0
2628,25.969,0.0,0.0,0.0
2629,25.979,0.0,0.0,0.0
2630,25.989,0.0,-0.78125,0.0
2631,25.999,0.0,0.0,0.0
2632,26.009,0.0,0.0,0.0
2633,26.019,0.0,0.0,0.0
2634,26.029,0.0,0.0,0.0
2635,26.039,0.0,-0.78125,0.0
2636,26.049,0.0,0.0,0.0
2637,26.059,0.0,0.0,0.0
2638,26.069,0.0,0.0,0.0
2639,26.079,0.0,-0.78125,0.0
2640,26.089,0.0,0.0,0.0
2641,26.099,0.0,0.0,0.0
2642,26.109,0.0,-0.78125,0.0
2643,26.119,0.0,-0.78125,0.0
2644,26.129,0.0,0.0,0.0
2645,26.139,0.0,0.0,0.0
2646,26.149,0.0,0.0,0.0
2647,26.159,0.0,0.0,0.0
2648,26.169,0.0,0.0,0.0
2649,26.179,0.0,-0.78125,0.0
2650,26.189,0.0,0.0,0.0
2651,26.199,0.0,0.0,0.0
2652,26.209,0.0,0.0,0.0
2653,26.219,0.0,-0.78125,0.0
2654,26.229,0.0,0.0,0.0
2655,26.239,0.0,0.0,0.0
2656,26.249,0.0,0.0,0.0
2657,26.259,0.0,-0.78125,0.0
2658,26.269,0.0,0.0,0.0
2659,26.279,0.0,0.0,0.0
2660,26.289,0.0,0.0,0.0
2661,26.299,0.0,0.0,0.0
2662,26.309,0.0,0.0,0.0
2663,26.319,0.0,0.0,0.0
2664,26.329,0.0,0.0,0.0
2665,26.339,0.0,0.0,0.0
2666,26.349,0.0,0.0,0.0
2667,26.359,0.0,-0.78125,0.0
2668,26.369,0.0,0.0,0.0
2669,26.379,0.0,0.0,0.0
2670,26.389,0.0,0.0,0.0
2671,26.399,0.0,0.0,0.0
2672,26.409,0.0,-0.78125,0.0
2673,26.419,0.0,0.0,0.0
2674,26.429,0.0,0.0,0.0
2675,26.439,0.0,0.0,0.0
2676,26.449,0.0,-0.78125,0.0
2677,26.459,0.0,0.0,0.0
2678,26.469,0.0,0.0,0.0
2679,26.479,0.0,0.0,0.0
2680,26.489,0.0,-0.78125,0.0
2681,26.499,0.0,0.0,0.0
2682,26.509,0.0,-0.78125,0.0
2683,26.519,0.0,0.0,0.0
2684,26.529,0.0,0.0,0.0
2685,26.539,0.0,0.0,0.0
2686,26.549,0.0,0.0,0.0
2687,26.559,0.0,0.0,0.0
2688,26.569,0.0,0.0,0.0
2689,26.579,0.0,0.0,0.0
2690,26.589,0.0,0.0,0.0
2691,26.599,0.0,0.0,0.0
2692,26.609,0.0,-0.78125,0.0
2693,26.619,0.0,0.0,0.0
2694,26.629,0.0,-0.78125,0.0
2695,26.639,0.0,0.0,0.0
2696,26.649,0.0,0.0,0.0
2697,26.659,0.0,0.0,0.0
2698,26.669,0.0,-0.78125,0.0
2699,26.679,0.0,0.0,0.0
2700,26.689,0.0,-0.78125,0.0
2701,26.699,0.0,0.0,0.0
2702,26.709,0.0,-0.78125,0.0
2703,26.719,0.0,-0.78125,0.0
2704,26.729,0.0,-0.78125,0.0
2705,26.739,0.0,0.0,0.0
2706,26.749,0.0,0.0,0.0
2707,26.759,0.0,0.0,0.0
2708,26.769,0.0,-0.78125,0.0
2709,26.779,0.0,0.0,0.0
2710,26.789,0.0,-0.78125,0.0
2711,26.799,0.0,0.0,0.0
2712,26.809,0.0,0.0,0.0
2713,26.819,0.0,-0.78125,0.0
2714,26.829,0.0,0.0,0.0
2715,26.839,0.0,-0.78125,0.0
2716,26.849,0.0,0.0,0.0
2717,26.859,0.0,0.0,0.0
2718,26.869,0.0,0.0,0.0
2719,26.879,0.0,0.0,0.0
2720,26.889,0.0,0.0,0.0
2721,26.899,0.0,0.0,0.0
2722,26.909,0.0,0.0,0.0
2723,26.919,0.0,0.0,0.0
2724,26.929,0.0,-0.78125,0.0
2725,26.939,0.0,0.0,0.0
2726,26.949,0.0,0.0,0.0
2727,26.959,0.0,0.0,0.0
2728,26.969,0.0,0.0,0.0
2729,26.979,0.0,-0.78125,0.0
2730,26.989,0.0,0.0,0.0
2731,26.999,0.0,0.0,0.0
2732,27.009,0.0,0.0,0.0
2733,27.019,0.0,-0.78125,0.0
2734,27.029,0.0,-0.78125,0.0
2735,27.039,0.0,0.0,0.0
2736,27.049,0.0,-0.78125,0.0
2737,27.059,0.0,0.0,0.0
2738,27.069,0.0,0.0,0.0
2739,27.079,0.0,0.0,0.0
2740,27.089,0.0,-0.78125,0.0
2741,27.099,0.0,-0.78125,0.0
2742,27.109,0.0,-0.78125,0.0
2743,27.119,0.0,0.0,0.0
2744,27.129,0.0,0.0,0.0
2745,27.139,0.0,-0.78125,0.0
2746,27.149,0.0,0.0,0.0
2747,27.159,0.0,0.0,0.0
2748,27.169,0.0,-0.78125,0.0
2749,27.179,0.0,0.0,0.0
2750,27.189,0.0,0.0,0.0
2751,27.199,0.0,0.0,0.0
2752,27.209,0.0,0.0,0.0
2753,27.219,0.0,0.0,0.0
2754,27.229,0.0,0.0,0.0
2755,27.239,0.0,-0.78125,0.0
2756,27.249,0.0,0.0,0.0
2757,27.259,0.0,0.0,0.0
2758,27.269,0.0,-0.78125,0.0
2759,27.279,0.0,-0.78125,0.0
2760,27.289,0.0,0.0,0.0
2761,27.299,0.0,0.0,0.0
2762,27.309,0.0,0.0,0.0
2763,27.319,0.0,0.0,0.0
2764,27.329,0.0,0.0,0.0
2765,27.339,0.0,0.0,0.0
2766,27.349,0.0,0.0,0.0
2767,27.359,0.0,-0.78125,0.0
2768,27.369,0.0,-0.78125,0.0
2769,27.379,0.0,-0.78125,0.0
2770,27.389,0.0,0.0,0.0
2771,27.399,0.0,-0.78125,0.0
2772,27.409,0.0,-0.78125,0.0
2773,27.419,0.0,0.0,0.0
2774,27.429,0.0,-0.78125,0.0
2775,27.439,0.0,-0.78125,0.0
2776,27.449,0.0,0.0,0.0
2777,27.459,0.0,0.0,0.0
2778,27.469,0.0,0.0,0.0
2779,27.479,0.0,0.0,0.0
2780,27.489,0.0,0.0,0.0
2781,27.499,0.0,0.0,0.0
2782,27.509,0.0,0.0,0.0
2783,27.519,0.0,-0.78125,0.0
2784,27.529,0.0,0.0,0.0
2785,27.539,0.0,-0.78125,0.0
2786,27.549,0.0,0.0,0.0
2787,27.559,0.0,0.0,0.0
2788,27.569,0.0,0.0,0.0
2789,27.579,0.0,0.0,0.0
2790,27.589,0.0,0.0,0.0
2791,27.599,0.0,-0.78125,0.0
2792,27.609,0.0,0.0,0.0
2793,27.619,0.0,-0.78125,0.0
2794,27.629,0.0,0.0,0.0
2795,27.639,0.0,0.0,0.0
2796,27.649,0.0,0.0,0.0
2797,27.659,0.0,0.0,0.0
2798,27.669,0.0,-0.78125,0.0
2799,27.679,0.0,-0.78125,0.0
2800,27.689,0.0,0.0,0.0
2801,27.699,0.0,-0.78125,0.0
2802,27.709,0.0,0.0,0.0
2803,27.719,0.0,0.0,0.0
2804,27.729,0.0,0.0,0.0
2805,27.739,0.0,0.0,0.0
2806,27.749,0.0,0.0,0.0
2807,27.759,0.0,0.0,0.0
2808,27.769,0.0,0.0,0.0
2809,27.779,0.0,0.0,0.0
2810,27.789,0.0,-0.78125,0.0
2811,27.799,0.0,0.0,0.0
2812,27.809,0.0,-0.78125,0.0
2813,27.819,0.0,-0.78125,0.0
2814,27.829,0.0,0.0,0.0
2815,27.839,0.0,0.0,0.0
2816,27.849,0.0,0.0,0.0
2817,27.859,0.0,0.0,0.0
2818,27.869,0.0,0.0,0.0
2819,27.879,0.0,0.0,0.0
2820,27.889,0.0,0.0,0.0
2821,27.899,0.0,0.0,0.0
2822,27.909,0.0,0.0,0.0
2823,27.919,0.0,0.0,0.0
2824,27.929,0.0,-0.78125,0.0
2825,27.939,0.0,0.0,0.0
2826,27.949,0.0,-0.78125,0.0
2827,27.959,0.0,-0.78125,0.0
2828,27.969,0.0,0.0,0.0
2829,27.979,0.0,0.0,0.0
2830,27.989,0.0,0.0,0.0
2831,27.999,0.0,0.0,0.0
2832,28.009,0.0,0.0,0.0
2833,28.019,0.0,0.0,0.0
2834,28.029,0.0,-0.78125,0.0
2835,28.039,0.0,0.0,0.0
2836,28.049,0.0,0.0,0.0
2837,28.059,0.0,0.0,0.0
2838,28.069,0.0,-0.78125,0.0
2839,28.079,0.0,0.0,0.0
2840,28.089,0.0,0.0,0.0
2841,28.099,0.0,0.0,0.0
2842,28.109,0.0,0.0,0.0
2843,28.119,0.0,0.0,0.0
2844,28.129,0.0,0.0,0.0
2845,28.139,0.0,0.0,0.0
2846,28.149,0.0,0.0,0.0
2847,28.159,0.0,0.0,0.0
2848,28.169,0.0,0.0,0.0
2849,28.179,0.0,0.0,0.0
2850,28.189,0.0,0.0,0.0
2851,28.199,0.0,0.0,0.0
2852,28.209,0.0,0.0,0.0
2853,28.219,0.0,0.0,0.0
2854,28.229,0.0,-0.78125,0.0
2855,28.239,0.0,0.0,0.0
2856,28.249,0.0,0.0,0.0
2857,28.259,0.0,0.0,0.0
2858,28.269,0.0,0.0,0.0
2859,28.279,0.0,-0.78125,0.0
2860,28.289,0.0,-0.78125,0.0
2861,28.299,0.0,0.0,0.0
2862,28.309,0.0,0.0,0.0
2863,28.319,0.0,0.0,0.0
2864,28.329,0.0,0.0,0.0
2865,28.339,0.0,0.0,0.0
2866,28.349,0.0,0.0,0.0
2867,28.359,0.0,0.0,0.0
2868,28.369,0.0,0.0,0.0
2869,28.379,0.0,0.0,0.0
2870,28.389,0.0,0.0,0.0
2871,28.399,0.0,0.0,0.0
2872,28.409,0.0,0.0,0.0
2873,28.419,0.0,0.0,0.0
2874,28.429,0.0,0.0,0.0
2875,28.439,0.0,0.0,0.0
2876,28.449,0.0,0.0,0.0
2877,28.459,0.0,0.0,0.0
2878,28.469,0.0,0.0,0.0
2879,28.479,0.0,-0.78125,0.0
2880,28.489,0.0,0.0,0.0
2881,28.499,0.0,0.0,0.0
2882,28.509,0.0,-0.78125,0.0
2883,28.519,0.0,0.0,0.0
2884,28.529,0.0,-0.78125,0.0
2885,28.539,0.0,0.0,0.0
2886,28.549,0.0,0.0,0.0
2887,28.559,0.0,0.0,0.0
2888,28.569,0.0,0.0,0.0
2889,28.579,0.0,0.0,0.0
2890,28.589,0.0,0.0,0.0
2891,28.599,0.0,0.0,0.0
2892,28.609,0.0,0.0,0.0
2893,28.619,0.0,0.0,0.0
2894,28.629,0.0,0.0,0.0
2895,28.639,0.0,0.0,0.0
2896,28.649,0.0,0.0,0.0
2897,28.659,0.0,0.0,0.0
2898,28.669,0.0,0.0,0.0
2899,28.679,0.0,0.0,0.0
2900,28.689,0.0,0.0,0.0
2901,28.699,0.0,0.0,0.0
2902,28.709,0.0,0.0,0.0
2903,28.719,0.0,0.0,0.0
2904,28.729,0.0,0.0,0.0
2905,28.739,0.0,0.0,0.0
2906,28.749,0.0,0.0,0.0
2907,28.759,0.0,0.0,0.0
2908,28.769,0.0,0.0,0.0
2909,28.779,0.0,-0.78125,0.0
2910,28.789,0.0,0.0,0.0
2911,28.799,0.0,0.0,0.0
2912,28.809,0.0,0.0,0.0
2913,28.819,0.0,0.0,0.0
2914,28.829,0.0,-0.78125,0.0
2915,28.839,0.0,0.0,0.0
2916,28.849,0.0,0.0,0.0
2917,28.859,0.0,0.0,0.0
2918,28.869,0.0,0.0,0.0
2919,28.879,0.0,-0.78125,0.0
2920,28.889,0.0,0.0,0.0
2921,28.899,0.0,0.0,0.0
2922,28.909,0.0,0.0,0.0
2923,28.919,0.0,0.0,0.0
2924,28.929,0.0,-0.78125,0.0
2925,28.939,0.0,0.0,0.0
2926,28.949,0.0,0.0,0.0
2927,28.959,0.0,-0.78125,0.0
2928,28.969,0.0,-0.78125,0.0
2929,28.979,0.0,0.0,0.0
2930,28.989,0.0,0.0,0.0
2931,28.999,0.0,0.0,0.0
2932,29.009,0.0,0.0,0.0
2933,29.019,0.0,0.0,0.0
2934,29.029,0.0,0.0,0.0
2935,29.039,0.0,0.0,0.0
2936,29.049,0.0,0.0,0.0
2937,29.059,0.0,-0.78125,0.0
2938,29.069,0.0,0.0,0.0
2939,29.079,0.0,-0.78125,0.0
2940,29.089,0.0,0.0,0.0
2941,29.099,0.0,0.0,0.0
2942,29.109,0.0,-0.78125,0.0
2943,29.119,0.0,0.0,0.0
2944,29.129,0.0,0.0,0.0
2945,29.139,0.0,-0.78125,0.0
2946,29.149,0.0,0.0,0.0
2947,29.159,0.0,0.0,0.0
2948,29.169,0.0,0.0,0.0
2949,29.179,0.0,-0.78125,0.0
2950,29.189,0.0,0.0,0.0
2951,29.199,0.0,0.0,0.0
2952,29.209,0.0,-0.78125,0.0
2953,29.219,0.0,0.0,0.0
2954,29.229,0.0,0.0,0.0
2955,29.239,0.0,-0.78125,0.0
2956,29.249,0.0,0.0,0.0
2957,29.259,0.0,0.0,0.0
2958,29.269,0.0,0.0,0.0
2959,29.279,0.0,0.0,0.0
2960,29.289,0.0,0.0,0.0
2961,29.299,0.0,-0.78125,0.0
2962,29.309,0.0,0.0,0.0
2963,29.319,0.0,0.0,0.0
2964,29.329,0.0,0.0,0.0
2965,29.339,0.0,-0.78125,0.0
2966,29.349,0.0,0.0,0.0
2967,29.359,0.0,0.0,0.0
2968,29.369,0.0,0.0,0.0
2969,29.379,0.0,0.0,0.0
2970,29.389,0.0,0.0,0.0
2971,29.399,0.0,-0.78125,0.0
2972,29.409,0.0,0.0,0.0
2973,29.419,0.0,0.0,0.0
2974,29.429,0.0,0.0,0.0
2975,29.439,0.0,0.0,0.0
2976,29.449,0.0,0.0,0.0
2977,29.459,0.0,0.0,0.0
2978,29.469,0.0,0.0,0.0
2979,29.479,0.0,-0.78125,0.0
2980,29.489,0.0,0.0,0.0
2981,29.499,0.0,0.0,0.0
2982,29.509,0.0,0.0,0.0
2983,29.519,0.0,-0.78125,0.0
2984,29.529,0.0,0.0,0.0
2985,29.539,0.0,0.0,0.0
2986,29.549,0.0,0.0,0.0
2987,29.559,0.0,0.0,0.0
2988,29.569,0.0,0.0,0.0
2989,29.579,0.0,0.0,0.0
2990,29.589,0.0,-0.78125,0.0
2991,29.599,0.0,-0.78125,0.0
2992,29.609,0.0,0.0,0.0
2993,29.619,0.0,-0.78125,0.0
2994,29.629,0.0,0.0,0.0
2995,29.639,0.0,0.0,0.0
2996,29.649,0.0,0.0,0.0
2997,29.659,0.0,0.0,0.0
2998,29.669,0.0,-0.78125,0.0
2999,29.679,0.0,0.0,0.0
3000,29.689,0.0,0.0,0.0
3001,29.699,0.0,0.0,0.0
3002,29.709,0.0,0.0,0.0
3003,29.719,0.0,0.0,0.0
3004,29.729,0.0,0.0,0.0
3005,29.739,0.0,0.0,0.0
3006,29.749,0.0,0.0,0.0
3007,29.759,0.0,0.0,0.0
3008,29.769,0.0,0.0,0.0
3009,29.779,0.0,-0.78125,0.0
3010,29.789,0.0,-0.78125,0.0
3011,29.799,0.0,0.0,0.0
3012,29.809,0.0,0.0,0.0
3013,29.819,0.0,-0.78125,0.0
3014,29.829,0.0,0.0,0.0
3015,29.839,0.0,0.0,0.0
3016,29.849,0.0,0.0,0.0
3017,29.859,0.0,0.0,0.0
3018,29.869,0.0,0.0,0.0
3019,29.879,0.0,0.0,0.0
3020,29.889,0.0,0.0,0.0
3021,29.899,0.0,0.0,0.0
3022,29.909,0.0,0.0,0.0
3023,29.919,0.0,0.0,0.0
3024,29.929,0.0,0.0,0.0
3025,29.939,0.0,0.0,0.0
3026,29.949,0.0,-0.78125,0.0
3027,29.959,0.0,0.0,0.0
3028,29.969,0.0,0.0,0.0
3029,29.979,0.0,0.0,0.0
3030,29.989,0.0,0.0,0.0
3031,29.999,0.0,0.0,0.0
3032,30.009,0.0,0.0,0.0
3033,30.019,0.0,-0.78125,0.0
3034,30.029,0.0,0.0,0.0
3035,30.039,0.0,0.0,0.0
3036,30.049,0.0,0.0,0.0
3037,30.059,0.0,0.0,0.0
3038,30.069,0.0,0.0,0.0
3039,30.079,0.0,0.0,0.0
3040,30.089,0.0,0.0,0.0
3041,30.099,0.0,0.0,0.0
3042,30.109,0.0,0.0,0.0
3043,30.119,0.0,-0.78125,0.0
3044,30.129,0.0,0.0,0.0
3045,30.139,0.0,-0.78125,0.0
3046,30.149,0.0,-0.78125,0.0
3047,30.159,0.0,0.0,0.0
3048,30.169,0.0,0.0,0.0
3049,30.179,0.0,0.0,0.0
3050,30.189,0.0,0.0,0.0
3051,30.199,0.0,0.0,0.0
3052,30.209,0.0,0.0,0.0
3053,30.219,0.0,0.0,0.0
3054,30.229,0.0,0.0,0.0
3055,30.239,0.0,0.0,0.0
3056,30.249,0.0,-0.78125,0.0
3057,30.259,0.0,0.0,0.0
3058,30.269,0.0,0.0,0.0
3059,30.279,0.0,0.0,0.0
3060,30.289,0.0,0.0,0.0
3061,30.299,0.0,-0.78125,0.0
3062,30.309,0.0,0.0,0.0
3063,30.319,0.0,0.0,0.0
3064,30.329,0.0,-0.78125,0.0
3065,30.339,0.0,0.0,0.0
3066,30.349,0.0,0.0,0.0
3067,30.359,0.0,0.0,0.0
3068,30.369,0.0,0.0,0.0
3069,30.379,0.0,0.0,0.0
3070,30.389,0.0,0.0,0.0
3071,30.399,0.0,0.0,0.0
3072,30.409,0.0,-0.78125,0.0
3073,30.419,0.0,0.0,0.0
3074,30.429,0.0,-0.78125,0.0
3075,30.439,0.0,0.0,0.0
3076,30.449,0.0,0.0,0.0
3077,30.459,0.0,0.0,0.0
3078,30.469,0.0,0.0,0.0
3079,30.479,0.0,0.0,0.0
3080,30.489,0.0,0.0,0.0
3081,30.499,0.0,0.0,0.0
3082,30.509,0.0,0.0,0.0
3083,30.519,0.0,0.0,0.0
3084,30.529,0.0,-0.78125,0.0
3085,30.539,0.0,0.0,0.0
3086,30.549,0.0,0.0,0.0
3087,30.559,0.0,0.0,0.0
3088,30.569,0.0,0.0,0.0
3089,30.579,0.0,0.0,0.0
3090,30.589,0.0,0.0,0.0
3091,30.599,0.0,0.0,0.0
3092,30.609,0.0,0.0,0.0
3093,30.619,0.0,0.0,0.0
3094,30.629,0.0,0.0,0.0
3095,30.639,0.0,0.0,0.0
3096,30.649,0.0,-0.78125,0.0
3097,30.659,0.0,0.0,0.0
3098,30.669,0.0,0.0,0.0
3099,30.679,0.0,-0.78125,0.0
3100,30.689,0.0,-0.78125,0.0
3101,30.699,0.0,-0.78125,0.0
3102,30.709,0.0,0.0,0.0
3103,30.719,0.0,-0.78125,0.0
3104,30.729,0.0,0.0,0.0
3105,30.739,0.0,0.0,0.0
3106,30.749,0.0,0.0,0.0
3107,30.759,0.0,0.0,0.0
3108,30.769,0.0,0.0,0.0
3109,30.779,0.0,0.0,0.0
3110,30.789,0.0,0.0,0.0
3111,30.799,0.0,0.0,0.0
3112,30.809,0.0,0.0,0.0
3113,30.819,0.0,0.0,0.0
3114,30.829,0.0,0.0,0.0
3115,30.839,0.0,0.0,0.0
3116,30.849,0.0,0.0,0.0
3117,30.859,0.0,-0.78125,0.0
3118,30.869,0.0,0.0,0.0
3119,30.879,0.0,0.0,0.0
3120,30.889,0.0,0.0,0.0
3121,30.899,0.0,0.0,0.0
3122,30.909,0.0,0.0,0.0
3123,30.919,0.0,0.0,0.0
3124,30.929,0.0,0.0,0.0
3125,30.939,0.0,0.0,0.0
3126,30.949,0.0,0.0,0.0
3127,30.959,0.0,0.0,0.0
3128,30.969,0.0,-0.78125,0.0
3129,30.979,0.0,0.0,0.0
3130,30.989,0.0,0.0,0.0
3131,30.999,0.0,0.0,0.0
3132,31.009,0.0,0.0,0.0
3133,31.019,0.0,-0.78125,0.0
3134,31.029,0.0,-0.78125,0.0
3135,31.039,0.0,-0.78125,0.0
3136,31.049,0.0,-0.78125,0.0
3137,31.059,0.0,-0.78125,0.0
3138,31.069,0.0,0.0,0.0
3139,31.079,0.0,0.0,0.0
3140,31.089,0.0,0.0,0.0
3141,31.099,0.0,0.0,0.0
3142,31.109,0.0,0.0,0.0
3143,31.119,0.0,-0.78125,0.0
3144,31.129,0.0,0.0,0.0
3145,31.139,0.0,0.0,0.0
3146,31.149,0.0,0.0,0.0
3147,31.159,0.0,0.0,0.0
3148,31.169,0.0,-0.78125,0.0
3149,31.179,0.0,0.0,0.0
3150,31.189,0.0,-0.78125,0.0
3151,31.199,0.0,0.0,0.0
3152,31.209,0.0,0.0,0.0
3153,31.219,0.0,0.0,0.0
3154,31.229,0.0,-0.78125,0.0
3155,31.239,0.0,-0.78125,0.0
3156,31.249,0.0,-0.78125,0.0
3157,31.259,0.0,-0.78125,0.0
3158,31.269,0.0,0.0,0.0
3159,31.279,0.0,0.0,0.0
3160,31.289,0.0,-0.78125,0.0
3161,31.299,0.0,0.0,0.0
3162,31.309,0.0,-0.78125,0.0
3163,31.319,0.0,0.0,0.0
3164,31.329,0.0,0.0,0.0
3165,31.339,0.0,0.0,0.0
3166,31.349,0.0,0.0,0.0
3167,31.359,0.0,0.0,0.0
3168,31.369,0.0,0.0,0.0
3169,31.379,0.0,-0.78125,0.0
3170,31.389,0.0,0.0,0.0
3171,31.399,0.0,0.0,0.0
3172,31.409,0.0,0.0,0.0
3173,31.419,0.0,0.0,0.0
3174,31.429,0.0,0.0,0.0
3175,31.439,0.0,0.0,0.0
3176,31.449,0.0,0.0,0.0
3177,31.459,0.0,-0.78125,0.0
3178,31.469,0.0,0.0,0.0
3179,31.479,0.0,0.0,0.0
3180,31.489,0.0,-0.78125,0.0
3181,31.499,0.0,0.0,0.0
3182,31.509,0.0,0.0,0.0
3183,31.519,0.0,-0.78125,0.0
3184,31.529,0.0,0.0,0.0
3185,31.539,0.0,0.0,0.0
3186,31.549,0.0,0.0,0.0
3187,31.559,0.0,-0.78125,0.0
3188,31.569,0.0,0.0,0.0
3189,31.579,0.0,0.0,0.0
3190,31.589,0.0,0.0,0.0
3191,31.599,0.0,0.0,0.0
3192,31.609,0.0,0.0,0.0
3193,31.619,0.0,-0.78125,0.0
3194,31.629,0.0,-0.78125,0.0
3195,31.639,0.0,0.0,0.0
3196,31.649,0.0,0.0,0.0
3197,31.659,0.0,-0.78125,0.0
3198,31.669,0.0,0.0,0.0
3199,31.679,0.0,0.0,0.0
3200,31.689,0.0,0.0,0.0
3201,31.699,0.0,-0.78125,0.0
3202,31.709,0.0,0.0,0.0
3203,31.719,0.0,0.0,0.0
3204,31.729,0.0,-0.78125,0.0
3205,31.739,0.0,-0.78125,0.0
3206,31.749,0.0,0.0,0.0
3207,31.759,0.0,0.0,0.0
3208,31.769,0.0,-0.78125,0.0
3209,31.779,0.0,0.0,0.0
3210,31.789,0.0,0.0,0.0
3211,31.799,0.0,0.0,0.0
3212,31.809,0.0,0.0,0.0
3213,31.819,0.0,0.0,0.0
3214,31.829,0.0,-0.78125,0.0
3215,31.839,0.0,-0.78125,0.0
3216,31.849,0.0,0.0,0.0
3217,31.859,0.0,0.0,0.0
3218,31.869,0.0,0.0,0.0
3219,31.879,0.0,0.0,0.0
3220,31.889,0.0,-0.78125,0.0
3221,31.899,0.0,0.0,0.0
3222,31.909,0.0,0.0,0.0
3223,31.919,0.0,0.0,0.0
3224,31.929,0.0,0.0,0.0
3225,31.939,0.0,-0.78125,0.0
3226,31.949,0.0,0.0,0.0
3227,31.959,0.0,0.0,0.0
3228,31.969,0.0,-0.78125,0.0
3229,31.979,0.0,0.0,0.0
3230,31.989,0.0,0.0,0.0
3231,31.999,0.0,0.0,0.0
3232,32.009,0.0,0.0,0.0
3233,32.019,0.0,0.0,0.0
3234,32.029,0.0,0.0,0.0
3235,32.039,0.0,0.0,0.0
3236,32.049,0.0,-0.78125,0.0
3237,32.059,0.0,0.0,0.0
3238,32.069,0.0,0.0,0.0
3239,32.079,0.0,0.0,0.0
3240,32.089,0.0,-0.78125,0.0
3241,32.099,0.0,0.0,0.0
3242,32.109,0.0,0.0,0.0
3243,32.119,0.0,0.0,0.0
3244,32.129,0.0,0.0,0.0
3245,32.139,0.0,0.0,0.0
3246,32.149,0.0,0.0,0.0
3247,32.159,0.0,0.0,0.0
3248,32.169,0.0,-0.78125,0.0
3249,32.179,0.0,0.0,0.0
3250,32.189,0.0,0.0,0.0
3251,32.199,0.0,-0.78125,0.0
3252,32.209,0.0,-0.78125,0.0
3253,32.219,0.0,0.0,0.0
3254,32.229,0.0,0.0,0.0
3255,32.239,0.0,0.0,0.0
3256,32.249,0.0,-0.78125,0.0
3257,32.259,0.0,-0.78125,0.0
3258,32.269,0.0,0.0,0.0
3259,32.279,0.0,0.0,0.0
3260,32.289,0.0,-0.78125,0.0
3261,32.299,0.0,0.0,0.0
3262,32.309,0.0,0.0,0.0
3263,32.319,0.0,0.0,0.0
3264,32.329,0.0,0.0,0.0
3265,32.339,0.0,0.0,0.0
3266,32.349,0.0,0.0,0.0
3267,32.359,0.0,0.0,0.0
3268,32.369,0.0,0.0,0.0
3269,32.379,0.0,-0.78125,0.0
3270,32.389,0.0,0.0,0.0
3271,32.399,0.0,-0.78125,0.0
3272,32.409,0.0,0.0,0.0
3273,32.419,0.0,0.0,0.0
3274,32.429,0.0,0.0,0.0
3275,32.439,0.0,0.0,0.0
3276,32.449,0.0,0.0,0.0
3277,32.459,0.0,0.0,0.0
3278,32.469,0.0,0.0,0.0
3279,32.479,0.0,0.0,0.0
3280,32.489,0.0,0.0,0.0
3281,32.499,0.0,0.0,0.0
3282,32.509,0.0,0.0,0.0
3283,32.519,0.0,0.0,0.0
3284,32.529,0.0,0.0,0.0
3285,32.539,0.0,0.0,0.0
3286,32.549,0.0,-0.78125,0.0
3287,32.559,0.0,-0.78125,0.0
3288,32.569,0.0,0.0,0.0
3289,32.579,0.0,0.0,0.0
3290,32.589,0.0,0.0,0.0
3291,32.599,0.0,0.0,0.0
3292,32.609,0.0,0.0,0.0
3293,32.619,0.0,0.0,0.0
3294,32.629,0.0,0.0,0.0
3295,32.639,0.0,0.0,0.0
3296,32.649,0.0,0.0,0.0
3297,32.659,0.0,0.0,0.0
3298,32.669,0.0,0.0,0.0
3299,32.679,0.0,-0.78125,0.0
3300,32.689,0.0,0.0,0.0
3301,32.699,0.0,-0.78125,0.0
3302,32.709,0.0,0.0,0.0
3303,32.719,0.0,0.0,0.0
3304,32.729,0.0,0.0,0.0
3305,32.739,0.0,0.0,0.0
3306,32.749,0.0,-0.78125,0.0
3307,32.759,0.0,0.0,0.0
3308,32.769,0.0,0.0,0.0
3309,32.779,0.0,0.0,0.0
3310,32.789,0.0,0.0,0.0
3311,32.799,0.0,0.0,0.0
3312,32.809,0.0,0.0,0.0
3313,32.819,0.0,0.0,0.0
3314,32.829,0.0,0.0,0.0
3315,32.839,0.0,0.0,0.0
3316,32.849,0.0,0.0,0.0
3317,32.859,0.0,0.0,0.0
3318,32.869,0.0,0.0,0.0
3319,32.879,0.0,-0.78125,0.0
3320,32.889,0.0,0.0,0.0
3321,32.899,0.0,-0.78125,0.0
3322,32.909,0.0,-0.78125,0.0
3323,32.919,0.0,-0.78125,0.0
3324,32.929,0.0,0.0,0.0
3325,32.939,0.0,-0.78125,0.0
3326,32.949,0.0,0.0,0.0
3327,32.959,0.0,0.0,0.0
3328,32.969,0.0,0.0,0.0
3329,32.979,0.0,0.0,0.0
3330,32.989,0.0,0.0,0.0
3331,32.999,0.0,0.0,0.0
3332,33.009,0.0,0.0,0.0
3333,33.019,0.0,0.0,0.0
3334,33.029,0.0,-0.78125,0.0
3335,33.039,0.0,-0.78125,0.0
3336,33.049,0.0,0.0,0.0
3337,33.059,0.0,0.0,0.0
3338,33.069,0.0,0.0,0.0
3339,33.079,0.0,0.0,0.0
3340,33.089,0.0,0.0,0.0
3341,33.099,0.0,0.0,0.0
3342,33.109,0.0,0.0,0.0
3343,33.119,0.0,0.0,0.0
3344,33.129,0.0,0.0,0.0
3345,33.139,0.0,0.0,0.0
3346,33.149,0.0,0.0,0.0
3347,33.159,0.0,0.0,0.0
3348,33.169,0.0,0.0,0.0
3349,33.179,0.0,0.0,0.0
3350,33.189,0.0,0.0,0.0
3351,33.199,0.0,-0.78125,0.0
3352,33.209,0.0,0.0,0.0
3353,33.219,0.0,0.0,0.0
3354,33.229,0.0,0.0,0.0
3355,33.239,0.0,0.0,0.0
3356,33.249,0.0,0.0,0.0
3357,33.259,0.0,-0.78125,0.0
3358,33.269,0.0,0.0,0.0
3359,33.279,0.0,-0.78125,0.0
3360,33.289,0.0,-0.78125,0.0
3361,33.299,0.0,0.0,0.0
3362,33.309,0.0,0.0,0.0
3363,33.319,0.0,0.0,0.0
3364,33.329,0.0,0.0,0.0
3365,33.339,0.0,0.0,0.0
3366,33.349,0.0,0.0,0.0
3367,33.359,0.0,0.0,0.0
3368,33.369,0.0,-0.78125,0.0
3369,33.379,0.0,0.0,0.0
3370,33.389,0.0,0.0,0.0
3371,33.399,0.0,-0.78125,0.0
3372,33.409,0.0,0.0,0.0
3373,33.419,0.0,-0.78125,0.0
3374,33.429,0.0,0.0,0.0
3375,33.439,0.0,0.0,0.0
3376,33.449,0.0,0.0,0.0
3377,33.459,0.0,0.0,0.0
3378,33.469,0.0,0.0,0.0
3379,33.479,0.0,-0.78125,0.0
3380,33.489,0.0,0.0,0.0
3381,33.499,0.0,0.0,0.0
3382,33.509,0.0,-0.78125,0.0
3383,33.519,0.0,0.0,0.0
3384,33.529,0.0,0.0,0.0
3385,33.539,0.0,0.0,0.0
3386,33.549,0.0,-0.78125,0.0
3387,33.559,0.0,0.0,0.0
3388,33.569,0.0,0.0,0.0
3389,33.579,0.0,-0.78125,0.0
3390,33.589,0.0,0.0,0.0
3391,33.599,0.0,0.0,0.0
3392,33.609,0.0,0.0,0.0
3393,33.619,0.0,0.0,0.0
3394,33.629,0.0,0.0,0.0
3395,33.639,0.0,0.0,0.0
3396,33.649,0.0,0.0,0.0
3397,33.659,0.0,0.0,0.0
3398,33.669,0.0,0.0,0.0
3399,33.679,0.0,-0.78125,0.0
3400,33.689,0.0,0.0,0.0
3401,33.699,0.0,0.0,0.0
3402,33.709,0.0,0.0,0.0
3403,33.719,0.0,0.0,0.0
3404,33.729,0.0,-0.78125,0.0
3405,33.739,0.0,-0.78125,0.0
3406,33.749,0.0,0.0,0.0
3407,33.759,0.0,-0.78125,0.0
3408,33.769,0.0,0.0,0.0
3409,33.779,0.0,0.0,0.0
3410,33.789,0.0,0.0,0.0
3411,33.799,0.0,-0.78125,0.0
3412,33.809,0.0,-0.78125,0.0
3413,33.819,0.0,-0.78125,0.0
3414,33.829,0.0,0.0,0.0
3415,33.839,0.0,0.0,0.0
3416,33.849,0.0,0.0,0.0
3417,33.859,0.0,0.0,0.0
3418,33.869,0.0,-0.78125,0.0
3419,33.879,0.0,-0.78125,0.0
3420,33.889,0.0,-0.78125,0.0
3421,33.899,0.0,0.0,0.0
3422,33.909,0.0,0.0,0.0
3423,33.919,0.0,-0.78125,0.0
3424,33.929,0.0,-0.78125,0.0
3425,33.939,0.0,0.0,0.0
3426,33.949,0.0,0.0,0.0
3427,33.959,0.0,0.0,0.0
3428,33.969,0.0,0.0,0.0
3429,33.979,0.0,0.0,0.0
3430,33.989,0.0,0.0,0.0
3431,33.999,0.0,0.0,0.0
3432,34.009,0.0,0.0,0.0
3433,34.019,0.0,0.0,0.0
3434,34.029,0.0,-0.78125,0.0
3435,34.039,0.0,-0.78125,0.0
3436,34.049,0.0,0.0,0.0
3437,34.059,0.0,0.0,0.0
3438,34.069,0.0,-0.78125,0.0
3439,34.079,0.0,-0.78125,0.0
3440,34.089,0.0,0.0,0.0
3441,34.099,0.0,-0.78125,0.0
3442,34.109,0.0,0.0,0.0
3443,34.119,0.0,0.0,0.0
3444,34.129,0.0,0.0,0.0
3445,34.139,0.0,0.0,0.0
3446,34.149,0.0,0.0,0.0
3447,34.159,0.0,-0.78125,0.0
3448,34.169,0.0,0.0,0.0
3449,34.179,0.0,0.0,0.0
3450,34.189,0.0,0.0,0.0
3451,34.199,0.0,-0.78125,0.0
3452,34.209,0.0,0.0,0.0
3453,34.219,0.0,-0.78125,0.0
3454,34.229,0.0,0.0,0.0
3455,34.239,0.0,0.0,0.0
3456,34.249,0.0,0.0,0.0
3457,34.259,0.0,0.0,0.0
3458,34.269,0.0,0.0,0.0
3459,34.279,0.0,0.0,0.0
3460,34.289,0.0,0.0,0.0
3461,34.299,0.0,0.0,0.0
3462,34.309,0.0,0.0,0.0
3463,34.319,0.0,0.0,0.0
3464,34.329,0.0,0.0,0.0
3465,34.339,0.0,0.0,0.0
3466,34.349,0.0,0.0,0.0
3467,34.359,0.0,0.0,0.0
3468,34.369,0.0,-0.78125,0.0
3469,34.379,0.0,0.0,0.0
3470,34.389,0.0,0.0,0.0
3471,34.399,0.0,0.0,0.0
3472,34.409,0.0,-0.78125,0.0
3473,34.419,0.0,0.0,0.0
3474,34.429,0.0,-0.78125,0.0
3475,34.439,0.0,0.0,0.0
3476,34.449,0.0,0.0,0.0
3477,34.459,0.0,-0.78125,0.0
3478,34.469,0.0,0.0,0.0
3479,34.479,0.0,0.0,0.0
3480,34.489,0.0,-0.78125,0.0
3481,34.499,0.0,0.0,0.0
3482,34.509,0.0,0.0,0.0
3483,34.519,0.0,-0.78125,0.0
3484,34.529,0.0,0.0,0.0
3485,34.539,0.0,0.0,0.0
3486,34.549,0.0,0.0,0.0
3487,34.559,0.0,0.0,0.0
3488,34.569,0.0,0.0,0.0
3489,34.579,0.0,0.0,0.0
3490,34.589,0.0,0.0,0.0
3491,34.599,0.0,-0.78125,0.0
3492,34.609,0.0,0.0,0.0
3493,34.619,0.0,0.0,0.0
3494,34.629,0.0,0.0,0.0
3495,34.639,0.0,0.0,0.0
3496,34.649,0.0,0.0,0.0
3497,34.659,0.0,0.0,0.0
3498,34.669,0.0,0.0,0.0
3499,34.679,0.0,0.0,0.0
3500,34.689,0.0,0.0,0.0
3501,34.699,0.0,-0.78125,0.0
3502,34.709,0.0,0.0,0.0
3503,34.719,0.0,0.0,0.0
3504,34.729,0.0,0.0,0.0
3505,34.739,0.0,0.0,0.0
3506,34.749,0.0,0.0,0.0
3507,34.759,0.0,0.0,0.0
3508,34.769,0.0,0.0,0.0
3509,34.779,0.0,0.0,0.0
3510,34.789,0.0,0.0,0.0
3511,34.799,0.0,0.0,0.0
3512,34.809,0.0,0.0,0.0
3513,34.819,0.0,0.0,0.0
3514,34.829,0.0,0.0,0.0
3515,34.839,0.0,0.0,0.0
3516,34.849,0.0,0.0,0.0
3517,34.859,0.0,-0.78125,0.0
3518,34.869,0.0,0.0,0.0
3519,34.879,0.0,0.0,0.0
3520,34.889,0.0,0.0,0.0
3521,34.899,0.0,0.0,0.0
3522,34.909,0.0,0.0,0.0
3523,34.919,0.0,0.0,0.0
3524,34.929,0.0,0.0,0.0
3525,34.939,0.0,-0.78125,0.0
3526,34.949,0.0,0.0,0.0
3527,34.959,0.0,0.0,0.0
3528,34.969,0.0,-0.78125,0.0
3529,34.979,0.0,0.0,0.0
3530,34.989,0.0,0.0,0.0
3531,34.999,0.0,0.0,0.0
3532,35.009,0.0,0.0,0.0
3533,35.019,0.0,0.0,0.0
3534,35.029,0.0,0.0,0.0
3535,35.039,0.0,0.0,0.0
3536,35.049,0.0,0.0,0.0
3537,35.059,0.0,0.0,0.0
3538,35.069,0.0,0.0,0.0
3539,35.079,0.0,0.0,0.0
3540,35.089,0.0,0.0,0.0
3541,35.099,0.0,0.0,0.0
3542,35.109,0.0,-0.78125,0.0
3543,35.119,0.0,0.0,0.0
3544,35.129,0.0,0.0,0.0
3545,35.139,0.0,-0.78125,0.0
3546,35.149,0.0,0.0,0.0
3547,35.159,0.0,0.0,0.0
3548,35.169,0.0,0.0,0.0
3549,35.179,0.0,0.0,0.0
3550,35.189,0.0,0.0,0.0
3551,35.199,0.0,0.0,0.0
3552,35.209,0.0,0.0,0.0
3553,35.219,0.0,0.0,0.0
3554,35.229,0.0,0.0,0.0
3555,35.239,0.0,-0.78125,0.0
3556,35.249,0.0,0.0,0.0
3557,35.259,0.0,0.0,0.0
3558,35.269,0.0,0.0,0.0
3559,35.279,0.0,0.0,0.0
3560,35.289,0.0,0.0,0.0
3561,35.299,0.0,-0.78125,0.0
3562,35.309,0.0,-0.78125,0.0
3563,35.319,0.0,0.0,0.0
3564,35.329,0.0,0.0,0.0
3565,35.339,0.0,-0.78125,0.0
3566,35.349,0.0,0.0,0.0
3567,35.359,0.0,0.0,0.0
3568,35.369,0.0,0.0,0.0
3569,35.379,0.0,0.0,0.0
3570,35.389,0.0,0.0,0.0
3571,35.399,0.0,-0.78125,0.0
3572,35.409,0.0,0.0,0.0
3573,35.419,0.0,0.0,0.0
3574,35.429,0.0,0.0,0.0
3575,35.439,0.0,0.0,0.0
3576,35.449,0.0,0.0,0.0
3577,35.459,0.0,0.0,0.0
3578,35.469,0.0,0.0,0.0
3579,35.479,0.0,0.0,0.0
3580,35.489,0.0,0.0,0.0
3581,35.499,0.0,-0.78125,0.0
3582,35.509,0.0,0.0,0.0
3583,35.519,0.0,0.0,0.0
3584,35.529,0.0,0.0,0.0
3585,35.539,0.0,0.0,0.0
3586,35.549,0.0,0.0,0.0
3587,35.559,0.0,0.0,0.0
3588,35.569,0.0,-0.78125,0.0
3589,35.579,0.0,0.0,0.0
3590,35.589,0.0,0.0,0.0
3591,35.599,0.0,0.0,0.0
3592,35.609,0.0,0.0,0.0
3593,35.619,0.0,0.0,0.0
3594,35.629,0.0,0.0,0.0
3595,35.639,0.0,0.0,0.0
3596,35.649,0.0,0.0,0.0
3597,35.659,0.0,0.0,0.0
3598,35.669,0.0,-0.78125,0.0
3599,35.679,0.0,0.0,0.0
3600,35.689,0.0,0.0,0.0
3601,35.699,0.0,0.0,0.0
3602,35.709,0.0,0.0,0.0
3603,35.719,0.0,-0.78125,0.0
3604,35.729,0.0,0.0,0.0
3605,35.739,0.0,0.0,0.0
3606,35.749,0.0,0.0,0.0
3607,35.759,0.0,0.0,0.0
3608,35.769,0.0,-0.78125,0.0
3609,35.779,0.0,0.0,0.0
3610,35.789,0.0,0.0,0.0
3611,35.799,0.0,0.0,0.0
3612,35.809,0.0,0.0,0.0
3613,35.819,0.0,0.0,0.0
3614,35.829,0.0,0.0,0.0
3615,35.839,0.0,0.0,0.0
3616,35.849,0.0,-0.78125,0.0
3617,35.859,0.0,0.0,0.0
3618,35.869,0.0,0.0,0.0
3619,35.879,0.0,0.0,0.0
3620,35.889,0.0,-0.78125,0.0
3621,35.899,0.0,-0.78125,0.0
3622,35.909,0.0,0.0,0.0
3623,35.919,0.0,-0.78125,0.0
3624,35.929,0.0,0.0,0.0
3625,35.939,0.0,0.0,0.0
3626,35.949,0.0,0.0,0.0
3627,35.959,0.0,0.0,0.0
3628,35.969,0.0,0.0,0.0
3629,35.979,0.0,-0.78125,0.0
3630,35.989,0.0,-0.78125,0.0
3631,35.999,0.0,0.0,0.0
3632,36.009,0.0,0.0,0.0
3633,36.019,0.0,0.0,0.0
3634,36.029,0.0,0.0,0.0
3635,36.039,0.0,0.0,0.0
3636,36.049,0.0,0.0,0.0
3637,36.059,0.0,-0.78125,0.0
3638,36.069,0.0,-0.78125,0.0
3639,36.079,0.0,0.0,0.0
3640,36.089,0.0,0.0,0.0
3641,36.099,0.0,-0.78125,0.0
3642,36.109,0.0,0.0,0.0
3643,36.119,0.0,0.0,0.0
3644,36.129,0.0,0.0,0.0
3645,36.139,0.0,0.0,0.0
3646,36.149,0.0,0.0,0.0
3647,36.159,0.0,-0.78125,0.0
3648,36.169,0.0,0.0,0.0
3649,36.179,0.0,0.0,0.0
3650,36.189,0.0,0.0,0.0
3651,36.199,0.0,-0.78125,0.0
3652,36.209,0.0,-0.78125,0.0
3653,36.219,0.0,0.0,0.0
3654,36.229,0.0,0.0,0.0
3655,36.239,0.0,0.0,0.0
3656,36.249,0.0,-0.78125,0.0
3657,36.259,0.0,0.0,0.0
3658,36.269,0.0,0.0,0.0
3659,36.279,0.0,-0.78125,0.0
3660,36.289,0.0,0.0,0.0
3661,36.299,0.0,0.0,0.0
3662,36.309,0.0,0.0,0.0
3663,36.319,0.0,-0.78125,0.0
3664,36.329,0.0,-0.78125,0.0
3665,36.339,0.0,0.0,0.0
3666,36.349,0.0,0.0,0.0
3667,36.359,0.0,-0.78125,0.0
3668,36.369,0.0,0.0,0.0
3669,36.379,0.0,0.0,0.0
3670,36.389,0.0,0.0,0.0
3671,36.399,0.0,0.0,0.0
3672,36.409,0.0,0.0,0.0
3673,36.419,0.0,0.0,0.0
3674,36.429,0.0,0.0,0.0
3675,36.439,0.0,0.0,0.0
3676,36.449,0.0,0.0,0.0
3677,36.459,0.0,0.0,0.0
3678,36.469,0.0,0.0,0.0
3679,36.479,0.0,0.0,0.0
3680,36.489,0.0,0.0,0.0
3681,36.499,0.0,0.0,0.0
3682,36.509,0.0,0.0,0.0
3683,36.519,0.0,-0.78125,0.0
3684,36.529,0.0,0.0,0.0
3685,36.539,0.0,0.0,0.0
3686,36.549,0.0,0.0,0.0
3687,36.559,0.0,0.0,0.0
3688,36.569,0.0,0.0,0.0
3689,36.579,0.0,-0.78125,0.0
3690,36.589,0.0,0.0,0.0
3691,36.599,0.0,0.0,0.0
3692,36.609,0.0,0.0,0.0
3693,36.619,0.0,0.0,0.0
3694,36.629,0.0,0.0,0.0
3695,36.639,0.0,0.0,0.0
3696,36.649,0.0,0.0,0.0
3697,36.659,0.0,0.0,0.0
3698,36.669,0.0,0.0,0.0
3699,36.679,0.0,0.0,0.0
3700,36.689,0.0,0.0,0.0
3701,36.699,0.0,0.0,0.0
3702,36.709,0.0,-0.78125,0.0
3703,36.719,0.0,0.0,0.0
3704,36.729,0.0,0.0,0.0
3705,36.739,0.0,0.0,0.0
3706,36.749,0.0,0.0,0.0
3707,36.759,0.0,0.0,0.0
3708,36.769,0.0,0.0,0.0
3709,36.779,0.0,0.0,0.0
3710,36.789,0.0,0.0,0.0
3711,36.799,0.0,0.0,0.0
3712,36.809,0.0,0.0,0.0
3713,36.819,0.0,0.0,0.0
3714,36.829,0.0,0.0,0.0
3715,36.839,0.0,-0.78125,0.0
3716,36.849,0.0,0.0,0.0
3717,36.859,0.0,-0.78125,0.0
3718,36.869,0.0,0.0,0.0
3719,36.879,0.0,0.0,0.0
3720,36.889,0.0,0.0,0.0
3721,36.899,0.0,0.0,0.0
3722,36.909,0.0,0.0,0.0
3723,36.919,0.0,0.0,0.0
3724,36.929,0.0,-0.78125,0.0
3725,36.939,0.0,0.0,0.0
3726,36.949,0.0,0.0,0.0
3727,36.959,0.0,-0.78125,0.0
3728,36.969,0.0,0.0,0.0
3729,36.979,0.0,-0.78125,0.0
3730,36.989,0.0,0.0,0.0
3731,36.999,0.0,0.0,0.0
3732,37.009,0.0,0.0,0.0
3733,37.019,0.0,0.0,0.0
3734,37.029,0.0,0.0,0.0
3735,37.039,0.0,-0.78125,0.0
3736,37.049,0.0,0.0,0.0
3737,37.059,0.0,0.0,0.0
3738,37.069,0.0,0.0,0.0
3739,37.079,0.0,0.0,0.0
3740,37.089,0.0,0.0,0.0
3741,37.099,0.0,0.0,0.0
3742,37.109,0.0,0.0,0.0
3743,37.119,0.0,0.0,0.0
3744,37.129,0.0,0.0,0.0
3745,37.139,0.0,0.0,0.0
3746,37.149,0.0,0.0,0.0
3747,37.159,0.0,-0.78125,0.0
3748,37.169,0.0,0.0,0.0
3749,37.179,0.0,-0.78125,0.0
3750,37.189,0.0,0.0,0.0
3751,37.199,0.0,-0.78125,0.0
3752,37.209,0.0,0.0,0.0
3753,37.219,0.0,-0.78125,0.0
3754,37.229,0.0,-0.78125,0.0
3755,37.239,0.0,0.0,0.0
3756,37.249,0.0,0.0,0.0
3757,37.259,0.0,0.0,0.0
3758,37.269,0.0,0.0,0.0
3759,37.279,0.0,0.0,0.0
3760,37.289,0.0,0.0,0.0
3761,37.299,0.0,0.0,0.0
3762,37.309,0.0,0.0,0.0
3763,37.319,0.0,0.0,0.0
3764,37.329,0.0,0.0,0.0
3765,37.339,0.0,0.0,0.0
3766,37.349,0.0,0.0,0.0
3767,37.359,0.0,-0.78125,0.0
3768,37.369,0.0,0.0,0.0
3769,37.379,0.0,0.0,0.0
3770,37.389,0.0,0.0,0.0
3771,37.399,0.0,0.0,0.0
3772,37.409,0.0,0.0,0.0
3773,37.419,0.0,-0.78125,0.0
3774,37.429,0.0,0.0,0.0
3775,37.439,0.0,-0.78125,0.0
3776,37.449,0.0,0.0,0.0
3777,37.459,0.0,-0.78125,0.0
3778,37.469,0.0,-0.78125,0.0
3779,37.479,0.0,-0.78125,0.0
3780,37.489,0.0,-0.78125,0.0
3781,37.499,0.0,0.0,0.0
3782,37.509,0.0,0.0,0.0
3783,37.519,0.0,0.0,0.0
3784,37.529,0.0,0.0,0.0
3785,37.539,0.0,0.0,0.0
3786,37.549,0.0,0.0,0.0
3787,37.559,0.0,0.0,0.0
3788,37.569,0.0,0.0,0.0
3789,37.579,0.0,0.0,0.0
3790,37.589,0.0,0.0,0.0
3791,37.599,0.0,0.0,0.0
3792,37.609,0.0,0.0,0.0
3793,37.619,0.0,0.0,0.0
3794,37.629,0.0,0.0,0.0
3795,37.639,0.0,0.0,0.0
3796,37.649,0.0,0.0,0.0
3797,37.659,0.0,0.0,0.0
3798,37.669,0.0,0.0,0.0
3799,37.679,0.0,0.0,0.0
3800,37.689,0.0,0.0,0.0
3801,37.699,0.0,0.0,0.0
3802,37.709,0.0,-0.78125,0.0
3803,37.719,0.0,0.0,0.0
3804,37.729,0.0,0.0,0.0
3805,37.739,0.0,0.0,0.0
3806,37.749,0.0,0.0,0.0
3807,37.759,0.0,-0.78125,0.0
3808,37.769,0.0,0.0,0.0
3809,37.779,0.0,0.0,0.0
3810,37.789,0.0,0.0,0.0
3811,37.799,0.0,0.0,0.0
3812,37.809,0.0,0.0,0.0
3813,37.819,0.0,0.0,0.0
3814,37.829,0.0,0.0,0.0
3815,37.839,0.0,0.0,0.0
3816,37.849,0.0,0.0,0.0
3817,37.859,0.0,0.0,0.0
3818,37.869,0.0,0.0,0.0
3819,37.879,0.0,-0.78125,0.0
3820,37.889,0.0,0.0,0.0
3821,37.899,0.0,0.0,0.0
3822,37.909,0.0,-0.78125,0.0
3823,37.919,0.0,0.0,0.0
3824,37.929,0.0,0.0,0.0
3825,37.939,0.0,0.0,0.0
3826,37.949,0.0,0.0,0.0
3827,37.959,0.0,0.0,0.0
3828,37.969,0.0,-0.78125,0.0
3829,37.979,0.0,0.0,0.0
3830,37.989,0.0,-0.78125,0.0
3831,37.999,0.0,0.0,0.0
3832,38.009,0.0,-0.78125,0.0
3833,38.019,0.0,0.0,0.0
3834,38.029,0.0,0.0,0.0
3835,38.039,0.0,0.0,0.0
3836,38.049,0.0,0.0,0.0
3837,38.059,0.0,0.0,0.0
3838,38.069,0.0,0.0,0.0
3839,38.079,0.0,0.0,0.0
3840,38.089,0.0,0.0,0.0
3841,38.099,0.0,0.0,0.0
3842,38.109,0.0,0.0,0.0
3843,38.119,0.0,-0.78125,0.0
3844,38.129,0.0,0.0,0.0
3845,38.139,0.0,0.0,0.0
3846,38.149,0.0,0.0,0.0
3847,38.159,0.0,0.0,0.0
3848,38.169,0.0,0.0,0.0
3849,38.179,0.0,0.0,0.0
3850,38.189,0.0,0.0,0.0
3851,38.199,0.0,0.0,0.0
3852,38.209,0.0,0.0,0.0
3853,38.219,0.0,0.0,0.0
3854,38.229,0.0,-0.78125,0.0
3855,38.239,0.0,0.0,0.0
3856,38.249,0.0,0.0,0.0
3857,38.259,0.0,0.0,0.0
3858,38.269,0.0,-0.78125,0.0
3859,38.279,0.0,-0.78125,0.0
3860,38.289,0.0,0.0,0.0
3861,38.299,0.0,0.0,0.0
3862,38.309,0.0,0.0,0.0
3863,38.319,0.78125,0.0,0.0
3864,38.329,0.0,0.0,0.0
3865,38.339,0.0,0.0,0.0
3866,38.349,0.0,-0.78125,0.0
3867,38.359,0.0,0.0,0.0
3868,38.369,0.0,0.0,0.0
3869,38.379,0.0,0.0,0.0
3870,38.389,0.0,0.0,0.0
3871,38.399,0.0,-0.78125,0.0
3872,38.409,0.0,-0.78125,0.0
3873,38.419,0.0,0.0,0.0
3874,38.429,0.0,0.0,0.0
3875,38.439,0.0,0.0,0.0
3876,38.449,0.0,0.0,0.0
3877,38.459,0.0,-0.78125,0.0
3878,38.469,0.0,0.0,0.0
3879,38.479,0.0,0.0,0.0
3880,38.489,0.0,0.0,0.0
3881,38.499,0.0,0.0,0.0
3882,38.509,0.0,0.0,0.0
3883,38.519,0.0,-0.78125,0.0
3884,38.529,0.0,0.0,0.0
3885,38.539,0.0,0.0,0.0
3886,38.549,0.0,0.0,0.0
3887,38.559,0.0,0.0,0.0
3888,38.569,0.0,0.0,0.0
3889,38.579,0.0,0.0,0.0
3890,38.589,0.0,0.0,0.0
3891,38.599,0.0,0.0,0.0
3892,38.609,0.0,0.0,0.0
3893,38.619,0.0,-0.78125,0.0
3894,38.629,0.0,0.0,0.0
3895,38.639,0.0,-0.78125,0.0
3896,38.649,0.0,-0.78125,0.0
3897,38.659,0.0,-0.78125,0.0
3898,38.669,0.0,0.0,0.0
3899,38.679,0.0,-0.78125,0.0
3900,38.689,0.0,0.0,0.0
3901,38.699,0.0,0.0,0.0
3902,38.709,0.0,0.0,0.0
3903,38.719,0.0,0.0,0.0
3904,38.729,0.0,0.0,0.0
3905,38.739,0.0,0.0,0.0
3906,38.749,0.0,0.0,0.0
3907,38.759,0.0,0.0,0.0
3908,38.769,0.0,0.0,0.0
3909,38.779,0.0,0.0,0.0
3910,38.789,0.0,0.0,0.0
3911,38.799,0.0,0.0,0.0
3912,38.809,0.0,0.0,0.0
3913,38.819,0.0,-0.78125,0.0
3914,38.829,0.0,0.0,0.0
3915,38.839,0.0,0.0,0.0
3916,38.849,0.0,0.0,0.0
3917,38.859,0.0,0.0,0.0
3918,38.869,0.0,-0.78125,0.0
3919,38.879,0.0,0.0,0.0
3920,38.889,0.0,-0.78125,0.0
3921,38.899,0.0,0.0,0.0
3922,38.909,0.0,-0.78125,0.0
3923,38.919,0.0,0.0,0.0
3924,38.929,0.0,0.0,0.0
3925,38.939,0.0,-0.78125,0.0
3926,38.949,0.0,0.0,0.0
3927,38.959,0.0,0.0,0.0
3928,38.969,0.0,0.0,0.0
3929,38.979,0.0,0.0,0.0
3930,38.989,0.0,0.0,0.0
3931,38.999,0.78125,0.0,0.0
3932,39.009,0.0,0.0,0.0
3933,39.019,0.0,0.0,0.0
3934,39.029,0.0,0.0,0.0
3935,39.039,0.0,-0.78125,0.0
3936,39.049,0.0,0.0,0.0
3937,39.059,0.0,-0.78125,0.0
3938,39.069,0.0,0.0,0.0
3939,39.079,0.0,0.0,0.0
3940,39.089,0.0,0.0,0.0
3941,39.099,0.0,0.0,0.0
3942,39.109,0.0,0.0,0.0
3943,39.119,0.0,0.0,0.0
3944,39.129,0.0,0.0,0.0
3945,39.139,0.0,0.0,0.0
3946,39.149,0.0,0.0,0.0
3947,39.159,0.0,0.0,0.0
3948,39.169,0.0,0.0,0.0
3949,39.179,0.0,0.0,0.0
3950,39.189,0.0,0.0,0.0
3951,39.199,0.0,0.0,0.0
3952,39.209,0.0,0.0,0.0
3953,39.219,0.0,0.0,0.0
3954,39.229,0.0,0.0,0.0
3955,39.239,0.0,0.0,0.0
3956,39.249,0.0,-0.78125,0.0
3957,39.259,0.0,0.0,0.0
3958,39.269,0.0,0.0,0.0
3959,39.279,0.0,0.0,0.0
3960,39.289,0.0,0.0,0.0
3961,39.299,0.0,0.0,0.0
3962,39.309,0.0,0.0,0.0
3963,39.319,0.0,-0.78125,0.0
3964,39.329,0.0,0.0,0.0
3965,39.339,0.0,0.0,0.0
3966,39.349,0.0,0.0,0.0
3967,39.359,0.0,0.0,0.0
3968,39.369,0.0,0.0,0.0
3969,39.379,0.0,0.0,0.0
3970,39.389,0.0,0.0,0.0
3971,39.399,0.0,0.0,0.0
3972,39.409,0.0,0.0,0.0
3973,39.419,0.0,0.0,0.0
3974,39.429,0.0,0.0,0.0
3975,39.439,0.0,-0.78125,0.0
3976,39.449,0.0,0.0,0.0
3977,39.459,0.0,0.0,0.0
3978,39.469,0.0,0.0,0.0
3979,39.479,0.0,0.0,0.0
3980,39.489,0.0,0.0,0.0
3981,39.499,0.0,0.0,0.0
3982,39.509,0.0,-0.78125,0.0
3983,39.519,0.0,0.0,0.0
3984,39.529,0.0,-0.78125,0.0
3985,39.539,0.0,0.0,0.0
3986,39.549,0.0,-0.78125,0.0
3987,39.559,0.0,0.0,0.0
3988,39.569,0.0,0.0,0.0
3989,39.579,0.0,0.0,0.0
3990,39.589,0.0,0.0,0.0
3991,39.599,0.0,0.0,0.0
3992,39.609,0.0,0.0,0.0
3993,39.619,0.0,0.0,0.0
3994,39.629,0.0,0.0,0.0
3995,39.639,0.0,0.0,0.0
3996,39.649,0.0,0.0,0.0
3997,39.659,0.0,0.0,0.0
3998,39.669,0.0,0.0,0.0
3999,39.679,0.0,0.0,0.0
4000,39.689,0.0,0.0,0.0
4001,39.699,0.78125,-0.78125,0.0
4002,39.709,0.0,0.0,0.0
4003,39.719,0.0,0.0,0.0
4004,39.729,0.0,0.0,0.0
4005,39.739,0.0,0.0,0.0
4006,39.749,0.0,0.0,0.0
4007,39.759,0.0,-0.78125,0.0
4008,39.769,0.0,-0.78125,0.0
4009,39.779,0.0,0.0,0.0
4010,39.789,0.0,0.0,0.0
4011,39.799,0.0,0.0,0.0
4012,39.809,0.0,0.0,0.0
4013,39.819,0.0,0.0,0.0
4014,39.829,0.0,0.0,0.0
4015,39.839,0.0,0.0,0.0
4016,39.849,0.0,-0.78125,0.0
4017,39.859,0.0,0.0,0.0
4018,39.869,0.0,0.0,0.0
4019,39.879,0.0,0.0,0.0
4020,39.889,0.0,0.0,0.0
4021,39.899,0.0,0.0,0.0
4022,39.909,0.0,0.0,0.0
4023,39.919,0.0,-0.78125,0.0
4024,39.929,0.0,0.0,0.0
4025,39.939,0.0,0.0,0.0
4026,39.949,0.0,0.0,0.0
4027,39.959,0.0,0.0,0.0
4028,39.969,0.0,0.0,0.0
4029,39.979,0.0,-0.78125,0.0
4030,39.989,0.0,0.0,0.0
4031,39.999,0.0,0.0,0.0
4032,40.009,0.0,0.0,0.0
4033,40.019,0.0,0.0,0.0
4034,40.029,0.0,0.0,0.0
4035,40.039,0.0,0.0,0.0
4036,40.049,0.0,0.0,0.0
4037,40.059,0.0,0.0,0.0
4038,40.069,0.0,0.0,0.0
4039,40.079,0.0,0.0,0.0
4040,40.089,0.0,0.0,0.0
4041,40.099,0.0,0.0,0.0
4042,40.109,0.0,0.0,0.0
4043,40.119,0.0,0.0,0.0
4044,40.129,0.0,0.0,0.0
4045,40.139,0.0,0.0,0.0
4046,40.149,0.0,0.0,0.0
4047,40.159,0.0,0.0,0.0
4048,40.169,0.0,0.0,0.0
4049,40.179,0.0,0.0,0.0
4050,40.189,0.0,-0.78125,0.0
4051,40.199,0.0,0.0,0.0
4052,40.209,0.0,-0.78125,0.0
4053,40.219,0.0,-0.78125,0.0
4054,40.229,0.0,0.0,0.0
4055,40.239,0.0,0.0,0.0
4056,40.249,0.0,-0.78125,0.0
4057,40.259,0.0,0.0,0.0
4058,40.269,0.0,0.0,0.0
4059,40.279,0.0,0.0,0.0
4060,40.289,0.0,0.0,0.0
4061,40.299,0.0,0.0,0.0
4062,40.309,0.0,0.0,0.0
4063,40.319,0.0,0.0,0.0
4064,40.329,0.0,0.0,0.0
4065,40.339,0.0,0.0,0.0
4066,40.349,0.0,0.0,0.0
4067,40.359,0.0,0.0,0.0
4068,40.369,0.0,0.0,0.0
4069,40.379,0.0,0.0,0.0
4070,40.389,0.0,0.0,0.0
4071,40.399,0.0,-0.78125,0.0
4072,40.409,0.0,0.0,0.0
4073,40.419,0.0,0.0,0.0
4074,40.429,0.0,-0.78125,0.0
4075,40.439,0.0,0.0,0.0
4076,40.449,0.0,0.0,0.0
4077,40.459,0.0,0.0,0.0
4078,40.469,0.0,0.0,0.0
4079,40.479,0.0,-0.78125,0.0
4080,40.489,0.0,0.0,0.0
4081,40.499,0.0,0.0,0.0
4082,40.509,0.0,0.0,0.0
4083,40.519,0.0,-0.78125,0.0
4084,40.529,0.0,0.0,0.0
4085,40.539,0.0,-0.78125,0.0
4086,40.549,0.0,0.0,0.0
4087,40.559,0.0,0.0,0.0
4088,40.569,0.0,-0.78125,0.0
4089,40.579,0.0,0.0,0.0
4090,40.589,0.0,0.0,0.0
4091,40.599,0.0,0.0,0.0
4092,40.609,0.0,0.0,0.0
4093,40.619,0.0,0.0,0.0
4094,40.629,0.0,0.0,0.0
4095,40.639,0.0,0.0,0.0
4096,40.649,0.0,0.0,0.0
4097,40.659,0.0,0.0,0.0
4098,40.669,0.0,0.0,0.0
4099,40.679,0.0,0.0,0.0
4100,40.689,0.0,0.0,0.0
4101,40.699,0.0,0.0,0.0
4102,40.709,0.0,-0.78125,0.0
4103,40.719,0.0,0.0,0.0
4104,40.729,0.0,-0.78125,0.0
4105,40.739,0.0,-0.78125,0.0
4106,40.749,0.0,-0.78125,0.0
4107,40.759,0.0,-0.78125,0.0
4108,40.769,0.0,0.0,0.0
4109,40.779,0.0,0.0,0.0
4110,40.789,0.0,0.0,0.0
4111,40.799,0.0,-0.78125,0.0
4112,40.809,0.0,-0.78125,0.0
4113,40.819,0.0,0.0,0.0
4114,40.829,0.0,0.0,0.0
4115,40.839,0.0,0.0,0.0
4116,40.849,0.0,-0.78125,0.0
4117,40.859,0.0,-0.78125,0.0
4118,40.869,0.0,0.0,0.0
4119,40.879,0.0,0.0,0.0
4120,40.889,0.0,0.0,0.0
4121,40.899,0.0,-0.78125,0.0
4122,40.909,0.0,0.0,0.0
4123,40.919,0.0,-0.78125,0.0
4124,40.929,0.0,0.0,0.0
4125,40.939,0.0,-0.78125,0.0
4126,40.949,0.0,0.0,0.0
4127,40.959,0.0,0.0,0.0
4128,40.969,0.0,-0.78125,0.0
4129,40.979,0.0,0.0,0.0
4130,40.989,0.0,0.0,0.0
4131,40.999,0.0,0.0,0.0
4132,41.009,0.0,0.0,0.0
4133,41.019,0.0,0.0,0.0
4134,41.029,0.0,0.0,0.0
4135,41.039,0.0,-0.78125,0.0
4136,41.049,0.0,0.0,0.0
4137,41.059,0.0,0.0,0.0
4138,41.069,0.0,-0.78125,0.0
4139,41.079,0.0,0.0,0.0
4140,41.089,0.0,-0.78125,0.0
4141,41.099,0.0,0.0,0.0
4142,41.109,0.0,0.0,0.0
4143,41.119,0.0,0.0,0.0
4144,41.129,0.0,0.0,0.0
4145,41.139,0.0,0.0,0.0
4146,41.149,0.0,0.0,0.0
4147,41.159,0.0,0.0,0.0
4148,41.169,0.0,0.0,0.0
4149,41.179,0.0,0.0,0.0
4150,41.189,0.0,0.0,0.0
4151,41.199,0.0,0.0,0.0
4152,41.209,0.0,0.0,0.0
4153,41.219,0.0,0.0,0.0
4154,41.229,0.0,0.0,0.0
4155,41.239,0.0,0.0,0.0
4156,41.249,0.0,-0.78125,0.0
4157,41.259,0.0,-0.78125,0.0
4158,41.269,0.0,0.0,0.0
4159,41.279,0.0,-0.78125,0.0
4160,41.289,0.0,0.0,0.0
4161,41.299,0.0,-0.78125,0.0
4162,41.309,0.0,0.0,0.0
4163,41.319,0.0,0.0,0.0
4164,41.329,0.0,0.0,0.0
4165,41.339,0.0,0.0,0.0
4166,41.349,0.0,0.0,0.0
4167,41.359,0.0,0.0,0.0
4168,41.369,0.0,0.0,0.0
4169,41.379,0.0,0.0,0.0
4170,41.389,0.0,0.0,0.0
4171,41.399,0.0,0.0,0.0
4172,41.409,0.0,0.0,0.0
4173,41.419,0.0,0.0,0.0
4174,41.429,0.0,0.0,0.0
4175,41.439,0.0,-0.78125,0.0
4176,41.449,0.0,0.0,0.0
4177,41.459,0.0,0.0,0.0
4178,41.469,0.0,0.0,0.0
4179,41.479,0.0,0.0,0.0
4180,41.489,0.0,-0.78125,0.0
4181,41.499,0.0,0.0,0.0
4182,41.509,0.0,0.0,0.0
4183,41.519,0.0,0.0,0.0
4184,41.529,0.0,0.0,0.0
4185,41.539,0.0,-0.78125,0.0
4186,41.549,0.0,0.0,0.0
4187,41.559,0.0,0.0,0.0
4188,41.569,0.0,-0.78125,0.0
4189,41.579,0.0,0.0,0.0
4190,41.589,0.0,0.0,0.0
4191,41.599,0.0,0.0,0.0
4192,41.609,0.0,-0.78125,0.0
4193,41.619,0.0,0.0,0.0
4194,41.629,0.0,0.0,0.0
4195,41.639,0.0,0.0,0.0
4196,41.649,0.0,0.0,0.0
4197,41.659,0.0,-0.78125,0.0
4198,41.669,0.0,0.0,0.0
4199,41.679,0.0,-0.78125,0.0
4200,41.689,0.0,0.0,0.0
4201,41.699,0.0,0.0,0.0
4202,41.709,0.0,0.0,0.0
4203,41.719,0.0,0.0,0.0
4204,41.729,0.0,0.0,0.0
4205,41.739,0.0,0.0,0.0
4206,41.749,0.0,0.0,0.0
4207,41.759,0.0,0.0,0.0
4208,41.769,0.0,0.0,0.0
4209,41.779,0.0,0.0,0.0
4210,41.789,0.0,0.0,0.0
4211,41.799,0.0,0.0,0.0
4212,41.809,0.0,0.0,0.0
4213,41.819,0.0,0.0,0.0
4214,41.829,0.0,0.0,0.0
4215,41.839,0.0,0.0,0.0
4216,41.849,0.0,0.0,0.0
4217,41.859,0.0,0.0,0.0
4218,41.869,0.0,0.0,0.0
4219,41.879,0.78125,0.0,0.0
4220,41.889,0.0,0.0,0.0
4221,41.899,0.0,0.0,0.0
4222,41.909,0.0,0.0,0.0
4223,41.919,0.0,0.0,0.0
4224,41.929,0.0,0.0,0.0
4225,41.939,0.0,0.0,0.0
4226,41.949,0.0,-0.78125,0.0
4227,41.959,0.0,0.0,0.0
4228,41.969,0.0,0.0,0.0
4229,41.979,0.0,0.0,0.0
4230,41.989,0.0,0.0,0.0
4231,41.999,0.0,0.0,0.0
4232,42.009,0.0,0.0,0.0
4233,42.019,0.0,-0.78125,0.0
4234,42.029,0.0,0.0,0.0
4235,42.039,0.0,0.0,0.0
4236,42.049,0.0,0.0,0.0
4237,42.059,0.0,0.0,0.0
4238,42.069,0.0,0.0,0.0
4239,42.079,0.0,0.0,0.0
4240,42.089,0.0,0.0,0.0
4241,42.099,0.0,0.0,0.0
4242,42.109,0.0,-0.78125,0.0
4243,42.119,0.0,0.0,0.0
4244,42.129,0.0,0.0,0.0
4245,42.139,0.0,0.0,0.0
4246,42.149,0.0,-0.78125,0.0
4247,42.159,0.0,0.0,0.0
4248,42.169,0.0,-0.78125,0.0
4249,42.179,0.0,0.0,0.0
4250,42.189,0.0,-0.78125,0.0
4251,42.199,0.0,0.0,0.0
4252,42.209,0.0,0.0,0.0
4253,42.219,0.0,0.0,0.0
4254,42.229,0.0,-0.78125,0.0
4255,42.239,0.0,0.0,0.0
4256,42.249,0.0,0.0,0.0
4257,42.259,0.0,0.0,0.0
4258,42.269,0.0,0.0,0.0
4259,42.279,0.0,0.0,0.0
4260,42.289,0.0,0.0,0.0
4261,42.299,0.0,-0.78125,0.0
4262,42.309,0.0,-0.78125,0.0
4263,42.319,0.0,0.0,0.0
4264,42.329,0.0,0.0,0.0
4265,42.339,0.0,0.0,0.0
4266,42.349,0.0,0.0,0.0
4267,42.359,0.0,0.0,0.0
4268,42.369,0.0,0.0,0.0
4269,42.379,0.0,0.0,0.0
4270,42.389,0.0,0.0,0.0
4271,42.399,0.0,-0.78125,0.0
4272,42.409,0.78125,0.0,0.0
4273,42.419,0.0,0.0,0.0
4274,42.429,0.0,-0.78125,0.0
4275,42.439,0.0,0.0,0.0
4276,42.449,0.0,0.0,0.0
4277,42.459,0.0,0.0,0.0
4278,42.469,0.0,0.0,0.0
4279,42.479,0.0,0.0,0.0
4280,42.489,0.0,0.0,0.0
4281,42.499,0.0,0.0,0.0
4282,42.509,0.0,0.0,0.0
4283,42.519,0.0,0.0,0.0
4284,42.529,0.0,0.0,0.0
4285,42.539,0.0,0.0,0.0
4286,42.549,0.0,0.0,0.0
4287,42.559,0.0,0.0,0.0
4288,42.569,0.0,0.0,0.0
4289,42.579,0.0,0.0,0.0
4290,42.589,0.0,0.0,0.0
4291,42.599,0.0,-0.78125,0.0
4292,42.609,0.0,-0.78125,0.0
4293,42.619,0.0,0.0,0.0
4294,42.629,0.0,0.0,0.0
4295,42.639,0.0,0.0,0.0
4296,42.649,0.0,0.0,0.0
4297,42.659,0.0,0.0,0.0
4298,42.669,0.0,0.0,0.0
4299,42.679,0.0,-0.78125,0.0
4300,42.689,0.0,0.0,0.0
4301,42.699,0.0,0.0,0.0
4302,42.709,0.0,0.0,0.0
4303,42.719,0.0,0.0,0.0
4304,42.729,0.0,0.0,0.0
4305,42.739,0.0,0.0,0.0
4306,42.749,0.0,0.0,0.0
4307,42.759,0.0,0.0,0.0
4308,42.769,0.0,-0.78125,0.0
4309,42.779,0.0,0.0,0.0
4310,42.789,0.0,-0.78125,0.0
4311,42.799,0.0,0.0,0.0
4312,42.809,0.0,-0.78125,0.0
4313,42.819,0.0,0.0,0.0
4314,42.829,0.0,0.0,0.0
4315,42.839,0.0,0.0,0.0
4316,42.849,0.0,0.0,0.0
4317,42.859,0.0,0.0,0.0
4318,42.869,0.0,0.0,0.0
4319,42.879,0.0,0.0,0.0
4320,42.889,0.0,0.0,0.0
4321,42.899,0.0,0.0,0.0
4322,42.909,0.0,0.0,0.0
4323,42.919,0.0,0.0,0.0
4324,42.929,0.0,0.0,0.0
4325,42.939,0.0,0.0,0.0
4326,42.949,0.0,0.0,0.0
4327,42.959,0.78125,0.0,0.0
4328,42.969,0.0,0.0,0.0
4329,42.979,0.0,0.0,0.0
4330,42.989,0.0,0.0,0.0
4331,42.999,0.0,0.0,0.0
4332,43.009,0.0,0.0,0.0
4333,43.019,0.0,0.0,0.0
4334,43.029,0.0,0.0,0.0
4335,43.039,0.0,0.0,0.0
4336,43.049,0.0,0.0,0.0
4337,43.059,0.0,-0.78125,0.0
4338,43.069,0.0,0.0,0.0
4339,43.079,0.0,0.0,0.0
4340,43.089,0.0,0.0,0.0
4341,43.099,0.0,0.0,0.0
4342,43.109,0.0,0.0,0.0
4343,43.119,0.0,0.0,0.0
4344,43.129,0.0,0.0,0.0
4345,43.139,0.0,-0.78125,0.0
4346,43.149,0.0,0.0,0.0
4347,43.159,0.0,0.0,0.0
4348,43.169,0.0,0.0,0.0
4349,43.179,0.0,0.0,0.0
4350,43.189,0.0,0.0,0.0
4351,43.199,0.0,0.0,0.0
4352,43.209,0.0,0.0,0.0
4353,43.219,0.0,0.0,0.0
4354,43.229,0.0,-0.78125,0.0
4355,43.239,0.0,-0.78125,0.0
4356,43.249,0.0,0.0,0.0
4357,43.259,0.0,0.0,0.0
4358,43.269,0.0,0.0,0.0
4359,43.279,0.0,-0.78125,0.0
4360,43.289,0.0,0.0,0.0
4361,43.299,0.0,0.0,0.0
4362,43.309,0.0,0.0,0.0
4363,43.319,0.0,0.0,0.0
4364,43.329,0.0,0.0,0.0
4365,43.339,0.0,0.0,0.0
4366,43.349,0.0,-0.78125,0.0
4367,43.359,0.0,-0.78125,0.0
4368,43.369,0.0,0.0,0.0
4369,43.379,0.0,0.0,0.0
4370,43.389,0.0,0.0,0.0
4371,43.399,0.0,-0.78125,0.0
4372,43.409,0.0,0.0,0.0
4373,43.419,0.0,0.0,0.0
4374,43.429,0.0,0.0,0.0
4375,43.439,0.0,0.0,0.0
4376,43.449,0.0,0.0,0.0
4377,43.459,0.0,0.0,0.0
4378,43.469,0.0,0.0,0.0
4379,43.479,0.0,0.0,0.0
4380,43.489,0.0,0.0,0.0
4381,43.499,0.0,-0.78125,0.0
4382,43.509,0.0,0.0,0.0
4383,43.519,0.0,0.0,0.0
4384,43.529,0.0,-0.78125,0.0
4385,43.539,0.0,0.0,0.0
4386,43.549,0.0,-0.78125,0.0
4387,43.559,0.0,-0.78125,0.0
4388,43.569,0.0,0.0,0.0
4389,43.579,0.0,0.0,0.0
4390,43.589,0.0,0.0,0.0
4391,43.599,0.0,0.0,0.0
4392,43.609,0.0,0.0,0.0
4393,43.619,0.0,-0.78125,0.0
4394,43.629,0.0,0.0,0.0
4395,43.639,0.0,0.0,0.0
4396,43.649,0.0,-0.78125,0.0
4397,43.659,0.0,-0.78125,0.0
4398,43.669,0.0,0.0,0.0
4399,43.679,0.0,0.0,0.0
4400,43.689,0.0,0.0,0.0
4401,43.699,0.0,0.0,0.0
