,ts,id,Gx,Gy,Gz,Ax,Ay,Az
0,-0.331,IMU0,-8.353658536585366,15.79268292682927,-6.2804878048780495,-0.072265625,-0.0390625,-0.986328125
1,-0.331,IMU1,-8.597560975609756,17.5,-6.463414634146342,-0.064453125,-0.033203125,-1.015625
2,-0.331,IMU2,-8.109756097560977,16.219512195121954,-6.219512195121951,-0.0673828125,-0.041015625,-0.9931640625
3,-0.321,IMU0,-6.036585365853659,11.52439024390244,-4.207317073170732,-0.0634765625,-0.0205078125,-0.9970703125
4,-0.321,IMU1,-6.2804878048780495,13.353658536585368,-4.329268292682928,-0.0537109375,-0.015625,-1.0244140625
5,-0.321,IMU2,-5.7926829268292686,12.256097560975611,-4.085365853658537,-0.0546875,-0.0234375,-1.0
6,-0.311,IMU0,-6.2804878048780495,12.500000000000002,-2.9268292682926833,-0.0458984375,-0.0283203125,-1.013671875
7,-0.311,IMU1,-6.646341463414635,14.51219512195122,-3.1097560975609757,-0.0390625,-0.021484375,-1.037109375
8,-0.311,IMU2,-6.2804878048780495,13.597560975609758,-2.987804878048781,-0.0419921875,-0.0302734375,-1.009765625
9,-0.301,IMU0,-8.414634146341465,16.76829268292683,-4.207317073170732,-0.0458984375,-0.0234375,-1.0107421875
10,-0.301,IMU1,-8.719512195121952,18.84146341463415,-4.329268292682928,-0.041015625,-0.0185546875,-1.037109375
11,-0.301,IMU2,-8.353658536585366,17.865853658536587,-4.146341463414634,-0.0419921875,-0.0263671875,-1.009765625
12,-0.291,IMU0,-8.475609756097562,16.951219512195124,-3.5975609756097566,-0.0361328125,-0.01171875,-0.99609375
13,-0.291,IMU1,-8.78048780487805,18.84146341463415,-3.658536585365854,-0.0283203125,-0.0068359375,-1.025390625
14,-0.291,IMU2,-8.292682926829269,17.621951219512198,-3.414634146341464,-0.03125,-0.0146484375,-1.0
15,-0.281,IMU0,-7.743902439024391,15.121951219512196,-2.6219512195121952,-0.0361328125,-0.01171875,-0.9970703125
16,-0.281,IMU1,-7.987804878048781,17.012195121951223,-2.682926829268293,-0.0283203125,-0.0078125,-1.0244140625
17,-0.281,IMU2,-7.500000000000001,15.853658536585368,-2.439024390243903,-0.029296875,-0.0166015625,-1.0009765625
18,-0.271,IMU0,-6.52439024390244,12.439024390243903,-1.829268292682927,-0.0625,-0.017578125,-0.986328125
19,-0.271,IMU1,-6.7682926829268295,14.329268292682928,-1.8902439024390245,-0.0537109375,-0.0146484375,-1.017578125
20,-0.271,IMU2,-6.2804878048780495,13.29268292682927,-1.707317073170732,-0.0556640625,-0.0205078125,-0.9951171875
21,-0.261,IMU0,-4.207317073170732,8.109756097560977,-2.3170731707317076,-0.07421875,-0.0234375,-0.9931640625
22,-0.261,IMU1,-4.51219512195122,9.939024390243903,-2.439024390243903,-0.06640625,-0.01953125,-1.025390625
23,-0.261,IMU2,-4.085365853658537,8.902439024390244,-2.25609756097561,-0.0712890625,-0.02734375,-1.0
24,-0.251,IMU0,-3.414634146341464,6.158536585365854,-3.780487804878049,-0.06640625,-0.0224609375,-0.9970703125
25,-0.251,IMU1,-3.658536585365854,8.109756097560977,-4.024390243902439,-0.0595703125,-0.0205078125,-1.025390625
26,-0.251,IMU2,-3.2926829268292686,7.01219512195122,-3.8414634146341466,-0.0634765625,-0.02734375,-1.0
27,-0.241,IMU0,-2.804878048780488,4.573170731707317,-4.695121951219512,-0.0615234375,-0.0185546875,-0.9931640625
28,-0.241,IMU1,-2.987804878048781,6.52439024390244,-4.878048780487806,-0.0546875,-0.0166015625,-1.0224609375
29,-0.241,IMU2,-2.6219512195121952,5.426829268292684,-4.75609756097561,-0.056640625,-0.021484375,-0.9990234375
30,-0.231,IMU0,-2.0121951219512195,2.3170731707317076,-4.817073170731708,-0.052734375,-0.0166015625,-1.0009765625
31,-0.231,IMU1,-2.1951219512195124,4.329268292682928,-5.060975609756098,-0.0458984375,-0.0146484375,-1.02734375
32,-0.231,IMU2,-1.8902439024390245,3.231707317073171,-4.939024390243903,-0.0478515625,-0.01953125,-1.005859375
33,-0.221,IMU0,-1.8902439024390245,0.24390243902439027,-4.451219512195122,-0.0634765625,-0.0126953125,-0.99609375
34,-0.221,IMU1,-2.0121951219512195,2.1951219512195124,-4.695121951219512,-0.0556640625,-0.009765625,-1.0234375
35,-0.221,IMU2,-1.6463414634146343,1.0975609756097562,-4.573170731707317,-0.0595703125,-0.015625,-1.0029296875
36,-0.211,IMU0,-0.48780487804878053,-4.207317073170732,-6.097560975609756,-0.060546875,-0.0126953125,-0.9912109375
37,-0.211,IMU1,-0.6097560975609757,-2.3170731707317076,-6.463414634146342,-0.0556640625,-0.009765625,-1.021484375
38,-0.211,IMU2,-0.30487804878048785,-3.2926829268292686,-6.2804878048780495,-0.064453125,-0.015625,-0.9990234375
39,-0.201,IMU0,0.1829268292682927,-7.317073170731708,-9.451219512195122,-0.05078125,-0.0185546875,-1.0029296875
40,-0.201,IMU1,0.12195121951219513,-5.426829268292684,-9.756097560975611,-0.044921875,-0.015625,-1.0283203125
41,-0.201,IMU2,0.426829268292683,-6.463414634146342,-9.573170731707318,-0.0517578125,-0.0224609375,-1.005859375
42,-0.191,IMU0,-0.30487804878048785,-8.109756097560977,-11.219512195121952,-0.056640625,-0.021484375,-1.0107421875
43,-0.191,IMU1,-0.3658536585365854,-6.2804878048780495,-11.52439024390244,-0.0498046875,-0.0166015625,-1.0341796875
44,-0.191,IMU2,-0.06097560975609757,-7.317073170731708,-11.402439024390246,-0.0556640625,-0.0234375,-1.0107421875
45,-0.181,IMU0,-1.5853658536585367,-6.707317073170732,-12.500000000000002,-0.052734375,-0.03515625,-1.015625
46,-0.181,IMU1,-1.6463414634146343,-4.878048780487806,-12.74390243902439,-0.0458984375,-0.029296875,-1.0400390625
47,-0.181,IMU2,-1.3414634146341464,-5.975609756097562,-12.621951219512196,-0.0498046875,-0.0361328125,-1.0146484375
48,-0.171,IMU0,-4.146341463414634,-5.060975609756098,-13.597560975609758,-0.060546875,-0.0380859375,-1.0283203125
49,-0.171,IMU1,-4.2682926829268295,-3.231707317073171,-13.719512195121952,-0.0537109375,-0.033203125,-1.0537109375
50,-0.171,IMU2,-3.9024390243902443,-4.329268292682928,-13.719512195121952,-0.05859375,-0.041015625,-1.025390625
51,-0.161,IMU0,-7.987804878048781,-4.695121951219512,-15.30487804878049,-0.1005859375,-0.0302734375,-1.0322265625
52,-0.161,IMU1,-8.048780487804878,-2.8658536585365857,-15.365853658536587,-0.0966796875,-0.0234375,-1.0576171875
53,-0.161,IMU2,-7.8048780487804885,-3.963414634146342,-15.30487804878049,-0.1044921875,-0.03125,-1.02734375
54,-0.151,IMU0,-11.707317073170733,-6.341463414634147,-21.76829268292683,-0.1103515625,-0.0419921875,-1.0498046875
55,-0.151,IMU1,-11.707317073170733,-4.51219512195122,-21.707317073170735,-0.1123046875,-0.0361328125,-1.0732421875
56,-0.151,IMU2,-11.585365853658537,-5.609756097560976,-21.646341463414636,-0.1259765625,-0.0439453125,-1.044921875
57,-0.141,IMU0,-11.707317073170733,-8.048780487804878,-31.402439024390247,-0.126953125,-0.0517578125,-1.05859375
58,-0.141,IMU1,-11.585365853658537,-6.341463414634147,-31.280487804878053,-0.1298828125,-0.0478515625,-1.091796875
59,-0.141,IMU2,-11.52439024390244,-7.317073170731708,-31.219512195121954,-0.14453125,-0.0556640625,-1.0712890625
60,-0.131,IMU0,-1.8902439024390245,-20.975609756097562,-42.50000000000001,-0.1640625,-0.068359375,-1.056640625
61,-0.131,IMU1,-1.6463414634146343,-19.146341463414636,-42.5609756097561,-0.169921875,-0.064453125,-1.099609375
62,-0.131,IMU2,-1.707317073170732,-20.182926829268293,-42.5609756097561,-0.1884765625,-0.0712890625,-1.091796875
63,-0.121,IMU0,13.597560975609758,-42.01219512195122,-63.04878048780488,-0.3115234375,-0.05859375,-1.2578125
64,-0.121,IMU1,14.573170731707318,-40.0,-63.23170731707317,-0.3447265625,-0.0595703125,-1.2998046875
65,-0.121,IMU2,14.02439024390244,-40.1219512195122,-63.35365853658537,-0.392578125,-0.0625,-1.296875
66,-0.111,IMU0,22.25609756097561,-96.64634146341464,-110.1829268292683,-0.2373046875,-0.0615234375,-1.4638671875
67,-0.111,IMU1,22.073170731707318,-92.50000000000001,-110.1829268292683,-0.2373046875,-0.064453125,-1.484375
68,-0.111,IMU2,19.573170731707318,-97.25609756097562,-110.97560975609757,-0.21875,-0.060546875,-1.4140625
69,-0.101,IMU0,0.9146341463414634,-143.71951219512195,-153.2317073170732,-0.119140625,-0.1279296875,-1.4375
70,-0.101,IMU1,11.585365853658537,-134.69512195121953,-153.84146341463415,-0.1240234375,-0.1328125,-1.7861328125
71,-0.101,IMU2,8.231707317073171,-136.46341463414635,-154.51219512195124,0.3828125,-0.123046875,-1.5927734375
72,-0.091,IMU0,-17.439024390243905,-177.6829268292683,-169.93902439024393,-0.12109375,0.0107421875,-1.62109375
73,-0.091,IMU1,-11.829268292682928,-173.2317073170732,-170.609756097561,-0.056640625,0.0009765625,-1.7958984375
74,-0.091,IMU2,-17.134146341463417,-175.4268292682927,-171.15853658536588,0.1982421875,0.0126953125,-1.67578125
75,-0.081,IMU0,-55.0609756097561,-165.3658536585366,-143.78048780487805,-0.150390625,0.1513671875,-2.0322265625
76,-0.081,IMU1,-50.79268292682927,-163.2317073170732,-144.45121951219514,-0.0419921875,0.1416015625,-2.099609375
77,-0.081,IMU2,-54.39024390243903,-164.45121951219514,-144.63414634146343,0.099609375,0.1513671875,-1.9736328125
78,-0.071,IMU0,-86.95121951219512,-116.34146341463416,-107.92682926829269,-0.1513671875,0.119140625,-2.1728515625
79,-0.071,IMU1,-84.57317073170732,-115.00000000000001,-107.8048780487805,-0.0771484375,0.1103515625,-2.2255859375
80,-0.071,IMU2,-86.40243902439025,-115.54878048780489,-107.98780487804879,0.0,0.1171875,-2.1552734375
81,-0.061,IMU0,-91.89024390243904,-67.25609756097562,-84.02439024390245,-0.15625,0.064453125,-2.177734375
82,-0.061,IMU1,-90.79268292682927,-66.28048780487805,-83.35365853658537,-0.1044921875,0.05859375,-2.2353515625
83,-0.061,IMU2,-91.58536585365854,-66.40243902439025,-83.65853658536587,-0.068359375,0.060546875,-2.2080078125
84,-0.051,IMU0,-78.29268292682927,-14.756097560975611,-66.46341463414635,-0.185546875,0.115234375,-2.216796875
85,-0.051,IMU1,-77.98780487804879,-13.902439024390246,-65.67073170731707,-0.142578125,0.107421875,-2.271484375
86,-0.051,IMU2,-78.04878048780489,-13.841463414634148,-65.73170731707317,-0.119140625,0.111328125,-2.2666015625
87,-0.041,IMU0,-58.84146341463415,28.719512195121954,-46.89024390243903,-0.2001953125,0.2158203125,-2.236328125
88,-0.041,IMU1,-58.963414634146346,29.939024390243905,-46.28048780487805,-0.15625,0.2080078125,-2.287109375
89,-0.041,IMU2,-58.59756097560976,29.75609756097561,-46.09756097560976,-0.138671875,0.208984375,-2.2841796875
90,-0.031,IMU0,-42.926829268292686,47.86585365853659,-27.743902439024392,-0.1884765625,0.2841796875,-2.197265625
91,-0.031,IMU1,-43.04878048780488,49.63414634146342,-27.195121951219516,-0.1552734375,0.2763671875,-2.236328125
92,-0.031,IMU2,-42.6829268292683,48.90243902439025,-26.951219512195124,-0.14453125,0.2763671875,-2.2236328125
93,-0.021,IMU0,-37.31707317073171,45.97560975609756,-13.719512195121952,-0.1669921875,0.337890625,-2.138671875
94,-0.021,IMU1,-37.31707317073171,48.23170731707317,-13.170731707317074,-0.134765625,0.33203125,-2.1630859375
95,-0.021,IMU2,-37.01219512195122,47.07317073170732,-12.926829268292684,-0.12890625,0.330078125,-2.138671875
96,-0.011,IMU0,-44.451219512195124,27.743902439024392,-0.06097560975609757,-0.2197265625,0.400390625,-2.1259765625
97,-0.011,IMU1,-44.451219512195124,30.30487804878049,0.426829268292683,-0.189453125,0.39453125,-2.1376953125
98,-0.011,IMU2,-44.146341463414636,28.84146341463415,0.6707317073170732,-0.1845703125,0.3935546875,-2.1025390625
99,-0.001,IMU0,-58.84146341463415,9.207317073170733,10.060975609756099,-0.220703125,0.375,-2.12109375
100,-0.001,IMU1,-60.365853658536594,9.634146341463415,11.402439024390246,-0.201171875,0.373046875,-2.1279296875
101,-0.001,IMU2,-58.41463414634147,10.24390243902439,10.853658536585368,-0.2001953125,0.369140625,-2.0869140625
102,0.009,IMU0,-73.04878048780489,-11.097560975609756,9.573170731707318,-0.1650390625,0.287109375,-2.1650390625
103,0.009,IMU1,-74.45121951219512,-10.731707317073171,9.939024390243903,-0.1611328125,0.2841796875,-2.1728515625
104,0.009,IMU2,-72.8048780487805,-10.0,10.426829268292684,-0.1796875,0.2822265625,-2.138671875
105,0.019,IMU0,-82.6219512195122,-35.243902439024396,-5.731707317073171,-0.1572265625,0.2333984375,-2.232421875
106,0.019,IMU1,-83.41463414634147,-34.57317073170732,-6.158536585365854,-0.1611328125,0.2294921875,-2.2431640625
107,0.019,IMU2,-82.43902439024392,-34.207317073170735,-5.0,-0.1962890625,0.2294921875,-2.2236328125
108,0.029,IMU0,-83.10975609756099,-33.35365853658537,-26.646341463414636,-0.125,0.2431640625,-2.369140625
109,0.029,IMU1,-82.7439024390244,-30.000000000000004,-26.89024390243903,-0.1328125,0.2392578125,-2.39453125
110,0.029,IMU2,-82.92682926829269,-32.25609756097561,-25.975609756097562,-0.162109375,0.240234375,-2.392578125
111,0.039,IMU0,-67.25609756097562,-3.231707317073171,-39.268292682926834,-0.1044921875,0.35546875,-2.41796875
112,0.039,IMU1,-65.67073170731707,0.6707317073170732,-38.41463414634147,-0.091796875,0.3623046875,-2.4619140625
113,0.039,IMU2,-67.13414634146342,-2.1341463414634148,-38.53658536585366,-0.0986328125,0.349609375,-2.4775390625
114,0.049,IMU0,-35.243902439024396,29.75609756097561,-24.146341463414636,-0.16796875,0.4990234375,-2.314453125
115,0.049,IMU1,-32.926829268292686,34.32926829268293,-21.646341463414636,-0.1181640625,0.5009765625,-2.3671875
116,0.049,IMU2,-34.75609756097561,30.792682926829272,-23.59756097560976,-0.0888671875,0.4912109375,-2.400390625
117,0.059,IMU0,1.829268292682927,82.50000000000001,16.219512195121954,-0.2119140625,0.5458984375,-2.126953125
118,0.059,IMU1,3.414634146341464,87.8658536585366,18.963414634146343,-0.1552734375,0.541015625,-2.1748046875
119,0.059,IMU2,2.1341463414634148,83.47560975609757,16.76829268292683,-0.1142578125,0.5390625,-2.2119140625
120,0.069,IMU0,35.243902439024396,118.90243902439025,53.35365853658537,-0.25390625,0.52734375,-1.8818359375
121,0.069,IMU1,35.85365853658537,121.28048780487806,55.00000000000001,-0.21484375,0.5263671875,-1.9306640625
122,0.069,IMU2,35.30487804878049,119.81707317073172,53.84146341463415,-0.185546875,0.5234375,-1.951171875
123,0.079,IMU0,56.646341463414636,92.25609756097562,77.25609756097562,-0.2451171875,0.505859375,-1.8359375
124,0.079,IMU1,56.03658536585366,91.70731707317074,77.6219512195122,-0.2119140625,0.5009765625,-1.8798828125
125,0.079,IMU2,56.524390243902445,93.17073170731707,77.43902439024392,-0.20703125,0.5029296875,-1.8671875
126,0.089,IMU0,56.646341463414636,34.69512195121951,87.25609756097562,-0.1904296875,0.4453125,-1.9423828125
127,0.089,IMU1,54.57317073170732,33.23170731707317,86.58536585365854,-0.171875,0.4423828125,-1.9521484375
128,0.089,IMU2,56.646341463414636,35.670731707317074,87.01219512195122,-0.17578125,0.4423828125,-1.908203125
129,0.099,IMU0,28.780487804878053,-35.30487804878049,88.96341463414635,-0.232421875,0.42578125,-2.14453125
130,0.099,IMU1,25.670731707317074,-36.15853658536586,87.98780487804879,-0.22265625,0.423828125,-2.146484375
131,0.099,IMU2,28.719512195121954,-34.32926829268293,88.47560975609757,-0.2275390625,0.4208984375,-2.06640625
132,0.109,IMU0,-3.353658536585366,-50.670731707317074,91.76829268292684,-0.2861328125,0.390625,-2.5810546875
133,0.109,IMU1,-6.036585365853659,-47.07317073170732,91.58536585365854,-0.255859375,0.3828125,-2.595703125
134,0.109,IMU2,-3.4756097560975614,-49.81707317073171,91.52439024390245,-0.259765625,0.384765625,-2.5302734375
135,0.119,IMU0,-18.902439024390244,7.926829268292684,103.29268292682927,-0.0693359375,0.302734375,-2.8359375
136,0.119,IMU1,-21.097560975609756,13.29268292682927,103.84146341463415,-0.0283203125,0.2861328125,-2.8525390625
137,0.119,IMU2,-18.963414634146343,8.78048780487805,103.71951219512196,-0.0400390625,0.296875,-2.82421875
138,0.129,IMU0,-19.390243902439025,65.0609756097561,106.58536585365854,0.1083984375,0.091796875,-2.779296875
139,0.129,IMU1,-20.79268292682927,68.96341463414635,106.76829268292684,0.123046875,0.0751953125,-2.8056640625
140,0.129,IMU2,-19.207317073170735,65.97560975609757,107.43902439024392,0.1005859375,0.0869140625,-2.806640625
141,0.139,IMU0,-6.829268292682928,99.93902439024392,93.17073170731707,0.0888671875,-0.0771484375,-2.630859375
142,0.139,IMU1,-7.682926829268293,103.71951219512196,92.7439024390244,0.080078125,-0.0859375,-2.6640625
143,0.139,IMU2,-6.52439024390244,100.85365853658537,94.14634146341464,0.0517578125,-0.0830078125,-2.673828125
144,0.149,IMU0,7.01219512195122,146.34146341463415,74.93902439024392,-0.0400390625,-0.0751953125,-2.4599609375
145,0.149,IMU1,6.219512195121951,150.7317073170732,74.81707317073172,-0.044921875,-0.0810546875,-2.4833984375
146,0.149,IMU2,7.500000000000001,147.37804878048783,76.03658536585367,-0.06640625,-0.0810546875,-2.4921875
147,0.159,IMU0,16.097560975609756,195.1219512195122,68.23170731707317,-0.177734375,-0.0673828125,-2.0869140625
148,0.159,IMU1,15.30487804878049,198.65853658536588,69.02439024390245,-0.1630859375,-0.068359375,-2.10546875
149,0.159,IMU2,16.646341463414636,196.15853658536588,69.63414634146342,-0.1611328125,-0.0732421875,-2.1162109375
150,0.169,IMU0,26.158536585365855,202.9268292682927,79.14634146341464,-0.3408203125,-0.03515625,-1.6015625
151,0.169,IMU1,25.243902439024392,204.20731707317074,80.2439024390244,-0.3232421875,-0.0341796875,-1.62109375
152,0.169,IMU2,26.646341463414636,203.84146341463418,80.48780487804879,-0.3095703125,-0.0361328125,-1.6318359375
153,0.179,IMU0,36.28048780487805,148.71951219512195,84.57317073170732,-0.5205078125,-0.0576171875,-1.1494140625
154,0.179,IMU1,35.426829268292686,148.1707317073171,84.51219512195122,-0.521484375,-0.0537109375,-1.173828125
155,0.179,IMU2,36.768292682926834,149.57317073170734,85.3658536585366,-0.529296875,-0.05859375,-1.1767578125
156,0.189,IMU0,46.524390243902445,69.75609756097562,75.0,-0.6748046875,-0.03125,-0.890625
157,0.189,IMU1,45.91463414634147,69.02439024390245,73.96341463414635,-0.6845703125,-0.0244140625,-0.919921875
158,0.189,IMU2,47.07317073170732,70.67073170731707,75.0609756097561,-0.705078125,-0.03125,-0.9130859375
159,0.199,IMU0,55.85365853658537,-16.097560975609756,58.78048780487806,-0.6923828125,0.0234375,-0.8125
160,0.199,IMU1,55.487804878048784,-16.76829268292683,57.01219512195122,-0.701171875,0.029296875,-0.84765625
161,0.199,IMU2,56.28048780487806,-15.30487804878049,58.10975609756098,-0.7265625,0.0234375,-0.8271484375
162,0.209,IMU0,62.07317073170732,-80.0,42.31707317073171,-0.6240234375,0.107421875,-0.90625
163,0.209,IMU1,61.89024390243903,-79.39024390243902,40.243902439024396,-0.623046875,0.1162109375,-0.9541015625
164,0.209,IMU2,62.37804878048781,-79.08536585365854,41.03658536585366,-0.6455078125,0.10546875,-0.9072265625
165,0.219,IMU0,60.1829268292683,-101.40243902439025,30.975609756097565,-0.509765625,0.19140625,-1.0458984375
166,0.219,IMU1,59.69512195121952,-99.39024390243904,28.902439024390247,-0.5068359375,0.1953125,-1.0615234375
167,0.219,IMU2,60.365853658536594,-100.42682926829269,29.573170731707318,-0.52734375,0.1875,-1.0205078125
168,0.229,IMU0,46.40243902439025,-70.3048780487805,21.34146341463415,-0.3115234375,0.20703125,-1.255859375
169,0.229,IMU1,45.60975609756098,-67.07317073170732,19.695121951219512,-0.302734375,0.2060546875,-1.2666015625
170,0.229,IMU2,46.646341463414636,-69.32926829268293,20.30487804878049,-0.32421875,0.201171875,-1.21484375
171,0.239,IMU0,24.634146341463417,-7.25609756097561,14.329268292682928,-0.087890625,0.1513671875,-1.298828125
172,0.239,IMU1,23.658536585365855,-3.9024390243902443,13.536585365853659,-0.07421875,0.1494140625,-1.2958984375
173,0.239,IMU2,24.390243902439025,-6.097560975609756,13.963414634146343,-0.09375,0.1455078125,-1.2451171875
174,0.249,IMU0,-2.0121951219512195,32.37804878048781,7.25609756097561,0.052734375,0.0244140625,-1.0830078125
175,0.249,IMU1,-3.048780487804878,34.75609756097561,7.01219512195122,0.0537109375,0.0234375,-1.0732421875
176,0.249,IMU2,-1.9512195121951221,33.35365853658537,7.378048780487806,0.0361328125,0.0205078125,-1.0224609375
177,0.259,IMU0,-30.243902439024392,41.707317073170735,-5.731707317073171,0.021484375,-0.095703125,-0.748046875
178,0.259,IMU1,-31.03658536585366,43.71951219512196,-5.487804878048781,0.009765625,-0.0927734375,-0.740234375
179,0.259,IMU2,-29.87804878048781,42.6219512195122,-5.121951219512195,-0.0048828125,-0.09765625,-0.6904296875
180,0.269,IMU0,-52.5609756097561,61.585365853658544,-19.207317073170735,-0.1708984375,-0.1416015625,-0.3193359375
181,0.269,IMU1,-53.04878048780488,63.84146341463415,-18.414634146341466,-0.181640625,-0.130859375,-0.3232421875
182,0.269,IMU2,-52.01219512195122,62.50000000000001,-18.29268292682927,-0.1884765625,-0.1396484375,-0.28125
183,0.279,IMU0,-62.865853658536594,82.50000000000001,-27.134146341463417,-0.431640625,-0.1279296875,0.1748046875
184,0.279,IMU1,-63.35365853658537,84.32926829268294,-25.853658536585368,-0.4287109375,-0.115234375,0.1513671875
185,0.279,IMU2,-62.43902439024391,83.29268292682927,-25.914634146341466,-0.431640625,-0.12109375,0.1875
186,0.289,IMU0,-58.963414634146346,68.35365853658537,-27.31707317073171,-0.65234375,-0.04296875,0.5546875
187,0.289,IMU1,-57.560975609756106,69.81707317073172,-25.54878048780488,-0.6376953125,-0.0302734375,0.513671875
188,0.289,IMU2,-58.04878048780488,67.8048780487805,-25.792682926829272,-0.6552734375,-0.037109375,0.546875
189,0.299,IMU0,-43.41463414634147,30.54878048780488,-23.353658536585368,-0.740234375,0.03515625,0.7021484375
190,0.299,IMU1,-42.43902439024391,31.646341463414636,-21.890243902439025,-0.7021484375,0.048828125,0.650390625
191,0.299,IMU2,-42.07317073170732,30.975609756097565,-22.073170731707318,-0.72265625,0.0419921875,0.6689453125
192,0.309,IMU0,-26.158536585365855,-10.182926829268293,-17.378048780487806,-0.6552734375,0.1005859375,0.6572265625
193,0.309,IMU1,-25.000000000000004,-8.414634146341465,-16.70731707317073,-0.6259765625,0.115234375,0.6103515625
194,0.309,IMU2,-24.695121951219516,-9.695121951219512,-16.82926829268293,-0.6376953125,0.1064453125,0.6318359375
195,0.319,IMU0,-15.731707317073171,-46.463414634146346,-14.207317073170733,-0.478515625,0.111328125,0.4697265625
196,0.319,IMU1,-14.695121951219514,-44.63414634146342,-14.26829268292683,-0.462890625,0.125,0.4306640625
197,0.319,IMU2,-14.26829268292683,-46.03658536585366,-14.329268292682928,-0.474609375,0.1162109375,0.4609375
198,0.329,IMU0,-14.878048780487806,-48.41463414634147,-18.231707317073173,-0.2744140625,0.1103515625,0.166015625
199,0.329,IMU1,-14.390243902439027,-46.21951219512196,-18.475609756097562,-0.271484375,0.12109375,0.1376953125
200,0.329,IMU2,-14.146341463414636,-47.5609756097561,-18.475609756097562,-0.2880859375,0.11328125,0.1767578125
201,0.339,IMU0,-23.414634146341466,-15.182926829268293,-28.53658536585366,-0.05859375,0.0927734375,-0.109375
202,0.339,IMU1,-23.04878048780488,-13.04878048780488,-28.59756097560976,-0.05859375,0.1015625,-0.130859375
203,0.339,IMU2,-23.170731707317074,-14.390243902439027,-28.59756097560976,-0.083984375,0.09375,-0.08203125
204,0.349,IMU0,-40.54878048780488,21.03658536585366,-40.243902439024396,0.1142578125,0.0244140625,-0.2763671875
205,0.349,IMU1,-40.0609756097561,23.231707317073173,-39.75609756097561,0.1103515625,0.033203125,-0.28515625
206,0.349,IMU2,-40.1219512195122,22.25609756097561,-39.87804878048781,0.0908203125,0.025390625,-0.23046875
207,0.359,IMU0,-64.39024390243902,37.5609756097561,-51.34146341463415,0.2080078125,-0.0361328125,-0.359375
208,0.359,IMU1,-64.63414634146342,39.57317073170732,-50.1829268292683,0.2099609375,-0.0244140625,-0.3603515625
209,0.359,IMU2,-64.81707317073172,39.08536585365854,-50.36585365853659,0.1923828125,-0.0341796875,-0.2998046875
210,0.369,IMU0,-91.95121951219512,54.39024390243903,-57.804878048780495,0.2333984375,-0.0859375,-0.3447265625
211,0.369,IMU1,-91.64634146341464,56.40243902439025,-56.28048780487806,0.2421875,-0.0751953125,-0.3447265625
212,0.369,IMU2,-91.52439024390245,56.15853658536586,-56.524390243902445,0.2333984375,-0.0810546875,-0.287109375
213,0.379,IMU0,-117.50000000000001,78.10975609756099,-56.09756097560976,0.1611328125,-0.1923828125,-0.1845703125
214,0.379,IMU1,-117.25609756097562,80.0,-53.963414634146346,0.177734375,-0.177734375,-0.189453125
215,0.379,IMU2,-116.70731707317074,79.32926829268294,-54.268292682926834,0.18359375,-0.1845703125,-0.13671875
216,0.389,IMU0,-130.5487804878049,120.12195121951221,-49.085365853658544,0.0458984375,-0.267578125,0.0673828125
217,0.389,IMU1,-130.609756097561,121.95121951219514,-46.524390243902445,0.05859375,-0.251953125,0.0400390625
218,0.389,IMU2,-129.69512195121953,121.46341463414635,-46.768292682926834,0.06640625,-0.2578125,0.07421875
219,0.399,IMU0,-124.93902439024392,179.32926829268294,-48.04878048780488,-0.0791015625,-0.279296875,0.412109375
220,0.399,IMU1,-125.06097560975611,180.85365853658539,-45.304878048780495,-0.0791015625,-0.26171875,0.3623046875
221,0.399,IMU2,-124.26829268292684,180.85365853658539,-45.60975609756098,-0.0810546875,-0.2685546875,0.37890625
222,0.409,IMU0,-100.1219512195122,202.9268292682927,-54.57317073170732,-0.255859375,-0.1943359375,0.599609375
223,0.409,IMU1,-100.00000000000001,204.93902439024393,-52.19512195121952,-0.2421875,-0.1767578125,0.533203125
224,0.409,IMU2,-100.3048780487805,204.26829268292684,-52.31707317073171,-0.2548828125,-0.18359375,0.5341796875
225,0.419,IMU0,-68.96341463414635,180.6707317073171,-56.707317073170735,-0.333984375,-0.0126953125,0.560546875
226,0.419,IMU1,-68.59756097560977,183.109756097561,-55.1219512195122,-0.3037109375,0.0048828125,0.4931640625
227,0.419,IMU2,-68.29268292682927,181.89024390243904,-55.0609756097561,-0.3173828125,-0.0048828125,0.498046875
228,0.429,IMU0,-41.40243902439025,140.2439024390244,-49.207317073170735,-0.2822265625,0.107421875,0.3173828125
229,0.429,IMU1,-41.34146341463415,142.6219512195122,-48.170731707317074,-0.248046875,0.1240234375,0.2666015625
230,0.429,IMU2,-41.28048780487805,141.15853658536588,-47.987804878048784,-0.2412109375,0.1142578125,0.2763671875
231,0.439,IMU0,-29.02439024390244,117.7439024390244,-32.6219512195122,-0.091796875,0.19140625,-0.02734375
232,0.439,IMU1,-29.146341463414636,119.81707317073172,-31.951219512195124,-0.05859375,0.2041015625,-0.05859375
233,0.439,IMU2,-29.146341463414636,118.71951219512196,-31.52439024390244,-0.0400390625,0.1943359375,-0.0302734375
234,0.449,IMU0,-35.1219512195122,112.56097560975611,-14.634146341463415,0.1240234375,0.16015625,-0.318359375
235,0.449,IMU1,-35.30487804878049,114.45121951219514,-13.841463414634148,0.1474609375,0.1708984375,-0.3291015625
236,0.449,IMU2,-35.30487804878049,113.41463414634147,-13.475609756097562,0.1650390625,0.1611328125,-0.287109375
237,0.459,IMU0,-55.304878048780495,110.91463414634147,-3.9024390243902443,0.326171875,0.076171875,-0.529296875
238,0.459,IMU1,-55.304878048780495,112.8048780487805,-2.7439024390243905,0.337890625,0.0869140625,-0.5302734375
239,0.459,IMU2,-55.91463414634147,112.19512195121952,-2.5609756097560976,0.345703125,0.0771484375,-0.4775390625
240,0.469,IMU0,-79.08536585365854,110.54878048780489,-1.9512195121951221,0.4375,-0.0380859375,-0.6708984375
241,0.469,IMU1,-79.26829268292684,112.25609756097562,-0.3658536585365854,0.4423828125,-0.02734375,-0.6787109375
242,0.469,IMU2,-79.08536585365854,111.40243902439025,-0.426829268292683,0.4384765625,-0.0361328125,-0.6318359375
243,0.479,IMU0,-94.45121951219512,123.04878048780489,-10.30487804878049,0.4462890625,-0.126953125,-0.8056640625
244,0.479,IMU1,-79.26829268292684,112.25609756097562,-0.3658536585365854,0.4423828125,-0.02734375,-0.6787109375
245,0.479,IMU2,-92.13414634146342,122.7439024390244,-8.78048780487805,0.42578125,-0.125,-0.7998046875
246,0.489,IMU0,-98.04878048780489,148.53658536585368,-30.182926829268297,0.318359375,-0.2001953125,-0.7548828125
247,0.489,IMU1,-98.84146341463415,149.69512195121953,-27.80487804878049,0.306640625,-0.193359375,-0.7900390625
248,0.489,IMU2,-95.97560975609757,149.26829268292684,-28.658536585365855,0.267578125,-0.197265625,-0.7626953125
249,0.499,IMU0,-93.71951219512196,158.96341463414635,-58.53658536585366,0.130859375,-0.1513671875,-0.568359375
250,0.499,IMU1,-93.29268292682927,160.3048780487805,-56.09756097560976,0.1279296875,-0.14453125,-0.6123046875
251,0.499,IMU2,-91.15853658536587,159.26829268292684,-57.07317073170732,0.080078125,-0.1455078125,-0.5888671875
252,0.509,IMU0,-81.09756097560977,160.91463414634148,-78.96341463414635,-0.0146484375,-0.0029296875,-0.33984375
253,0.509,IMU1,-80.91463414634147,162.8048780487805,-76.70731707317074,-0.009765625,0.0029296875,-0.3876953125
254,0.509,IMU2,-79.51219512195122,161.64634146341464,-77.31707317073172,-0.0361328125,0.0029296875,-0.3544921875
255,0.519,IMU0,-69.93902439024392,137.8658536585366,-85.42682926829269,-0.0888671875,0.1669921875,-0.12890625
256,0.519,IMU1,-69.69512195121952,140.5487804878049,-83.78048780487805,-0.076171875,0.1748046875,-0.1748046875
257,0.519,IMU2,-68.65853658536587,138.2317073170732,-83.84146341463415,-0.076171875,0.1728515625,-0.15234375
258,0.529,IMU0,-57.987804878048784,93.71951219512196,-72.7439024390244,-0.0244140625,0.28515625,-0.0185546875
259,0.529,IMU1,-57.560975609756106,96.70731707317074,-72.13414634146342,0.0087890625,0.2978515625,-0.0625
260,0.529,IMU2,-56.89024390243903,94.08536585365854,-71.34146341463415,0.0341796875,0.2900390625,-0.037109375
261,0.539,IMU0,-51.40243902439025,59.451219512195124,-42.926829268292686,0.0859375,0.3017578125,-0.0078125
262,0.539,IMU1,-51.15853658536586,61.82926829268293,-42.926829268292686,0.1240234375,0.3154296875,-0.0400390625
263,0.539,IMU2,-50.670731707317074,60.060975609756106,-41.707317073170735,0.1640625,0.3046875,-0.0078125
264,0.549,IMU0,-54.024390243902445,50.85365853658537,-11.890243902439025,0.171875,0.2685546875,-0.0673828125
265,0.549,IMU1,-53.90243902439025,52.6829268292683,-11.76829268292683,0.201171875,0.2841796875,-0.091796875
266,0.549,IMU2,-53.59756097560976,51.524390243902445,-10.731707317073171,0.2294921875,0.2705078125,-0.05859375
267,0.559,IMU0,-58.84146341463415,49.57317073170732,5.426829268292684,0.2578125,0.2021484375,-0.1337890625
268,0.559,IMU1,-59.39024390243903,51.40243902439025,6.036585365853659,0.2685546875,0.2177734375,-0.1630859375
269,0.559,IMU2,-58.29268292682927,50.1829268292683,6.402439024390245,0.279296875,0.2041015625,-0.13671875
270,0.569,IMU0,-55.00000000000001,45.54878048780488,8.78048780487805,0.3388671875,0.1416015625,-0.2138671875
271,0.569,IMU1,-55.85365853658537,47.6829268292683,9.695121951219512,0.337890625,0.1552734375,-0.25
272,0.569,IMU2,-54.39024390243903,46.34146341463415,9.573170731707318,0.3369140625,0.1435546875,-0.2373046875
273,0.579,IMU0,-44.57317073170732,42.13414634146342,2.8658536585365857,0.4189453125,0.1142578125,-0.310546875
274,0.579,IMU1,-45.60975609756098,44.207317073170735,3.8414634146341466,0.4150390625,0.1279296875,-0.345703125
275,0.579,IMU2,-44.08536585365854,42.743902439024396,3.414634146341464,0.4013671875,0.1171875,-0.3359375
276,0.589,IMU0,-35.0609756097561,31.03658536585366,-5.548780487804878,0.474609375,0.1298828125,-0.4267578125
277,0.589,IMU1,-35.73170731707317,32.987804878048784,-4.817073170731708,0.470703125,0.138671875,-0.4580078125
278,0.589,IMU2,-34.32926829268293,31.58536585365854,-5.182926829268293,0.4580078125,0.1298828125,-0.4453125
279,0.599,IMU0,-30.670731707317074,30.54878048780488,-11.158536585365855,0.4091796875,0.1328125,-0.5048828125
280,0.599,IMU1,-30.914634146341466,31.82926829268293,-10.609756097560977,0.412109375,0.140625,-0.5361328125
281,0.599,IMU2,-30.182926829268297,31.402439024390247,-10.792682926829269,0.400390625,0.1337890625,-0.509765625
282,0.609,IMU0,-30.975609756097565,44.57317073170732,-15.609756097560977,0.2822265625,0.162109375,-0.4111328125
283,0.609,IMU1,-31.219512195121954,45.73170731707317,-15.000000000000002,0.287109375,0.1708984375,-0.4462890625
284,0.609,IMU2,-30.54878048780488,45.54878048780488,-15.182926829268293,0.275390625,0.1630859375,-0.4111328125
285,0.619,IMU0,-28.53658536585366,48.29268292682927,-15.182926829268293,0.1455078125,0.20703125,-0.2099609375
286,0.619,IMU1,-29.02439024390244,50.426829268292686,-14.756097560975611,0.1552734375,0.2158203125,-0.2587890625
287,0.619,IMU2,-28.04878048780488,49.024390243902445,-14.634146341463415,0.1533203125,0.2080078125,-0.2216796875
288,0.629,IMU0,-19.878048780487806,20.914634146341466,-12.256097560975611,0.044921875,0.22265625,-0.0537109375
289,0.629,IMU1,-20.54878048780488,24.573170731707318,-12.317073170731708,0.0546875,0.2353515625,-0.0986328125
290,0.629,IMU2,-19.390243902439025,21.219512195121954,-12.01219512195122,0.05859375,0.2236328125,-0.078125
291,0.639,IMU0,-5.060975609756098,-17.621951219512198,-5.853658536585367,0.0615234375,0.2607421875,-0.0595703125
292,0.639,IMU1,-6.036585365853659,-14.26829268292683,-6.52439024390244,0.0703125,0.2724609375,-0.107421875
293,0.639,IMU2,-4.573170731707317,-17.195121951219512,-5.975609756097562,0.0810546875,0.259765625,-0.1044921875
294,0.649,IMU0,11.890243902439025,-43.04878048780488,2.6219512195121952,0.1611328125,0.2880859375,-0.2197265625
295,0.649,IMU1,10.853658536585368,-40.1829268292683,1.4634146341463417,0.166015625,0.298828125,-0.2578125
296,0.649,IMU2,12.256097560975611,-42.43902439024391,2.1341463414634148,0.1826171875,0.287109375,-0.259765625
297,0.659,IMU0,25.60975609756098,-57.01219512195122,11.036585365853659,0.279296875,0.3095703125,-0.427734375
298,0.659,IMU1,24.81707317073171,-54.75609756097561,9.51219512195122,0.287109375,0.31640625,-0.4619140625
299,0.659,IMU2,25.914634146341466,-56.15853658536586,10.30487804878049,0.298828125,0.3076171875,-0.4580078125
300,0.669,IMU0,33.78048780487805,-62.6219512195122,15.853658536585368,0.3916015625,0.3134765625,-0.595703125
301,0.669,IMU1,33.170731707317074,-60.487804878048784,14.451219512195124,0.392578125,0.3203125,-0.623046875
302,0.669,IMU2,34.024390243902445,-61.82926829268293,14.939024390243905,0.4013671875,0.3115234375,-0.61328125
303,0.679,IMU0,38.29268292682927,-58.17073170731708,18.04878048780488,0.4619140625,0.296875,-0.7109375
304,0.679,IMU1,37.743902439024396,-56.82926829268293,16.585365853658537,0.46875,0.3046875,-0.7373046875
305,0.679,IMU2,38.59756097560976,-57.25609756097561,17.134146341463417,0.47265625,0.2958984375,-0.724609375
306,0.689,IMU0,40.0609756097561,-45.0609756097561,22.378048780487806,0.4794921875,0.275390625,-0.73828125
307,0.689,IMU1,39.93902439024391,-44.08536585365854,20.914634146341466,0.490234375,0.2861328125,-0.76953125
308,0.689,IMU2,40.54878048780488,-43.90243902439025,21.585365853658537,0.4921875,0.2744140625,-0.7421875
309,0.699,IMU0,38.963414634146346,-25.853658536585368,25.914634146341466,0.4248046875,0.2265625,-0.7158203125
310,0.699,IMU1,38.71951219512196,-24.878048780487806,24.695121951219516,0.4345703125,0.2373046875,-0.744140625
311,0.699,IMU2,39.207317073170735,-24.634146341463417,25.243902439024392,0.4296875,0.224609375,-0.71484375
312,0.709,IMU0,37.743902439024396,-7.073170731707318,23.963414634146343,0.328125,0.193359375,-0.6650390625
313,0.709,IMU1,37.31707317073171,-5.975609756097562,23.414634146341466,0.3330078125,0.203125,-0.69921875
314,0.709,IMU2,37.987804878048784,-5.853658536585367,23.353658536585368,0.314453125,0.19140625,-0.666015625
315,0.719,IMU0,39.207317073170735,2.5,14.878048780487806,0.2314453125,0.1904296875,-0.6025390625
316,0.719,IMU1,38.71951219512196,4.2682926829268295,14.695121951219514,0.2294921875,0.19921875,-0.6357421875
317,0.719,IMU2,39.390243902439025,3.536585365853659,14.207317073170733,0.2119140625,0.19140625,-0.609375
318,0.729,IMU0,42.743902439024396,2.8658536585365857,5.914634146341464,0.19140625,0.2529296875,-0.59375
319,0.729,IMU1,42.13414634146342,5.0,5.426829268292684,0.189453125,0.2568359375,-0.6298828125
320,0.729,IMU2,42.987804878048784,3.9024390243902443,5.2439024390243905,0.185546875,0.2529296875,-0.6083984375
321,0.739,IMU0,47.25609756097561,-1.707317073170732,6.219512195121951,0.220703125,0.30859375,-0.5888671875
322,0.739,IMU1,46.82926829268293,0.853658536585366,4.817073170731708,0.228515625,0.314453125,-0.625
323,0.739,IMU2,47.50000000000001,-0.853658536585366,5.731707317073171,0.2412109375,0.30859375,-0.6015625
324,0.749,IMU0,47.6829268292683,-14.695121951219514,16.951219512195124,0.306640625,0.330078125,-0.6181640625
325,0.749,IMU1,47.6219512195122,-11.707317073170733,15.000000000000002,0.3154296875,0.3388671875,-0.642578125
326,0.749,IMU2,47.743902439024396,-14.02439024390244,16.463414634146343,0.33984375,0.3291015625,-0.6123046875
327,0.759,IMU0,40.304878048780495,-18.04878048780488,29.512195121951223,0.439453125,0.2822265625,-0.7001953125
328,0.759,IMU1,39.451219512195124,-15.79268292682927,28.902439024390247,0.4462890625,0.294921875,-0.7119140625
329,0.759,IMU2,40.243902439024396,-17.134146341463417,29.08536585365854,0.4716796875,0.283203125,-0.677734375
330,0.769,IMU0,26.646341463414636,-1.1585365853658538,40.91463414634147,0.5478515625,0.2373046875,-0.7841796875
331,0.769,IMU1,25.48780487804878,1.4634146341463417,40.426829268292686,0.5576171875,0.25,-0.79296875
332,0.769,IMU2,26.58536585365854,0.0,40.60975609756098,0.5712890625,0.2373046875,-0.7568359375
333,0.779,IMU0,13.841463414634148,16.70731707317073,46.03658536585366,0.6171875,0.1875,-0.822265625
334,0.779,IMU1,12.74390243902439,19.085365853658537,45.670731707317074,0.62109375,0.197265625,-0.83984375
335,0.779,IMU2,13.902439024390246,17.743902439024392,45.97560975609756,0.6240234375,0.1845703125,-0.8076171875
336,0.789,IMU0,5.975609756097562,27.682926829268297,44.268292682926834,0.65234375,0.1435546875,-0.7958984375
337,0.789,IMU1,5.0,29.81707317073171,43.90243902439025,0.650390625,0.1494140625,-0.818359375
338,0.789,IMU2,6.158536585365854,28.658536585365855,44.268292682926834,0.640625,0.142578125,-0.7900390625
339,0.799,IMU0,1.829268292682927,18.658536585365855,33.963414634146346,0.6767578125,0.1025390625,-0.6982421875
340,0.799,IMU1,1.0365853658536586,20.0609756097561,33.41463414634146,0.6640625,0.1083984375,-0.72265625
341,0.799,IMU2,2.0121951219512195,19.146341463414636,33.71951219512196,0.6435546875,0.099609375,-0.6982421875
342,0.809,IMU0,0.7926829268292683,-13.414634146341465,15.914634146341465,0.6611328125,0.056640625,-0.6474609375
343,0.809,IMU1,0.3658536585365854,-12.134146341463415,15.121951219512196,0.640625,0.0634765625,-0.6806640625
344,0.809,IMU2,1.0975609756097562,-12.987804878048781,15.365853658536587,0.6142578125,0.0546875,-0.66015625
345,0.819,IMU0,4.085365853658537,-38.04878048780488,-7.01219512195122,0.58203125,0.07421875,-0.65234375
346,0.819,IMU1,4.207317073170732,-36.40243902439025,-8.109756097560977,0.5595703125,0.0830078125,-0.6884765625
347,0.819,IMU2,4.51219512195122,-37.25609756097561,-7.926829268292684,0.53125,0.0732421875,-0.673828125
348,0.829,IMU0,12.317073170731708,-45.00000000000001,-26.951219512195124,0.5009765625,0.166015625,-0.70703125
349,0.829,IMU1,12.74390243902439,-43.04878048780488,-28.04878048780488,0.48828125,0.17578125,-0.75
350,0.829,IMU2,12.74390243902439,-43.963414634146346,-27.926829268292686,0.47265625,0.166015625,-0.7392578125
351,0.839,IMU0,24.207317073170735,-40.85365853658537,-34.87804878048781,0.4658203125,0.255859375,-0.806640625
352,0.839,IMU1,24.75609756097561,-38.78048780487805,-35.79268292682927,0.470703125,0.265625,-0.853515625
353,0.839,IMU2,24.634146341463417,-39.69512195121951,-35.609756097560975,0.470703125,0.2548828125,-0.8427734375
354,0.849,IMU0,36.28048780487805,-37.6829268292683,-30.792682926829272,0.4736328125,0.30078125,-0.916015625
355,0.849,IMU1,36.768292682926834,-35.73170731707317,-31.82926829268293,0.486328125,0.3076171875,-0.958984375
356,0.849,IMU2,36.646341463414636,-36.646341463414636,-31.58536585365854,0.494140625,0.2978515625,-0.947265625
357,0.859,IMU0,44.207317073170735,-40.670731707317074,-23.53658536585366,0.474609375,0.2998046875,-0.986328125
358,0.859,IMU1,44.57317073170732,-38.78048780487805,-24.695121951219516,0.486328125,0.3056640625,-1.0224609375
359,0.859,IMU2,44.51219512195122,-39.75609756097561,-24.390243902439025,0.4912109375,0.2958984375,-1.001953125
360,0.869,IMU0,43.90243902439025,-49.75609756097561,-20.670731707317074,0.4599609375,0.2900390625,-1.02734375
361,0.869,IMU1,44.146341463414636,-47.987804878048784,-21.890243902439025,0.4638671875,0.2958984375,-1.0537109375
362,0.869,IMU2,44.024390243902445,-48.963414634146346,-21.646341463414636,0.4599609375,0.2880859375,-1.0224609375
363,0.879,IMU0,34.207317073170735,-65.60975609756098,-23.84146341463415,0.455078125,0.28515625,-1.064453125
364,0.879,IMU1,34.390243902439025,-63.84146341463415,-25.0609756097561,0.4560546875,0.291015625,-1.0791015625
365,0.879,IMU2,34.207317073170735,-65.0,-25.000000000000004,0.4482421875,0.2802734375,-1.0400390625
366,0.889,IMU0,18.902439024390244,-78.23170731707317,-28.475609756097562,0.4560546875,0.2958984375,-1.0947265625
367,0.889,IMU1,19.146341463414636,-76.34146341463415,-29.512195121951223,0.4599609375,0.298828125,-1.107421875
368,0.889,IMU2,18.963414634146343,-77.37804878048782,-29.451219512195124,0.4541015625,0.291015625,-1.06640625
369,0.899,IMU0,5.060975609756098,-73.17073170731707,-29.634146341463417,0.4384765625,0.3076171875,-1.1083984375
370,0.899,IMU1,5.2439024390243905,-71.21951219512195,-30.426829268292686,0.4462890625,0.3115234375,-1.1240234375
371,0.899,IMU2,5.121951219512195,-71.95121951219512,-30.30487804878049,0.4453125,0.3037109375,-1.087890625
372,0.909,IMU0,-3.1707317073170733,-53.59756097560976,-28.59756097560976,0.40234375,0.3212890625,-1.111328125
373,0.909,IMU1,-2.9268292682926833,-51.707317073170735,-29.146341463414636,0.41015625,0.3251953125,-1.13671875
374,0.909,IMU2,-2.9268292682926833,-52.19512195121952,-29.08536585365854,0.40625,0.31640625,-1.1083984375
375,0.919,IMU0,-3.658536585365854,-26.89024390243903,-28.170731707317074,0.34765625,0.3349609375,-1.1201171875
376,0.919,IMU1,-3.4756097560975614,-25.000000000000004,-28.475609756097562,0.35546875,0.3388671875,-1.154296875
377,0.919,IMU2,-3.2926829268292686,-25.30487804878049,-28.475609756097562,0.3515625,0.330078125,-1.1337890625
378,0.929,IMU0,1.402439024390244,-6.890243902439025,-26.76829268292683,0.26953125,0.384765625,-1.123046875
379,0.929,IMU1,1.524390243902439,-5.0,-27.134146341463417,0.2783203125,0.3876953125,-1.1630859375
380,0.929,IMU2,1.707317073170732,-5.670731707317073,-26.951219512195124,0.275390625,0.380859375,-1.1435546875
381,0.939,IMU0,6.219512195121951,-0.1829268292682927,-25.182926829268293,0.185546875,0.431640625,-1.1435546875
382,0.939,IMU1,6.2804878048780495,1.707317073170732,-25.54878048780488,0.1943359375,0.43359375,-1.1787109375
383,0.939,IMU2,6.52439024390244,0.9146341463414634,-25.365853658536587,0.1904296875,0.4267578125,-1.154296875
384,0.949,IMU0,7.926829268292684,4.2682926829268295,-23.414634146341466,0.1279296875,0.46875,-1.12109375
385,0.949,IMU1,8.048780487804878,6.158536585365854,-23.78048780487805,0.1376953125,0.4716796875,-1.15234375
386,0.949,IMU2,8.292682926829269,5.365853658536586,-23.53658536585366,0.13671875,0.4658203125,-1.123046875
387,0.959,IMU0,5.487804878048781,8.658536585365855,-18.78048780487805,0.095703125,0.4951171875,-1.064453125
388,0.959,IMU1,5.670731707317073,10.609756097560977,-19.085365853658537,0.1103515625,0.498046875,-1.0888671875
389,0.959,IMU2,5.7926829268292686,9.695121951219512,-18.719512195121954,0.115234375,0.4921875,-1.0556640625
390,0.969,IMU0,-0.06097560975609757,4.634146341463415,-10.487804878048781,0.1005859375,0.4921875,-0.9697265625
391,0.969,IMU1,0.0,6.646341463414635,-10.731707317073171,0.115234375,0.49609375,-0.9951171875
392,0.969,IMU2,0.24390243902439027,5.426829268292684,-10.30487804878049,0.1220703125,0.4873046875,-0.95703125
393,0.979,IMU0,-6.158536585365854,-9.817073170731708,-4.75609756097561,0.146484375,0.4375,-0.8798828125
394,0.979,IMU1,-6.219512195121951,-7.743902439024391,-5.0,0.1552734375,0.44140625,-0.9033203125
395,0.979,IMU2,-5.914634146341464,-9.26829268292683,-4.817073170731708,0.1552734375,0.431640625,-0.8681640625
396,0.989,IMU0,-11.036585365853659,-24.085365853658537,-5.548780487804878,0.240234375,0.37109375,-0.828125
397,0.989,IMU1,-11.158536585365855,-22.073170731707318,-5.670731707317073,0.2421875,0.3779296875,-0.8544921875
398,0.989,IMU2,-10.731707317073171,-23.29268292682927,-5.731707317073171,0.2392578125,0.3662109375,-0.8251953125
399,0.999,IMU0,-12.378048780487806,-23.902439024390247,-8.536585365853659,0.333984375,0.3251953125,-0.8203125
400,0.999,IMU1,-12.560975609756099,-22.134146341463417,-8.658536585365855,0.3359375,0.3310546875,-0.8505859375
401,0.999,IMU2,-12.073170731707318,-22.743902439024392,-8.719512195121952,0.33203125,0.3203125,-0.8310546875
402,1.009,IMU0,-8.719512195121952,-9.26829268292683,-10.121951219512196,0.3779296875,0.3154296875,-0.8515625
403,1.009,IMU1,-8.963414634146343,-7.560975609756098,-10.30487804878049,0.380859375,0.322265625,-0.8857421875
404,1.009,IMU2,-8.353658536585366,-7.8048780487804885,-10.182926829268293,0.3759765625,0.3125,-0.873046875
405,1.019,IMU0,-0.5487804878048781,6.158536585365854,-12.256097560975611,0.3759765625,0.314453125,-0.884765625
406,1.019,IMU1,-0.9146341463414634,7.865853658536586,-12.500000000000002,0.3798828125,0.3203125,-0.923828125
407,1.019,IMU2,-0.12195121951219513,7.439024390243903,-12.378048780487806,0.3720703125,0.310546875,-0.9150390625
408,1.029,IMU0,10.121951219512196,13.231707317073171,-15.487804878048783,0.330078125,0.3154296875,-0.90234375
409,1.029,IMU1,9.756097560975611,15.121951219512196,-15.79268292682927,0.3330078125,0.3232421875,-0.9404296875
410,1.029,IMU2,10.487804878048781,14.26829268292683,-15.731707317073171,0.3232421875,0.3134765625,-0.931640625
411,1.039,IMU0,21.402439024390247,12.987804878048781,-19.81707317073171,0.267578125,0.31640625,-0.90234375
412,1.039,IMU1,21.219512195121954,15.060975609756099,-20.243902439024392,0.26953125,0.3232421875,-0.9404296875
413,1.039,IMU2,21.82926829268293,13.963414634146343,-20.182926829268293,0.263671875,0.314453125,-0.9306640625
414,1.049,IMU0,30.670731707317074,10.914634146341465,-26.09756097560976,0.201171875,0.328125,-0.8818359375
415,1.049,IMU1,30.670731707317074,12.987804878048781,-26.52439024390244,0.203125,0.3349609375,-0.9169921875
416,1.049,IMU2,31.09756097560976,11.951219512195124,-26.52439024390244,0.1962890625,0.3251953125,-0.90234375
417,1.059,IMU0,35.30487804878049,9.390243902439025,-30.000000000000004,0.142578125,0.3681640625,-0.8779296875
418,1.059,IMU1,35.54878048780488,11.341463414634147,-30.670731707317074,0.1474609375,0.3740234375,-0.9072265625
419,1.059,IMU2,35.609756097560975,10.365853658536587,-30.487804878048784,0.1455078125,0.3623046875,-0.8857421875
420,1.069,IMU0,35.0609756097561,8.414634146341465,-29.39024390243903,0.095703125,0.4140625,-0.9072265625
421,1.069,IMU1,35.36585365853659,10.365853658536587,-30.121951219512198,0.10546875,0.419921875,-0.931640625
422,1.069,IMU2,35.243902439024396,9.51219512195122,-29.75609756097561,0.1083984375,0.4091796875,-0.9013671875
423,1.079,IMU0,30.914634146341466,7.195121951219513,-24.26829268292683,0.064453125,0.44921875,-0.931640625
424,1.079,IMU1,31.219512195121954,9.207317073170733,-25.121951219512198,0.078125,0.4560546875,-0.951171875
425,1.079,IMU2,31.03658536585366,8.109756097560977,-24.512195121951223,0.0849609375,0.4462890625,-0.9189453125
426,1.089,IMU0,23.84146341463415,-0.30487804878048785,-16.76829268292683,0.06640625,0.455078125,-0.9267578125
427,1.089,IMU1,24.085365853658537,1.8902439024390245,-17.5609756097561,0.080078125,0.4599609375,-0.9482421875
428,1.089,IMU2,24.695121951219516,1.524390243902439,-17.743902439024392,0.0869140625,0.451171875,-0.916015625
429,1.099,IMU0,14.756097560975611,-13.475609756097562,-8.719512195121952,0.0908203125,0.439453125,-0.904296875
430,1.099,IMU1,15.060975609756099,-11.158536585365855,-9.51219512195122,0.10546875,0.4462890625,-0.9228515625
431,1.099,IMU2,15.79268292682927,-11.463414634146343,-9.634146341463415,0.109375,0.4375,-0.8896484375
432,1.109,IMU0,6.097560975609756,-24.75609756097561,-0.7317073170731708,0.125,0.4169921875,-0.880859375
433,1.109,IMU1,6.2804878048780495,-22.621951219512198,-1.4634146341463417,0.138671875,0.423828125,-0.900390625
434,1.109,IMU2,7.01219512195122,-23.29268292682927,-1.6463414634146343,0.1416015625,0.4140625,-0.869140625
435,1.119,IMU0,-0.12195121951219513,-26.158536585365855,5.731707317073171,0.1787109375,0.396484375,-0.876953125
436,1.119,IMU1,-0.24390243902439027,-24.390243902439025,5.182926829268293,0.1962890625,0.4013671875,-0.900390625
437,1.119,IMU2,0.5487804878048781,-25.54878048780488,5.060975609756098,0.197265625,0.3916015625,-0.8720703125
438,1.129,IMU0,-4.146341463414634,-20.243902439024392,9.634146341463415,0.263671875,0.37109375,-0.892578125
439,1.129,IMU1,-4.451219512195122,-18.53658536585366,9.26829268292683,0.2802734375,0.3759765625,-0.9169921875
440,1.129,IMU2,-3.658536585365854,-19.878048780487806,9.329268292682928,0.275390625,0.3671875,-0.8916015625
441,1.139,IMU0,-6.036585365853659,-12.987804878048781,9.207317073170733,0.3447265625,0.337890625,-0.9052734375
442,1.139,IMU1,-6.341463414634147,-11.341463414634147,9.085365853658537,0.3525390625,0.341796875,-0.9306640625
443,1.139,IMU2,-5.670731707317073,-12.682926829268293,9.329268292682928,0.345703125,0.333984375,-0.9072265625
444,1.149,IMU0,-5.0,-4.817073170731708,5.975609756097562,0.390625,0.3134765625,-0.896484375
445,1.149,IMU1,-5.426829268292684,-3.1707317073170733,5.914634146341464,0.3935546875,0.318359375,-0.9248046875
446,1.149,IMU2,-5.0,-4.573170731707317,6.219512195121951,0.3857421875,0.3095703125,-0.904296875
447,1.159,IMU0,-1.8902439024390245,1.2195121951219514,1.6463414634146343,0.400390625,0.306640625,-0.8896484375
448,1.159,IMU1,-2.378048780487805,3.048780487804878,1.6463414634146343,0.4013671875,0.3134765625,-0.919921875
449,1.159,IMU2,-2.0121951219512195,1.829268292682927,1.9512195121951221,0.392578125,0.302734375,-0.9013671875
450,1.169,IMU0,2.5,4.2682926829268295,-2.9268292682926833,0.3935546875,0.3076171875,-0.892578125
451,1.169,IMU1,2.073170731707317,6.097560975609756,-2.9268292682926833,0.39453125,0.314453125,-0.92578125
452,1.169,IMU2,2.378048780487805,5.0,-2.6219512195121952,0.3857421875,0.3046875,-0.9072265625
453,1.179,IMU0,7.560975609756098,7.439024390243903,-6.097560975609756,0.373046875,0.3193359375,-0.900390625
454,1.179,IMU1,7.195121951219513,9.26829268292683,-6.341463414634147,0.3740234375,0.326171875,-0.9326171875
455,1.179,IMU2,7.439024390243903,8.170731707317074,-6.036585365853659,0.369140625,0.31640625,-0.9140625
456,1.189,IMU0,11.28048780487805,9.51219512195122,-6.951219512195123,0.33984375,0.341796875,-0.89453125
457,1.189,IMU1,11.341463414634147,11.402439024390246,-7.378048780487806,0.34375,0.3486328125,-0.9267578125
458,1.189,IMU2,11.646341463414634,10.426829268292684,-7.134146341463415,0.3408203125,0.3388671875,-0.90625
459,1.199,IMU0,13.353658536585368,6.341463414634147,-6.402439024390245,0.310546875,0.3564453125,-0.873046875
460,1.199,IMU1,13.29268292682927,7.865853658536586,-6.7682926829268295,0.3173828125,0.3642578125,-0.900390625
461,1.199,IMU2,13.597560975609758,7.073170731707318,-6.52439024390244,0.314453125,0.353515625,-0.8779296875
462,1.209,IMU0,12.317073170731708,-2.5609756097560976,-4.207317073170732,0.294921875,0.36328125,-0.857421875
463,1.209,IMU1,12.195121951219512,-1.1585365853658538,-4.51219512195122,0.3017578125,0.37109375,-0.8828125
464,1.209,IMU2,12.560975609756099,-1.9512195121951221,-4.390243902439025,0.3017578125,0.361328125,-0.85546875
465,1.219,IMU0,9.146341463414634,-11.28048780487805,-2.1341463414634148,0.3076171875,0.3486328125,-0.84375
466,1.219,IMU1,8.902439024390244,-9.756097560975611,-2.439024390243903,0.3154296875,0.35546875,-0.8671875
467,1.219,IMU2,9.390243902439025,-10.548780487804878,-2.3170731707317076,0.314453125,0.3447265625,-0.8408203125
468,1.229,IMU0,5.609756097560976,-18.963414634146343,-1.2195121951219514,0.3251953125,0.3271484375,-0.83203125
469,1.229,IMU1,5.365853658536586,-17.31707317073171,-1.6463414634146343,0.3310546875,0.3359375,-0.857421875
470,1.229,IMU2,5.853658536585367,-18.231707317073173,-1.4634146341463417,0.3271484375,0.3251953125,-0.8291015625
471,1.239,IMU0,2.987804878048781,-27.500000000000004,-2.804878048780488,0.34765625,0.3017578125,-0.857421875
472,1.239,IMU1,2.7439024390243905,-25.792682926829272,-3.2926829268292686,0.349609375,0.30859375,-0.888671875
473,1.239,IMU2,3.1707317073170733,-26.707317073170735,-3.1707317073170733,0.34375,0.2978515625,-0.86328125
474,1.249,IMU0,2.5,-29.75609756097561,-6.646341463414635,0.369140625,0.291015625,-0.9248046875
475,1.249,IMU1,2.5,-27.682926829268297,-7.195121951219513,0.3701171875,0.296875,-0.9560546875
476,1.249,IMU2,2.7439024390243905,-28.658536585365855,-7.01219512195122,0.36328125,0.2880859375,-0.9345703125
477,1.259,IMU0,4.085365853658537,-22.926829268292686,-8.353658536585366,0.373046875,0.296875,-0.994140625
478,1.259,IMU1,4.085365853658537,-20.60975609756098,-8.78048780487805,0.3779296875,0.3037109375,-1.02734375
479,1.259,IMU2,4.329268292682928,-21.707317073170735,-8.719512195121952,0.376953125,0.294921875,-1.0078125
480,1.269,IMU0,6.829268292682928,-12.01219512195122,-6.585365853658537,0.3525390625,0.2998046875,-1.0341796875
481,1.269,IMU1,6.829268292682928,-9.695121951219512,-6.890243902439025,0.3583984375,0.3056640625,-1.06640625
482,1.269,IMU2,7.195121951219513,-10.731707317073171,-6.707317073170732,0.359375,0.296875,-1.0458984375
483,1.279,IMU0,9.695121951219512,-2.682926829268293,-5.182926829268293,0.3154296875,0.291015625,-1.0400390625
484,1.279,IMU1,9.634146341463415,-0.48780487804878053,-5.548780487804878,0.318359375,0.2958984375,-1.0693359375
485,1.279,IMU2,10.0,-1.4634146341463417,-5.365853658536586,0.3154296875,0.287109375,-1.048828125
486,1.289,IMU0,11.402439024390246,0.7317073170731708,-7.378048780487806,0.2734375,0.291015625,-1.0146484375
487,1.289,IMU1,11.402439024390246,2.7439024390243905,-7.865853658536586,0.2744140625,0.296875,-1.04296875
488,1.289,IMU2,11.707317073170733,1.7682926829268295,-7.621951219512196,0.267578125,0.2880859375,-1.01953125
489,1.299,IMU0,11.463414634146343,-0.853658536585366,-11.036585365853659,0.23828125,0.2998046875,-0.9765625
490,1.299,IMU1,11.402439024390246,1.0365853658536586,-11.585365853658537,0.2392578125,0.306640625,-1.005859375
491,1.299,IMU2,11.707317073170733,0.12195121951219513,-11.341463414634147,0.234375,0.2958984375,-0.9765625
492,1.309,IMU0,10.30487804878049,-1.8902439024390245,-12.500000000000002,0.20703125,0.3203125,-0.935546875
493,1.309,IMU1,10.30487804878049,0.12195121951219513,-13.04878048780488,0.2119140625,0.326171875,-0.962890625
494,1.309,IMU2,10.670731707317074,-0.853658536585366,-12.74390243902439,0.2119140625,0.3173828125,-0.93359375
495,1.319,IMU0,9.26829268292683,-2.1951219512195124,-9.939024390243903,0.1845703125,0.3427734375,-0.890625
496,1.319,IMU1,9.207317073170733,-0.24390243902439027,-10.30487804878049,0.193359375,0.3486328125,-0.91796875
497,1.319,IMU2,9.573170731707318,-1.2195121951219514,-10.060975609756099,0.1962890625,0.3388671875,-0.8896484375
498,1.329,IMU0,9.146341463414634,-4.817073170731708,-5.487804878048781,0.173828125,0.349609375,-0.8486328125
499,1.329,IMU1,9.02439024390244,-2.9268292682926833,-5.7926829268292686,0.1826171875,0.35546875,-0.8759765625
500,1.329,IMU2,9.390243902439025,-3.9024390243902443,-5.609756097560976,0.1845703125,0.345703125,-0.8515625
501,1.339,IMU0,10.365853658536587,-6.890243902439025,-2.1951219512195124,0.181640625,0.33984375,-0.8046875
502,1.339,IMU1,10.30487804878049,-5.0,-2.5609756097560976,0.189453125,0.3466796875,-0.833984375
503,1.339,IMU2,10.731707317073171,-6.036585365853659,-2.378048780487805,0.1904296875,0.3349609375,-0.810546875
504,1.349,IMU0,13.04878048780488,-9.573170731707318,0.0,0.203125,0.328125,-0.763671875
505,1.349,IMU1,12.987804878048781,-7.8048780487804885,-0.48780487804878053,0.2099609375,0.3369140625,-0.794921875
506,1.349,IMU2,13.414634146341465,-8.78048780487805,-0.30487804878048785,0.2109375,0.326171875,-0.7705078125
507,1.359,IMU0,16.402439024390244,-14.451219512195124,1.402439024390244,0.23828125,0.3173828125,-0.748046875
508,1.359,IMU1,16.219512195121954,-12.621951219512196,0.7926829268292683,0.244140625,0.326171875,-0.7802734375
509,1.359,IMU2,16.70731707317073,-13.658536585365855,1.0365853658536586,0.2431640625,0.3154296875,-0.7568359375
510,1.369,IMU0,19.939024390243905,-17.98780487804878,2.439024390243903,0.2587890625,0.31640625,-0.7587890625
511,1.369,IMU1,19.81707317073171,-16.03658536585366,1.7682926829268295,0.265625,0.32421875,-0.7939453125
512,1.369,IMU2,20.243902439024392,-17.012195121951223,2.0121951219512195,0.2646484375,0.314453125,-0.771484375
513,1.379,IMU0,23.719512195121954,-19.146341463414636,4.878048780487806,0.259765625,0.3115234375,-0.7841796875
514,1.379,IMU1,23.59756097560976,-17.134146341463417,4.146341463414634,0.267578125,0.3193359375,-0.8203125
515,1.379,IMU2,24.085365853658537,-18.170731707317074,4.451219512195122,0.267578125,0.310546875,-0.798828125
516,1.389,IMU0,27.5609756097561,-18.231707317073173,7.073170731707318,0.265625,0.3046875,-0.8291015625
517,1.389,IMU1,27.439024390243905,-16.219512195121954,6.2804878048780495,0.2724609375,0.3115234375,-0.8642578125
518,1.389,IMU2,27.865853658536587,-17.195121951219512,6.585365853658537,0.26953125,0.3017578125,-0.8427734375
519,1.399,IMU0,30.853658536585368,-16.585365853658537,7.865853658536586,0.2705078125,0.2958984375,-0.8759765625
520,1.399,IMU1,30.670731707317074,-14.573170731707318,7.073170731707318,0.27734375,0.3017578125,-0.908203125
521,1.399,IMU2,31.09756097560976,-15.54878048780488,7.317073170731708,0.2763671875,0.2919921875,-0.88671875
522,1.409,IMU0,32.80487804878049,-14.878048780487806,8.78048780487805,0.2724609375,0.2900390625,-0.91015625
523,1.409,IMU1,32.6219512195122,-12.80487804878049,7.926829268292684,0.2802734375,0.294921875,-0.9404296875
524,1.409,IMU2,33.04878048780488,-13.841463414634148,8.231707317073171,0.279296875,0.2861328125,-0.91796875
525,1.419,IMU0,32.5609756097561,-12.378048780487806,10.0,0.265625,0.291015625,-0.9287109375
526,1.419,IMU1,32.25609756097561,-10.365853658536587,9.207317073170733,0.2734375,0.2978515625,-0.953125
527,1.419,IMU2,32.6219512195122,-11.28048780487805,9.51219512195122,0.2724609375,0.2880859375,-0.931640625
528,1.429,IMU0,29.87804878048781,-8.109756097560977,11.097560975609756,0.25390625,0.296875,-0.9189453125
529,1.429,IMU1,29.512195121951223,-6.097560975609756,10.365853658536587,0.2607421875,0.3037109375,-0.943359375
530,1.429,IMU2,29.939024390243905,-6.951219512195123,10.731707317073171,0.259765625,0.2939453125,-0.9150390625
531,1.439,IMU0,25.54878048780488,-4.939024390243903,11.829268292682928,0.2490234375,0.29296875,-0.8828125
532,1.439,IMU1,25.182926829268293,-2.987804878048781,11.158536585365855,0.255859375,0.2998046875,-0.9072265625
533,1.439,IMU2,25.60975609756098,-4.024390243902439,11.52439024390244,0.2548828125,0.2900390625,-0.876953125
534,1.449,IMU0,21.707317073170735,-4.75609756097561,13.109756097560977,0.2529296875,0.2744140625,-0.84765625
535,1.449,IMU1,21.28048780487805,-2.8658536585365857,12.439024390243903,0.259765625,0.28125,-0.8740234375
536,1.449,IMU2,21.82926829268293,-3.8414634146341466,12.865853658536587,0.2587890625,0.2705078125,-0.84375
537,1.459,IMU0,20.182926829268293,-2.439024390243903,14.390243902439027,0.265625,0.2451171875,-0.822265625
538,1.459,IMU1,19.878048780487806,-0.48780487804878053,13.719512195121952,0.271484375,0.251953125,-0.853515625
539,1.459,IMU2,20.48780487804878,-1.3414634146341464,14.085365853658537,0.2705078125,0.2421875,-0.826171875
540,1.469,IMU0,22.439024390243905,2.5609756097560976,14.085365853658537,0.2802734375,0.2119140625,-0.7978515625
541,1.469,IMU1,21.951219512195124,4.51219512195122,13.475609756097562,0.283203125,0.2197265625,-0.83203125
542,1.469,IMU2,22.682926829268293,3.536585365853659,13.78048780487805,0.2783203125,0.2099609375,-0.8095703125
543,1.479,IMU0,27.012195121951223,8.231707317073171,11.829268292682928,0.2763671875,0.19921875,-0.818359375
544,1.479,IMU1,26.58536585365854,10.24390243902439,11.158536585365855,0.2783203125,0.20703125,-0.853515625
545,1.479,IMU2,27.31707317073171,9.390243902439025,11.402439024390246,0.2724609375,0.1982421875,-0.8330078125
546,1.489,IMU0,31.58536585365854,14.634146341463415,8.841463414634147,0.265625,0.2060546875,-0.8798828125
547,1.489,IMU1,31.58536585365854,17.073170731707318,7.865853658536586,0.2685546875,0.2119140625,-0.912109375
548,1.489,IMU2,31.89024390243903,15.79268292682927,8.414634146341465,0.263671875,0.203125,-0.892578125
549,1.499,IMU0,33.84146341463415,16.158536585365855,6.829268292682928,0.2451171875,0.2119140625,-0.947265625
550,1.499,IMU1,33.53658536585366,18.231707317073173,6.097560975609756,0.25,0.2177734375,-0.9755859375
551,1.499,IMU2,33.963414634146346,17.134146341463417,6.402439024390245,0.244140625,0.208984375,-0.9521484375
552,1.509,IMU0,32.6219512195122,12.865853658536587,5.731707317073171,0.20703125,0.2197265625,-1.001953125
553,1.509,IMU1,32.13414634146342,14.451219512195124,4.878048780487806,0.2138671875,0.224609375,-1.025390625
554,1.509,IMU2,32.80487804878049,13.719512195121952,5.3048780487804885,0.2080078125,0.2177734375,-0.998046875
555,1.519,IMU0,28.10975609756098,5.121951219512195,4.390243902439025,0.1748046875,0.220703125,-1.0283203125
556,1.519,IMU1,27.378048780487806,6.219512195121951,3.536585365853659,0.1796875,0.2236328125,-1.0498046875
557,1.519,IMU2,28.10975609756098,5.7926829268292686,3.9024390243902443,0.17578125,0.2177734375,-1.017578125
558,1.529,IMU0,21.28048780487805,-6.036585365853659,2.682926829268293,0.15625,0.2177734375,-1.0380859375
559,1.529,IMU1,20.365853658536587,-5.060975609756098,1.8902439024390245,0.1611328125,0.2216796875,-1.05859375
560,1.529,IMU2,21.219512195121954,-5.426829268292684,2.1951219512195124,0.15625,0.2138671875,-1.0234375
561,1.539,IMU0,13.475609756097562,-16.28048780487805,1.829268292682927,0.1591796875,0.2158203125,-1.03125
562,1.539,IMU1,12.621951219512196,-15.060975609756099,1.1585365853658538,0.169921875,0.220703125,-1.0498046875
563,1.539,IMU2,13.414634146341465,-15.609756097560977,1.402439024390244,0.1640625,0.2138671875,-1.0185546875
564,1.549,IMU0,6.2804878048780495,-22.195121951219512,2.1951219512195124,0.20703125,0.19921875,-1.017578125
565,1.549,IMU1,5.487804878048781,-20.365853658536587,1.7682926829268295,0.2216796875,0.201171875,-1.037109375
566,1.549,IMU2,6.341463414634147,-21.402439024390247,1.829268292682927,0.21484375,0.1943359375,-1.005859375
567,1.559,IMU0,1.524390243902439,-17.98780487804878,4.634146341463415,0.2861328125,0.1748046875,-1.0048828125
568,1.559,IMU1,0.9756097560975611,-15.243902439024392,4.573170731707317,0.302734375,0.1787109375,-1.029296875
569,1.559,IMU2,1.7682926829268295,-16.70731707317073,4.573170731707317,0.30078125,0.169921875,-1.0029296875
570,1.569,IMU0,0.0,-6.585365853658537,8.902439024390244,0.34375,0.1494140625,-0.9794921875
571,1.569,IMU1,-0.3658536585365854,-3.658536585365854,8.963414634146343,0.3583984375,0.154296875,-1.0048828125
572,1.569,IMU2,0.24390243902439027,-5.2439024390243905,8.902439024390244,0.357421875,0.1455078125,-0.984375
573,1.579,IMU0,1.5853658536585367,4.085365853658537,11.341463414634147,0.357421875,0.130859375,-0.947265625
574,1.579,IMU1,1.4634146341463417,6.829268292682928,11.097560975609756,0.36328125,0.13671875,-0.9755859375
575,1.579,IMU2,1.9512195121951221,5.365853658536586,11.28048780487805,0.361328125,0.1279296875,-0.9560546875
576,1.589,IMU0,5.609756097560976,11.707317073170733,10.30487804878049,0.3359375,0.13671875,-0.921875
577,1.589,IMU1,5.548780487804878,14.146341463414636,9.878048780487806,0.3388671875,0.14453125,-0.9541015625
578,1.589,IMU2,6.036585365853659,12.865853658536587,10.182926829268293,0.3349609375,0.1357421875,-0.9345703125
579,1.599,IMU0,9.878048780487806,13.414634146341465,8.536585365853659,0.306640625,0.1630859375,-0.9111328125
580,1.599,IMU1,9.817073170731708,15.182926829268293,8.109756097560977,0.310546875,0.1728515625,-0.9404296875
581,1.599,IMU2,10.30487804878049,14.207317073170733,8.414634146341465,0.3056640625,0.162109375,-0.919921875
582,1.609,IMU0,12.378048780487806,8.963414634146343,8.719512195121952,0.2783203125,0.193359375,-0.90625
583,1.609,IMU1,12.195121951219512,10.487804878048781,8.414634146341465,0.2861328125,0.203125,-0.935546875
584,1.609,IMU2,12.74390243902439,9.634146341463415,8.597560975609756,0.2841796875,0.1923828125,-0.91015625
585,1.619,IMU0,12.378048780487806,3.8414634146341466,10.365853658536587,0.2578125,0.22265625,-0.91015625
586,1.619,IMU1,11.890243902439025,5.487804878048781,10.121951219512196,0.2646484375,0.2294921875,-0.9384765625
587,1.619,IMU2,12.560975609756099,4.573170731707317,10.24390243902439,0.2646484375,0.220703125,-0.9091796875
588,1.629,IMU0,10.0,1.4634146341463417,12.073170731707318,0.2470703125,0.2451171875,-0.904296875
589,1.629,IMU1,9.51219512195122,3.2926829268292686,11.890243902439025,0.2548828125,0.251953125,-0.927734375
590,1.629,IMU2,10.24390243902439,2.3170731707317076,12.01219512195122,0.25390625,0.2431640625,-0.8994140625
591,1.639,IMU0,6.7682926829268295,-1.7682926829268295,14.451219512195124,0.2451171875,0.2470703125,-0.876953125
592,1.639,IMU1,6.158536585365854,-0.06097560975609757,14.329268292682928,0.2548828125,0.2529296875,-0.9013671875
593,1.639,IMU2,6.951219512195123,-0.9756097560975611,14.390243902439027,0.25390625,0.2431640625,-0.87109375
594,1.649,IMU0,3.963414634146342,-3.7195121951219514,17.682926829268293,0.25,0.2412109375,-0.84765625
595,1.649,IMU1,3.353658536585366,-1.8902439024390245,17.5609756097561,0.2587890625,0.2470703125,-0.873046875
596,1.649,IMU2,4.146341463414634,-2.9268292682926833,17.621951219512198,0.2587890625,0.2373046875,-0.8447265625
597,1.659,IMU0,2.25609756097561,-5.975609756097562,20.0609756097561,0.263671875,0.228515625,-0.8193359375
598,1.659,IMU1,1.6463414634146343,-4.207317073170732,19.878048780487806,0.2705078125,0.2353515625,-0.84765625
599,1.659,IMU2,2.439024390243903,-5.182926829268293,20.0,0.26953125,0.2236328125,-0.8212890625
600,1.669,IMU0,2.073170731707317,-9.02439024390244,19.32926829268293,0.296875,0.203125,-0.82421875
601,1.669,IMU1,1.5853658536585367,-7.01219512195122,18.902439024390244,0.30078125,0.2080078125,-0.8564453125
602,1.669,IMU2,2.25609756097561,-8.170731707317074,19.085365853658537,0.294921875,0.197265625,-0.833984375
603,1.679,IMU0,3.536585365853659,-7.621951219512196,16.646341463414636,0.326171875,0.181640625,-0.85546875
604,1.679,IMU1,3.1707317073170733,-5.3048780487804885,16.158536585365855,0.330078125,0.1865234375,-0.888671875
605,1.679,IMU2,3.8414634146341466,-6.52439024390244,16.402439024390244,0.32421875,0.17578125,-0.869140625
606,1.689,IMU0,6.402439024390245,-2.6219512195121952,14.51219512195122,0.33984375,0.1630859375,-0.87890625
607,1.689,IMU1,6.158536585365854,-0.24390243902439027,14.02439024390244,0.34375,0.1669921875,-0.9130859375
608,1.689,IMU2,6.707317073170732,-1.4634146341463417,14.329268292682928,0.3388671875,0.158203125,-0.892578125
609,1.699,IMU0,9.817073170731708,2.439024390243903,12.560975609756099,0.3232421875,0.150390625,-0.88671875
610,1.699,IMU1,9.695121951219512,4.75609756097561,12.01219512195122,0.3232421875,0.15625,-0.91796875
611,1.699,IMU2,10.182926829268293,3.536585365853659,12.256097560975611,0.3203125,0.1474609375,-0.8974609375
612,1.709,IMU0,12.74390243902439,6.036585365853659,9.756097560975611,0.27734375,0.1630859375,-0.8818359375
613,1.709,IMU1,12.560975609756099,8.292682926829269,9.207317073170733,0.275390625,0.169921875,-0.912109375
614,1.709,IMU2,13.04878048780488,7.073170731707318,9.451219512195122,0.2724609375,0.1611328125,-0.8896484375
615,1.719,IMU0,13.719512195121952,6.829268292682928,7.195121951219513,0.228515625,0.193359375,-0.8759765625
616,1.719,IMU1,13.353658536585368,8.78048780487805,6.7682926829268295,0.23046875,0.2001953125,-0.9052734375
617,1.719,IMU2,13.902439024390246,7.682926829268293,7.01219512195122,0.228515625,0.1923828125,-0.87890625
618,1.729,IMU0,12.500000000000002,5.0,7.743902439024391,0.1904296875,0.2177734375,-0.8681640625
619,1.729,IMU1,12.073170731707318,6.951219512195123,7.439024390243903,0.197265625,0.2236328125,-0.896484375
620,1.729,IMU2,12.682926829268293,5.914634146341464,7.621951219512196,0.19921875,0.2138671875,-0.8681640625
621,1.739,IMU0,10.060975609756099,3.414634146341464,11.341463414634147,0.1748046875,0.2275390625,-0.853515625
622,1.739,IMU1,9.51219512195122,5.365853658536586,11.28048780487805,0.18359375,0.2333984375,-0.880859375
623,1.739,IMU2,10.121951219512196,4.329268292682928,11.463414634146343,0.1865234375,0.2236328125,-0.8515625
624,1.749,IMU0,7.073170731707318,1.0365853658536586,15.79268292682927,0.1787109375,0.22265625,-0.8310546875
625,1.749,IMU1,6.463414634146342,2.8658536585365857,15.670731707317074,0.1884765625,0.2275390625,-0.85546875
626,1.749,IMU2,7.134146341463415,1.829268292682927,15.853658536585368,0.19140625,0.21875,-0.8271484375
627,1.759,IMU0,4.51219512195122,-3.536585365853659,18.597560975609756,0.1943359375,0.2060546875,-0.8125
628,1.759,IMU1,3.8414634146341466,-1.707317073170732,18.29268292682927,0.2021484375,0.2109375,-0.8408203125
629,1.759,IMU2,4.634146341463415,-2.804878048780488,18.597560975609756,0.2021484375,0.203125,-0.8125
630,1.769,IMU0,3.1707317073170733,-5.7926829268292686,19.878048780487806,0.2177734375,0.1904296875,-0.8056640625
631,1.769,IMU1,2.5609756097560976,-3.780487804878049,19.695121951219512,0.2236328125,0.197265625,-0.8359375
632,1.769,IMU2,3.353658536585366,-4.878048780487806,19.878048780487806,0.2236328125,0.189453125,-0.8115234375
633,1.779,IMU0,3.5975609756097566,-3.536585365853659,21.707317073170735,0.2490234375,0.169921875,-0.798828125
634,1.779,IMU1,3.048780487804878,-1.402439024390244,21.463414634146343,0.2568359375,0.17578125,-0.8310546875
635,1.779,IMU2,3.9024390243902443,-2.439024390243903,21.707317073170735,0.2578125,0.1669921875,-0.806640625
636,1.789,IMU0,5.548780487804878,-0.7926829268292683,23.84146341463415,0.2802734375,0.1484375,-0.8046875
637,1.789,IMU1,5.060975609756098,1.3414634146341464,23.59756097560976,0.2890625,0.1552734375,-0.8388671875
638,1.789,IMU2,5.853658536585367,0.24390243902439027,23.84146341463415,0.2880859375,0.146484375,-0.8173828125
639,1.799,IMU0,8.353658536585366,2.8658536585365857,24.512195121951223,0.3046875,0.130859375,-0.8310546875
640,1.799,IMU1,7.865853658536586,5.060975609756098,24.146341463414636,0.310546875,0.1376953125,-0.86328125
641,1.799,IMU2,8.719512195121952,3.963414634146342,24.390243902439025,0.3095703125,0.12890625,-0.84375
642,1.809,IMU0,11.219512195121952,7.195121951219513,23.29268292682927,0.3154296875,0.1259765625,-0.857421875
643,1.809,IMU1,10.731707317073171,9.207317073170733,22.80487804878049,0.3193359375,0.1318359375,-0.888671875
644,1.809,IMU2,11.52439024390244,8.170731707317074,23.04878048780488,0.3154296875,0.1240234375,-0.869140625
645,1.819,IMU0,12.560975609756099,9.939024390243903,20.243902439024392,0.3203125,0.1328125,-0.8896484375
646,1.819,IMU1,12.01219512195122,11.829268292682928,19.75609756097561,0.32421875,0.1376953125,-0.9169921875
647,1.819,IMU2,12.74390243902439,10.792682926829269,19.939024390243905,0.3173828125,0.130859375,-0.896484375
648,1.829,IMU0,11.76829268292683,9.51219512195122,16.951219512195124,0.31640625,0.13671875,-0.9091796875
649,1.829,IMU1,11.219512195121952,11.341463414634147,16.463414634146343,0.318359375,0.142578125,-0.9326171875
650,1.829,IMU2,11.951219512195124,10.30487804878049,16.76829268292683,0.3125,0.134765625,-0.908203125
651,1.839,IMU0,8.963414634146343,6.402439024390245,14.26829268292683,0.3037109375,0.14453125,-0.9130859375
652,1.839,IMU1,8.414634146341465,8.170731707317074,13.841463414634148,0.3056640625,0.1494140625,-0.935546875
653,1.839,IMU2,9.02439024390244,7.134146341463415,14.02439024390244,0.30078125,0.1416015625,-0.908203125
654,1.849,IMU0,4.939024390243903,3.5975609756097566,11.341463414634147,0.2978515625,0.1513671875,-0.908203125
655,1.849,IMU1,4.390243902439025,5.426829268292684,10.975609756097562,0.2998046875,0.15625,-0.9296875
656,1.849,IMU2,5.060975609756098,4.390243902439025,11.097560975609756,0.294921875,0.1484375,-0.90234375
657,1.859,IMU0,1.0975609756097562,3.8414634146341466,9.756097560975611,0.2880859375,0.1552734375,-0.896484375
658,1.859,IMU1,0.6097560975609757,5.853658536585367,9.573170731707318,0.2939453125,0.1611328125,-0.9189453125
659,1.859,IMU2,1.2804878048780488,4.878048780487806,9.695121951219512,0.291015625,0.1533203125,-0.892578125
660,1.869,IMU0,-1.2804878048780488,6.707317073170732,10.426829268292684,0.26953125,0.1611328125,-0.8720703125
661,1.869,IMU1,-1.7682926829268295,8.719512195121952,10.30487804878049,0.27734375,0.1669921875,-0.8974609375
662,1.869,IMU2,-1.0975609756097562,7.743902439024391,10.548780487804878,0.275390625,0.1591796875,-0.8720703125
663,1.879,IMU0,-1.4634146341463417,6.829268292682928,12.01219512195122,0.2529296875,0.1650390625,-0.8447265625
664,1.879,IMU1,-1.8902439024390245,8.719512195121952,11.951219512195124,0.259765625,0.169921875,-0.875
665,1.879,IMU2,-1.1585365853658538,7.621951219512196,12.134146341463415,0.259765625,0.1611328125,-0.8505859375
666,1.889,IMU0,0.30487804878048785,4.451219512195122,13.597560975609758,0.2548828125,0.1552734375,-0.84375
667,1.889,IMU1,-0.12195121951219513,6.341463414634147,13.414634146341465,0.26171875,0.16015625,-0.875
668,1.889,IMU2,0.6097560975609757,5.3048780487804885,13.658536585365855,0.26171875,0.150390625,-0.8515625
669,1.899,IMU0,3.048780487804878,1.1585365853658538,15.182926829268293,0.263671875,0.14453125,-0.8583984375
670,1.899,IMU1,2.5609756097560976,3.1097560975609757,14.939024390243905,0.2705078125,0.1494140625,-0.8916015625
671,1.899,IMU2,3.353658536585366,2.0121951219512195,15.243902439024392,0.271484375,0.140625,-0.8701171875
672,1.909,IMU0,5.731707317073171,-2.0121951219512195,16.76829268292683,0.2685546875,0.1376953125,-0.890625
673,1.909,IMU1,5.182926829268293,-0.12195121951219513,16.52439024390244,0.2744140625,0.142578125,-0.9228515625
674,1.909,IMU2,5.975609756097562,-1.1585365853658538,16.76829268292683,0.2744140625,0.1337890625,-0.900390625
675,1.919,IMU0,7.439024390243903,-3.414634146341464,17.743902439024392,0.2685546875,0.1328125,-0.927734375
676,1.919,IMU1,7.01219512195122,-1.3414634146341464,17.31707317073171,0.2734375,0.1376953125,-0.9580078125
677,1.919,IMU2,7.743902439024391,-2.439024390243903,17.621951219512198,0.2724609375,0.1298828125,-0.935546875
678,1.929,IMU0,7.8048780487804885,-4.085365853658537,17.804878048780488,0.2666015625,0.134765625,-0.951171875
679,1.929,IMU1,7.317073170731708,-2.0121951219512195,17.378048780487806,0.271484375,0.1396484375,-0.978515625
680,1.929,IMU2,8.048780487804878,-3.231707317073171,17.621951219512198,0.2685546875,0.1298828125,-0.955078125
681,1.939,IMU0,6.341463414634147,-6.646341463414635,16.646341463414636,0.2685546875,0.1337890625,-0.951171875
682,1.939,IMU1,5.7926829268292686,-4.695121951219512,16.158536585365855,0.2724609375,0.138671875,-0.9775390625
683,1.939,IMU2,6.463414634146342,-5.853658536585367,16.402439024390244,0.267578125,0.130859375,-0.951171875
684,1.949,IMU0,3.4756097560975614,-10.24390243902439,13.719512195121952,0.2763671875,0.134765625,-0.9296875
685,1.949,IMU1,3.1097560975609757,-8.292682926829269,13.231707317073171,0.2783203125,0.138671875,-0.9541015625
686,1.949,IMU2,3.658536585365854,-9.51219512195122,13.414634146341465,0.2724609375,0.130859375,-0.9267578125
687,1.959,IMU0,0.9146341463414634,-13.414634146341465,10.792682926829269,0.2822265625,0.126953125,-0.900390625
688,1.959,IMU1,0.5487804878048781,-11.463414634146343,10.426829268292684,0.28515625,0.1318359375,-0.9267578125
689,1.959,IMU2,1.0975609756097562,-12.621951219512196,10.548780487804878,0.28125,0.123046875,-0.9013671875
690,1.969,IMU0,0.0,-13.29268292682927,9.26829268292683,0.30078125,0.115234375,-0.8857421875
691,1.969,IMU1,-0.426829268292683,-11.28048780487805,8.902439024390244,0.3046875,0.12109375,-0.9150390625
692,1.969,IMU2,0.1829268292682927,-12.317073170731708,9.085365853658537,0.302734375,0.1123046875,-0.8916015625
693,1.979,IMU0,1.1585365853658538,-10.182926829268293,9.26829268292683,0.318359375,0.111328125,-0.8984375
694,1.979,IMU1,0.7926829268292683,-8.170731707317074,8.902439024390244,0.3251953125,0.1162109375,-0.9306640625
695,1.979,IMU2,1.524390243902439,-9.085365853658537,9.146341463414634,0.3251953125,0.1083984375,-0.9091796875
696,1.989,IMU0,3.963414634146342,-5.853658536585367,10.548780487804878,0.3359375,0.1025390625,-0.9248046875
697,1.989,IMU1,3.5975609756097566,-3.8414634146341466,10.24390243902439,0.3427734375,0.1083984375,-0.958984375
698,1.989,IMU2,4.390243902439025,-4.75609756097561,10.548780487804878,0.3427734375,0.0986328125,-0.9375
699,1.999,IMU0,7.439024390243903,-3.1097560975609757,12.987804878048781,0.3349609375,0.09375,-0.953125
700,1.999,IMU1,7.01219512195122,-1.1585365853658538,12.682926829268293,0.3427734375,0.0986328125,-0.984375
701,1.999,IMU2,7.865853658536586,-2.1951219512195124,12.987804878048781,0.34375,0.0888671875,-0.96484375
702,2.009,IMU0,9.451219512195122,-3.231707317073171,15.060975609756099,0.32421875,0.08984375,-0.984375
703,2.009,IMU1,9.02439024390244,-1.2804878048780488,14.695121951219514,0.3310546875,0.09375,-1.01171875
704,2.009,IMU2,9.695121951219512,-2.378048780487805,14.878048780487806,0.3271484375,0.0859375,-0.9912109375
705,2.019,IMU0,8.414634146341465,-5.731707317073171,14.817073170731708,0.306640625,0.0927734375,-1.0087890625
706,2.019,IMU1,7.926829268292684,-3.780487804878049,14.329268292682928,0.310546875,0.0966796875,-1.03515625
707,2.019,IMU2,8.536585365853659,-5.0,14.51219512195122,0.3056640625,0.08984375,-1.0078125
708,2.029,IMU0,4.085365853658537,-8.78048780487805,13.475609756097562,0.291015625,0.103515625,-1.015625
709,2.029,IMU1,3.5975609756097566,-6.890243902439025,13.109756097560977,0.2958984375,0.107421875,-1.0390625
710,2.029,IMU2,4.085365853658537,-8.048780487804878,13.231707317073171,0.29296875,0.099609375,-1.0078125
711,2.039,IMU0,-2.3170731707317076,-12.073170731707318,12.256097560975611,0.291015625,0.1103515625,-0.9951171875
712,2.039,IMU1,-2.804878048780488,-10.060975609756099,11.951219512195124,0.294921875,0.115234375,-1.0185546875
713,2.039,IMU2,-2.378048780487805,-11.28048780487805,12.01219512195122,0.29296875,0.1064453125,-0.984375
714,2.049,IMU0,-8.536585365853659,-16.158536585365855,10.548780487804878,0.2919921875,0.1015625,-0.943359375
715,2.049,IMU1,-8.902439024390244,-14.26829268292683,10.365853658536587,0.2939453125,0.10546875,-0.9677734375
716,2.049,IMU2,-8.475609756097562,-15.54878048780488,10.365853658536587,0.2919921875,0.0966796875,-0.9345703125
717,2.059,IMU0,-12.317073170731708,-21.097560975609756,8.292682926829269,0.28125,0.0830078125,-0.8974609375
718,2.059,IMU1,-12.74390243902439,-19.207317073170735,8.231707317073171,0.283203125,0.08984375,-0.92578125
719,2.059,IMU2,-12.195121951219512,-20.365853658536587,8.048780487804878,0.279296875,0.0810546875,-0.8974609375
720,2.069,IMU0,-12.682926829268293,-22.31707317073171,5.853658536585367,0.263671875,0.0751953125,-0.87890625
721,2.069,IMU1,-13.04878048780488,-20.365853658536587,5.731707317073171,0.2666015625,0.0810546875,-0.912109375
722,2.069,IMU2,-12.378048780487806,-21.34146341463415,5.670731707317073,0.2607421875,0.072265625,-0.890625
723,2.079,IMU0,-9.451219512195122,-18.658536585365855,4.51219512195122,0.2470703125,0.0712890625,-0.88671875
724,2.079,IMU1,-9.878048780487806,-16.82926829268293,4.390243902439025,0.2529296875,0.0751953125,-0.923828125
725,2.079,IMU2,-9.085365853658537,-17.5,4.390243902439025,0.25,0.068359375,-0.904296875
726,2.089,IMU0,-3.7195121951219514,-12.378048780487806,4.634146341463415,0.2431640625,0.0732421875,-0.9033203125
727,2.089,IMU1,-4.146341463414634,-10.548780487804878,4.390243902439025,0.25,0.0771484375,-0.9384765625
728,2.089,IMU2,-3.2926829268292686,-11.28048780487805,4.51219512195122,0.2490234375,0.0703125,-0.9208984375
729,2.099,IMU0,1.9512195121951221,-9.329268292682928,5.182926829268293,0.2412109375,0.0771484375,-0.91796875
730,2.099,IMU1,1.5853658536585367,-7.439024390243903,4.878048780487806,0.248046875,0.0830078125,-0.951171875
731,2.099,IMU2,2.439024390243903,-8.414634146341465,5.121951219512195,0.24609375,0.0751953125,-0.9326171875
732,2.109,IMU0,5.121951219512195,-9.51219512195122,5.7926829268292686,0.2294921875,0.080078125,-0.9365234375
733,2.109,IMU1,4.817073170731708,-7.621951219512196,5.426829268292684,0.236328125,0.0849609375,-0.966796875
734,2.109,IMU2,5.487804878048781,-8.658536585365855,5.609756097560976,0.232421875,0.0771484375,-0.943359375
735,2.119,IMU0,5.060975609756098,-9.390243902439025,5.365853658536586,0.2255859375,0.078125,-0.9384765625
736,2.119,IMU1,4.817073170731708,-7.439024390243903,4.939024390243903,0.228515625,0.0830078125,-0.9658203125
737,2.119,IMU2,5.3048780487804885,-8.536585365853659,5.121951219512195,0.224609375,0.0751953125,-0.939453125
738,2.129,IMU0,2.5,-9.695121951219512,2.8658536585365857,0.2421875,0.078125,-0.9296875
739,2.129,IMU1,2.3170731707317076,-7.8048780487804885,2.5609756097560976,0.2431640625,0.0830078125,-0.955078125
740,2.129,IMU2,2.682926829268293,-8.902439024390244,2.5,0.23828125,0.0751953125,-0.9267578125
741,2.139,IMU0,-0.5487804878048781,-10.426829268292684,-1.1585365853658538,0.2587890625,0.0791015625,-0.908203125
742,2.139,IMU1,-0.7317073170731708,-8.536585365853659,-1.3414634146341464,0.259765625,0.083984375,-0.935546875
743,2.139,IMU2,-0.3658536585365854,-9.695121951219512,-1.4634146341463417,0.2529296875,0.0751953125,-0.90625
744,2.149,IMU0,-2.439024390243903,-12.500000000000002,-5.0,0.25390625,0.08203125,-0.8828125
745,2.149,IMU1,-2.5609756097560976,-10.548780487804878,-5.182926829268293,0.2578125,0.0869140625,-0.9111328125
746,2.149,IMU2,-2.1341463414634148,-11.76829268292683,-5.3048780487804885,0.2509765625,0.0810546875,-0.8857421875
747,2.159,IMU0,-2.6219512195121952,-13.719512195121952,-7.560975609756098,0.232421875,0.0908203125,-0.8671875
748,2.159,IMU1,-2.804878048780488,-11.829268292682928,-7.743902439024391,0.236328125,0.0966796875,-0.8984375
749,2.159,IMU2,-2.25609756097561,-12.865853658536587,-7.743902439024391,0.232421875,0.087890625,-0.875
750,2.169,IMU0,-1.2195121951219514,-11.463414634146343,-8.414634146341465,0.21484375,0.1015625,-0.8662109375
751,2.169,IMU1,-1.402439024390244,-9.634146341463415,-8.78048780487805,0.220703125,0.107421875,-0.8974609375
752,2.169,IMU2,-0.7926829268292683,-10.365853658536587,-8.658536585365855,0.2177734375,0.099609375,-0.8759765625
753,2.179,IMU0,1.4634146341463417,-6.097560975609756,-7.195121951219513,0.216796875,0.107421875,-0.87890625
754,2.179,IMU1,1.2195121951219514,-4.390243902439025,-7.621951219512196,0.2255859375,0.11328125,-0.9111328125
755,2.179,IMU2,1.829268292682927,-4.878048780487806,-7.195121951219513,0.2275390625,0.1044921875,-0.892578125
756,2.189,IMU0,4.451219512195122,0.6707317073170732,-2.25609756097561,0.2158203125,0.1162109375,-0.8984375
757,2.189,IMU1,4.024390243902439,2.378048780487805,-2.7439024390243905,0.23046875,0.12109375,-0.9287109375
758,2.189,IMU2,4.75609756097561,1.8902439024390245,-2.0121951219512195,0.234375,0.1123046875,-0.91015625
759,2.199,IMU0,6.402439024390245,5.731707317073171,5.0,0.2255859375,0.1171875,-0.927734375
760,2.199,IMU1,5.975609756097562,7.560975609756098,4.451219512195122,0.2392578125,0.1240234375,-0.955078125
761,2.199,IMU2,6.585365853658537,6.707317073170732,5.2439024390243905,0.2451171875,0.1142578125,-0.9345703125
762,2.209,IMU0,6.097560975609756,7.621951219512196,10.548780487804878,0.25390625,0.1162109375,-0.9599609375
763,2.209,IMU1,5.731707317073171,9.573170731707318,10.121951219512196,0.2626953125,0.12109375,-0.986328125
764,2.209,IMU2,6.158536585365854,8.536585365853659,10.670731707317074,0.2666015625,0.1123046875,-0.9619140625
765,2.219,IMU0,2.987804878048781,5.7926829268292686,12.195121951219512,0.283203125,0.1123046875,-0.98046875
766,2.219,IMU1,2.7439024390243905,7.865853658536586,11.951219512195124,0.2880859375,0.1162109375,-1.00390625
767,2.219,IMU2,3.048780487804878,6.402439024390245,12.134146341463415,0.2861328125,0.107421875,-0.97265625
768,2.229,IMU0,-2.378048780487805,-0.30487804878048785,10.548780487804878,0.2958984375,0.109375,-0.986328125
769,2.229,IMU1,-2.6219512195121952,1.8902439024390245,10.426829268292684,0.298828125,0.1142578125,-1.009765625
770,2.229,IMU2,-2.439024390243903,0.24390243902439027,10.365853658536587,0.29296875,0.10546875,-0.9765625
771,2.239,IMU0,-9.085365853658537,-7.01219512195122,7.621951219512196,0.3017578125,0.1083984375,-0.986328125
772,2.239,IMU1,-9.146341463414634,-4.878048780487806,7.621951219512196,0.3037109375,0.1142578125,-1.0078125
773,2.239,IMU2,-9.02439024390244,-6.463414634146342,7.439024390243903,0.2978515625,0.1064453125,-0.974609375
774,2.249,IMU0,-15.30487804878049,-12.621951219512196,4.939024390243903,0.3076171875,0.1025390625,-0.978515625
775,2.249,IMU1,-15.487804878048783,-10.548780487804878,5.0,0.310546875,0.109375,-0.9990234375
776,2.249,IMU2,-15.30487804878049,-12.01219512195122,4.939024390243903,0.3056640625,0.099609375,-0.9697265625
777,2.259,IMU0,-19.512195121951223,-15.54878048780488,2.987804878048781,0.314453125,0.095703125,-0.97265625
778,2.259,IMU1,-19.81707317073171,-13.597560975609758,3.048780487804878,0.3173828125,0.1015625,-0.99609375
779,2.259,IMU2,-19.32926829268293,-14.695121951219514,3.048780487804878,0.3134765625,0.0927734375,-0.9716796875
780,2.269,IMU0,-20.54878048780488,-14.634146341463415,1.7682926829268295,0.3134765625,0.091796875,-0.966796875
781,2.269,IMU1,-20.853658536585368,-12.621951219512196,1.707317073170732,0.318359375,0.09765625,-0.994140625
782,2.269,IMU2,-20.243902439024392,-13.658536585365855,1.829268292682927,0.3154296875,0.087890625,-0.9716796875
783,2.279,IMU0,-18.719512195121954,-13.597560975609758,0.9756097560975611,0.3134765625,0.08984375,-0.9541015625
784,2.279,IMU1,-18.963414634146343,-11.76829268292683,0.9146341463414634,0.3173828125,0.095703125,-0.9853515625
785,2.279,IMU2,-18.353658536585368,-12.74390243902439,1.0365853658536586,0.314453125,0.0869140625,-0.962890625
786,2.289,IMU0,-15.54878048780488,-14.817073170731708,0.06097560975609757,0.3056640625,0.09375,-0.9521484375
787,2.289,IMU1,-15.670731707317074,-13.04878048780488,-0.06097560975609757,0.3076171875,0.0986328125,-0.984375
788,2.289,IMU2,-15.182926829268293,-14.02439024390244,0.0,0.306640625,0.08984375,-0.96484375
789,2.299,IMU0,-11.951219512195124,-13.597560975609758,-1.5853658536585367,0.302734375,0.0986328125,-0.953125
790,2.299,IMU1,-11.951219512195124,-11.585365853658537,-1.7682926829268295,0.3076171875,0.103515625,-0.984375
791,2.299,IMU2,-11.402439024390246,-12.560975609756099,-1.707317073170732,0.3056640625,0.0966796875,-0.9638671875
792,2.309,IMU0,-7.8048780487804885,-9.146341463414634,-2.682926829268293,0.2998046875,0.1015625,-0.9560546875
793,2.309,IMU1,-7.8048780487804885,-7.01219512195122,-2.804878048780488,0.3056640625,0.1064453125,-0.98828125
794,2.309,IMU2,-7.317073170731708,-7.987804878048781,-2.682926829268293,0.3056640625,0.0986328125,-0.9677734375
795,2.319,IMU0,-4.085365853658537,-4.451219512195122,-2.0121951219512195,0.2861328125,0.1171875,-0.9765625
796,2.319,IMU1,-4.146341463414634,-2.378048780487805,-2.073170731707317,0.2939453125,0.1220703125,-1.0078125
797,2.319,IMU2,-3.5975609756097566,-3.2926829268292686,-1.9512195121951221,0.2939453125,0.115234375,-0.986328125
798,2.329,IMU0,-1.707317073170732,-0.7317073170731708,-0.24390243902439027,0.2568359375,0.1318359375,-1.01171875
799,2.329,IMU1,-1.8902439024390245,1.3414634146341464,-0.3658536585365854,0.2646484375,0.1376953125,-1.041015625
800,2.329,IMU2,-1.402439024390244,0.3658536585365854,-0.24390243902439027,0.2626953125,0.12890625,-1.01953125
801,2.339,IMU0,-0.9756097560975611,4.390243902439025,0.7926829268292683,0.2294921875,0.138671875,-1.0576171875
802,2.339,IMU1,-1.3414634146341464,6.646341463414635,0.6707317073170732,0.234375,0.14453125,-1.0869140625
803,2.339,IMU2,-0.7926829268292683,5.670731707317073,0.7926829268292683,0.2333984375,0.1357421875,-1.0615234375
804,2.349,IMU0,-2.25609756097561,9.573170731707318,0.6707317073170732,0.205078125,0.146484375,-1.0791015625
805,2.349,IMU1,-2.6219512195121952,11.646341463414634,0.48780487804878053,0.2109375,0.15234375,-1.10546875
806,2.349,IMU2,-2.073170731707317,10.609756097560977,0.6097560975609757,0.205078125,0.142578125,-1.0771484375
807,2.359,IMU0,-5.3048780487804885,9.146341463414634,-1.524390243902439,0.1796875,0.1552734375,-1.0634765625
808,2.359,IMU1,-5.731707317073171,10.914634146341465,-1.7682926829268295,0.1806640625,0.1611328125,-1.0869140625
809,2.359,IMU2,-5.2439024390243905,9.817073170731708,-1.707317073170732,0.173828125,0.150390625,-1.0576171875
810,2.369,IMU0,-9.695121951219512,2.987804878048781,-6.219512195121951,0.1630859375,0.1640625,-1.0283203125
811,2.369,IMU1,-10.0,4.634146341463415,-6.402439024390245,0.1611328125,0.1689453125,-1.0498046875
812,2.369,IMU2,-9.573170731707318,3.4756097560975614,-6.463414634146342,0.1533203125,0.1591796875,-1.01953125
813,2.379,IMU0,-13.963414634146343,-3.963414634146342,-12.987804878048781,0.1650390625,0.166015625,-0.9765625
814,2.379,IMU1,-14.207317073170733,-2.3170731707317076,-13.170731707317074,0.1650390625,0.1728515625,-0.998046875
815,2.379,IMU2,-13.841463414634148,-3.414634146341464,-13.231707317073171,0.154296875,0.162109375,-0.9697265625
816,2.389,IMU0,-16.402439024390244,-10.487804878048781,-19.634146341463417,0.173828125,0.1640625,-0.9150390625
817,2.389,IMU1,-16.463414634146343,-8.719512195121952,-19.75609756097561,0.173828125,0.169921875,-0.94140625
818,2.389,IMU2,-16.097560975609756,-9.756097560975611,-19.81707317073171,0.166015625,0.1611328125,-0.919921875
819,2.399,IMU0,-15.79268292682927,-11.890243902439025,-22.743902439024392,0.1767578125,0.1689453125,-0.8955078125
820,2.399,IMU1,-15.731707317073171,-10.0,-22.743902439024392,0.1826171875,0.17578125,-0.9248046875
821,2.399,IMU2,-15.365853658536587,-10.853658536585368,-22.682926829268293,0.1787109375,0.1669921875,-0.9013671875
822,2.409,IMU0,-12.500000000000002,-7.01219512195122,-21.28048780487805,0.173828125,0.1904296875,-0.9150390625
823,2.409,IMU1,-12.439024390243903,-4.939024390243903,-21.219512195121954,0.1845703125,0.193359375,-0.9482421875
824,2.409,IMU2,-12.01219512195122,-5.731707317073171,-21.097560975609756,0.1845703125,0.1845703125,-0.923828125
825,2.419,IMU0,-7.8048780487804885,-1.829268292682927,-16.52439024390244,0.1591796875,0.201171875,-0.943359375
826,2.419,IMU1,-7.743902439024391,0.1829268292682927,-16.402439024390244,0.171875,0.203125,-0.9765625
827,2.419,IMU2,-7.25609756097561,-0.7317073170731708,-16.158536585365855,0.177734375,0.1943359375,-0.9541015625
828,2.429,IMU0,-3.963414634146342,1.524390243902439,-9.51219512195122,0.1396484375,0.2041015625,-0.998046875
829,2.429,IMU1,-4.024390243902439,3.536585365853659,-9.451219512195122,0.1552734375,0.20703125,-1.0302734375
830,2.429,IMU2,-3.536585365853659,2.682926829268293,-9.085365853658537,0.1611328125,0.1982421875,-1.0029296875
831,2.439,IMU0,-3.048780487804878,7.621951219512196,-2.8658536585365857,0.1484375,0.208984375,-1.05859375
832,2.439,IMU1,-3.353658536585366,9.817073170731708,-2.9268292682926833,0.1630859375,0.2109375,-1.0869140625
833,2.439,IMU2,-2.9268292682926833,9.02439024390244,-2.6219512195121952,0.1640625,0.203125,-1.0556640625
834,2.449,IMU0,-6.2804878048780495,13.109756097560977,0.7317073170731708,0.1767578125,0.2197265625,-1.080078125
835,2.449,IMU1,-6.707317073170732,15.182926829268293,0.7317073170731708,0.1875,0.22265625,-1.1015625
836,2.449,IMU2,-5.731707317073171,13.902439024390246,0.7317073170731708,0.1845703125,0.2158203125,-1.0703125
837,2.459,IMU0,-12.500000000000002,11.951219512195124,1.2804878048780488,0.193359375,0.2265625,-1.0537109375
838,2.459,IMU1,-12.926829268292684,13.902439024390246,1.2804878048780488,0.2001953125,0.2294921875,-1.0732421875
839,2.459,IMU2,-11.829268292682928,12.987804878048781,1.402439024390244,0.197265625,0.2216796875,-1.04296875
840,2.469,IMU0,-19.390243902439025,7.01219512195122,0.12195121951219513,0.197265625,0.22265625,-1.0
841,2.469,IMU1,-19.878048780487806,8.78048780487805,0.24390243902439027,0.203125,0.2255859375,-1.017578125
842,2.469,IMU2,-18.719512195121954,8.048780487804878,0.3658536585365854,0.1982421875,0.21875,-0.9912109375
843,2.479,IMU0,-24.634146341463417,2.1341463414634148,-1.402439024390244,0.19140625,0.203125,-0.9345703125
844,2.479,IMU1,-25.0609756097561,3.963414634146342,-1.2195121951219514,0.1962890625,0.20703125,-0.9560546875
845,2.479,IMU2,-24.085365853658537,3.1707317073170733,-1.1585365853658538,0.193359375,0.2001953125,-0.931640625
846,2.489,IMU0,-26.76829268292683,0.6097560975609757,-2.378048780487805,0.1708984375,0.1884765625,-0.880859375
847,2.489,IMU1,-27.195121951219516,2.5,-2.1341463414634148,0.1748046875,0.1943359375,-0.908203125
848,2.489,IMU2,-26.463414634146343,1.402439024390244,-2.073170731707317,0.1748046875,0.185546875,-0.8837890625
849,2.499,IMU0,-25.54878048780488,3.353658536585366,-1.7682926829268295,0.1474609375,0.1796875,-0.8486328125
850,2.499,IMU1,-25.853658536585368,5.3048780487804885,-1.524390243902439,0.154296875,0.185546875,-0.8798828125
851,2.499,IMU2,-25.365853658536587,4.085365853658537,-1.5853658536585367,0.154296875,0.1767578125,-0.859375
852,2.509,IMU0,-21.463414634146343,7.378048780487806,0.1829268292682927,0.1337890625,0.17578125,-0.8388671875
853,2.509,IMU1,-21.76829268292683,9.329268292682928,0.426829268292683,0.142578125,0.1826171875,-0.8720703125
854,2.509,IMU2,-21.463414634146343,8.170731707317074,0.3658536585365854,0.1416015625,0.1728515625,-0.8515625
855,2.519,IMU0,-16.402439024390244,9.329268292682928,1.7682926829268295,0.16015625,0.1767578125,-0.8408203125
856,2.519,IMU1,-16.70731707317073,11.219512195121952,1.8902439024390245,0.16796875,0.1826171875,-0.876953125
857,2.519,IMU2,-16.34146341463415,10.182926829268293,2.0121951219512195,0.1630859375,0.173828125,-0.857421875
858,2.529,IMU0,-11.707317073170733,7.987804878048781,0.0,0.21484375,0.181640625,-0.8466796875
859,2.529,IMU1,-12.01219512195122,9.817073170731708,0.0,0.2158203125,0.1884765625,-0.880859375
860,2.529,IMU2,-11.646341463414634,8.963414634146343,0.30487804878048785,0.20703125,0.1787109375,-0.8623046875
861,2.539,IMU0,-7.378048780487806,6.219512195121951,-4.75609756097561,0.259765625,0.1865234375,-0.8447265625
862,2.539,IMU1,-7.560975609756098,8.109756097560977,-4.817073170731708,0.2587890625,0.193359375,-0.876953125
863,2.539,IMU2,-7.25609756097561,7.134146341463415,-4.451219512195122,0.2509765625,0.18359375,-0.857421875
864,2.549,IMU0,-2.7439024390243905,9.207317073170733,-7.987804878048781,0.2763671875,0.197265625,-0.837890625
865,2.549,IMU1,-2.8658536585365857,11.158536585365855,-8.109756097560977,0.28125,0.2041015625,-0.87109375
866,2.549,IMU2,-2.6219512195121952,9.878048780487806,-7.865853658536586,0.27734375,0.1953125,-0.8505859375
867,2.559,IMU0,2.25609756097561,17.926829268292686,-7.500000000000001,0.2724609375,0.2021484375,-0.8349609375
868,2.559,IMU1,2.073170731707317,19.878048780487806,-7.621951219512196,0.283203125,0.2099609375,-0.8720703125
869,2.559,IMU2,2.1951219512195124,18.475609756097562,-7.560975609756098,0.283203125,0.2001953125,-0.8505859375
870,2.569,IMU0,6.829268292682928,26.646341463414636,-3.658536585365854,0.23828125,0.2197265625,-0.84765625
871,2.569,IMU1,6.52439024390244,28.59756097560976,-3.780487804878049,0.25,0.2255859375,-0.880859375
872,2.569,IMU2,6.829268292682928,27.25609756097561,-3.780487804878049,0.2548828125,0.2158203125,-0.857421875
873,2.579,IMU0,9.390243902439025,29.81707317073171,1.9512195121951221,0.193359375,0.2333984375,-0.8662109375
874,2.579,IMU1,9.02439024390244,31.76829268292683,1.707317073170732,0.205078125,0.2373046875,-0.89453125
875,2.579,IMU2,9.51219512195122,30.853658536585368,1.7682926829268295,0.2099609375,0.2275390625,-0.87109375
876,2.589,IMU0,8.841463414634147,24.634146341463417,6.707317073170732,0.162109375,0.2275390625,-0.884765625
877,2.589,IMU1,8.475609756097562,26.58536585365854,6.463414634146342,0.171875,0.232421875,-0.9091796875
878,2.589,IMU2,9.146341463414634,25.914634146341466,6.585365853658537,0.173828125,0.2236328125,-0.880859375
879,2.599,IMU0,4.634146341463415,14.146341463414636,8.475609756097562,0.1708984375,0.2099609375,-0.8916015625
880,2.599,IMU1,4.2682926829268295,16.097560975609756,8.353658536585366,0.1748046875,0.2158203125,-0.9140625
881,2.599,IMU2,5.121951219512195,15.54878048780488,8.597560975609756,0.171875,0.2080078125,-0.8818359375
882,2.609,IMU0,-2.439024390243903,-0.12195121951219513,6.158536585365854,0.212890625,0.1884765625,-0.8525390625
883,2.609,IMU1,-2.804878048780488,1.829268292682927,5.975609756097562,0.212890625,0.1943359375,-0.873046875
884,2.609,IMU2,-1.829268292682927,1.402439024390244,6.2804878048780495,0.2041015625,0.1884765625,-0.841796875
885,2.619,IMU0,-9.756097560975611,-18.04878048780488,-1.0975609756097562,0.275390625,0.1513671875,-0.794921875
886,2.619,IMU1,-9.939024390243903,-16.097560975609756,-1.2195121951219514,0.2685546875,0.1591796875,-0.8193359375
887,2.619,IMU2,-9.146341463414634,-16.585365853658537,-0.853658536585366,0.255859375,0.15234375,-0.7890625
888,2.629,IMU0,-13.04878048780488,-26.82926829268293,-10.548780487804878,0.326171875,0.1103515625,-0.7763671875
889,2.629,IMU1,-13.170731707317074,-25.0609756097561,-10.670731707317074,0.3212890625,0.1171875,-0.806640625
890,2.629,IMU2,-12.74390243902439,-25.975609756097562,-10.426829268292684,0.30859375,0.1103515625,-0.7802734375
891,2.639,IMU0,-10.487804878048781,-17.804878048780488,-18.170731707317074,0.3544921875,0.099609375,-0.7939453125
892,2.639,IMU1,-10.609756097560977,-16.158536585365855,-18.29268292682927,0.353515625,0.107421875,-0.8310546875
893,2.639,IMU2,-10.426829268292684,-17.5,-18.04878048780488,0.3447265625,0.0986328125,-0.8095703125
894,2.649,IMU0,-2.439024390243903,-0.6097560975609757,-21.646341463414636,0.3671875,0.1044921875,-0.8173828125
895,2.649,IMU1,-2.5609756097560976,1.0365853658536586,-21.76829268292683,0.3720703125,0.1103515625,-0.859375
896,2.649,IMU2,-2.6219512195121952,-0.3658536585365854,-21.646341463414636,0.3671875,0.103515625,-0.8427734375
897,2.659,IMU0,9.817073170731708,16.34146341463415,-21.158536585365855,0.353515625,0.109375,-0.8447265625
898,2.659,IMU1,9.634146341463415,18.04878048780488,-21.463414634146343,0.361328125,0.115234375,-0.88671875
899,2.659,IMU2,9.51219512195122,16.70731707317073,-21.28048780487805,0.361328125,0.1064453125,-0.8759765625
900,2.669,IMU0,23.78048780487805,30.121951219512198,-18.353658536585368,0.298828125,0.1162109375,-0.86328125
901,2.669,IMU1,23.475609756097562,31.89024390243903,-18.78048780487805,0.3095703125,0.1220703125,-0.90625
902,2.669,IMU2,23.475609756097562,30.670731707317074,-18.53658536585366,0.3115234375,0.11328125,-0.896484375
903,2.679,IMU0,35.54878048780488,38.84146341463415,-15.609756097560977,0.2626953125,0.140625,-0.888671875
904,2.679,IMU1,35.243902439024396,40.73170731707317,-16.219512195121954,0.2724609375,0.146484375,-0.92578125
905,2.679,IMU2,35.30487804878049,39.69512195121951,-15.914634146341465,0.2724609375,0.13671875,-0.91015625
906,2.689,IMU0,40.36585365853659,37.6219512195122,-13.902439024390246,0.2685546875,0.169921875,-0.9091796875
907,2.689,IMU1,40.304878048780495,39.69512195121951,-14.51219512195122,0.275390625,0.17578125,-0.9365234375
908,2.689,IMU2,40.54878048780488,38.84146341463415,-14.207317073170733,0.2744140625,0.1669921875,-0.9111328125
909,2.699,IMU0,36.707317073170735,27.80487804878049,-13.231707317073171,0.298828125,0.189453125,-0.9228515625
910,2.699,IMU1,36.768292682926834,29.939024390243905,-13.841463414634148,0.3037109375,0.1943359375,-0.9423828125
911,2.699,IMU2,37.13414634146342,29.08536585365854,-13.475609756097562,0.30078125,0.1845703125,-0.9072265625
912,2.709,IMU0,26.52439024390244,22.195121951219512,-12.926829268292684,0.314453125,0.1943359375,-0.94140625
913,2.709,IMU1,26.646341463414636,24.146341463414636,-13.475609756097562,0.322265625,0.19921875,-0.9580078125
914,2.709,IMU2,27.195121951219516,23.10975609756098,-13.170731707317074,0.318359375,0.189453125,-0.9169921875
915,2.719,IMU0,14.329268292682928,24.939024390243905,-12.256097560975611,0.3173828125,0.212890625,-0.94921875
916,2.719,IMU1,14.451219512195124,26.76829268292683,-12.439024390243903,0.3232421875,0.2177734375,-0.96875
917,2.719,IMU2,14.939024390243905,25.731707317073173,-12.256097560975611,0.3203125,0.20703125,-0.9287109375
918,2.729,IMU0,4.451219512195122,26.52439024390244,-12.987804878048781,0.328125,0.216796875,-0.9375
919,2.729,IMU1,4.390243902439025,28.53658536585366,-12.926829268292684,0.33203125,0.22265625,-0.9599609375
920,2.729,IMU2,4.878048780487806,27.500000000000004,-12.80487804878049,0.3251953125,0.2138671875,-0.9248046875
921,2.739,IMU0,0.0,22.25609756097561,-16.34146341463415,0.31640625,0.20703125,-0.9013671875
922,2.739,IMU1,-0.1829268292682927,24.451219512195124,-16.158536585365855,0.3193359375,0.21484375,-0.931640625
923,2.739,IMU2,0.30487804878048785,23.414634146341466,-16.03658536585366,0.3115234375,0.205078125,-0.90625
924,2.749,IMU0,1.3414634146341464,15.243902439024392,-20.365853658536587,0.283203125,0.19140625,-0.8681640625
925,2.749,IMU1,1.1585365853658538,17.439024390243905,-20.30487804878049,0.2861328125,0.19921875,-0.9033203125
926,2.749,IMU2,1.402439024390244,16.402439024390244,-20.182926829268293,0.279296875,0.189453125,-0.8818359375
927,2.759,IMU0,6.463414634146342,9.02439024390244,-22.439024390243905,0.2470703125,0.1923828125,-0.8525390625
928,2.759,IMU1,6.2804878048780495,11.036585365853659,-22.621951219512198,0.2548828125,0.197265625,-0.8896484375
929,2.759,IMU2,6.52439024390244,10.060975609756099,-22.500000000000004,0.25,0.1884765625,-0.87109375
930,2.769,IMU0,12.865853658536587,9.329268292682928,-19.81707317073171,0.232421875,0.2119140625,-0.8740234375
931,2.769,IMU1,12.74390243902439,11.158536585365855,-20.426829268292686,0.244140625,0.2177734375,-0.9091796875
932,2.769,IMU2,12.987804878048781,10.121951219512196,-20.243902439024392,0.2470703125,0.2080078125,-0.8896484375
933,2.779,IMU0,17.865853658536587,15.79268292682927,-10.975609756097562,0.25,0.224609375,-0.908203125
934,2.779,IMU1,17.743902439024392,17.5,-11.76829268292683,0.2685546875,0.23046875,-0.939453125
935,2.779,IMU2,17.98780487804878,16.52439024390244,-11.52439024390244,0.2783203125,0.2216796875,-0.916015625
936,2.789,IMU0,19.512195121951223,21.34146341463415,1.2195121951219514,0.3095703125,0.2060546875,-0.9443359375
937,2.789,IMU1,19.207317073170735,23.10975609756098,0.3658536585365854,0.3251953125,0.2138671875,-0.970703125
938,2.789,IMU2,19.695121951219512,22.134146341463417,0.6707317073170732,0.3349609375,0.2060546875,-0.947265625
939,2.799,IMU0,17.743902439024392,26.03658536585366,10.0,0.3681640625,0.16796875,-0.99609375
940,2.799,IMU1,17.5,27.743902439024392,9.451219512195122,0.37890625,0.1748046875,-1.0185546875
941,2.799,IMU2,17.98780487804878,26.76829268292683,9.756097560975611,0.3818359375,0.166015625,-0.9912109375
942,2.809,IMU0,14.085365853658537,32.19512195121951,11.76829268292683,0.4013671875,0.1533203125,-1.0322265625
943,2.809,IMU1,13.719512195121952,33.71951219512196,11.585365853658537,0.4052734375,0.1591796875,-1.056640625
944,2.809,IMU2,14.390243902439027,32.743902439024396,11.890243902439025,0.3984375,0.1484375,-1.02734375
945,2.819,IMU0,10.792682926829269,40.36585365853659,7.560975609756098,0.396484375,0.1591796875,-1.021484375
946,2.819,IMU1,10.487804878048781,41.951219512195124,7.682926829268293,0.3974609375,0.1640625,-1.048828125
947,2.819,IMU2,11.097560975609756,40.91463414634147,7.865853658536586,0.3876953125,0.15625,-1.0224609375
948,2.829,IMU0,8.841463414634147,42.37804878048781,1.8902439024390245,0.3603515625,0.185546875,-0.9609375
949,2.829,IMU1,8.597560975609756,44.51219512195122,2.0121951219512195,0.3623046875,0.1884765625,-0.9912109375
950,2.829,IMU2,9.207317073170733,43.41463414634147,2.25609756097561,0.3544921875,0.181640625,-0.9638671875
951,2.839,IMU0,7.682926829268293,33.23170731707317,-2.5609756097560976,0.2939453125,0.2109375,-0.87890625
952,2.839,IMU1,7.500000000000001,35.91463414634147,-2.5,0.2998046875,0.216796875,-0.9091796875
953,2.839,IMU2,8.048780487804878,34.69512195121951,-2.3170731707317076,0.29296875,0.2080078125,-0.8837890625
954,2.849,IMU0,6.463414634146342,16.52439024390244,-4.939024390243903,0.216796875,0.2314453125,-0.8232421875
955,2.849,IMU1,6.341463414634147,19.26829268292683,-5.060975609756098,0.224609375,0.2373046875,-0.8505859375
956,2.849,IMU2,6.7682926829268295,18.04878048780488,-4.878048780487806,0.2197265625,0.2275390625,-0.82421875
957,2.859,IMU0,4.329268292682928,-0.30487804878048785,-5.060975609756098,0.169921875,0.25,-0.802734375
958,2.859,IMU1,4.207317073170732,2.378048780487805,-5.426829268292684,0.1767578125,0.2548828125,-0.83203125
959,2.859,IMU2,4.695121951219512,1.2195121951219514,-5.182926829268293,0.177734375,0.24609375,-0.802734375
960,2.869,IMU0,1.402439024390244,-15.30487804878049,-1.7682926829268295,0.1982421875,0.2412109375,-0.8125
961,2.869,IMU1,1.402439024390244,-12.682926829268293,-2.3170731707317076,0.2041015625,0.2470703125,-0.8369140625
962,2.869,IMU2,1.829268292682927,-13.902439024390246,-2.073170731707317,0.2099609375,0.2373046875,-0.810546875
963,2.879,IMU0,-1.402439024390244,-26.219512195121954,4.085365853658537,0.2880859375,0.2021484375,-0.849609375
964,2.879,IMU1,-1.524390243902439,-24.02439024390244,3.536585365853659,0.2919921875,0.2099609375,-0.8759765625
965,2.879,IMU2,-1.0975609756097562,-25.121951219512198,3.780487804878049,0.2998046875,0.19921875,-0.84765625
966,2.889,IMU0,-2.7439024390243905,-27.25609756097561,7.743902439024391,0.4091796875,0.1318359375,-0.892578125
967,2.889,IMU1,-3.048780487804878,-25.60975609756098,7.378048780487806,0.408203125,0.1416015625,-0.921875
968,2.889,IMU2,-2.5609756097560976,-26.58536585365854,7.560975609756098,0.41015625,0.12890625,-0.8984375
969,2.899,IMU0,-0.9756097560975611,-18.10975609756098,4.939024390243903,0.5234375,0.048828125,-0.908203125
970,2.899,IMU1,-1.524390243902439,-16.890243902439025,5.0,0.5185546875,0.05859375,-0.9462890625
971,2.899,IMU2,-0.9146341463414634,-17.682926829268293,5.060975609756098,0.509765625,0.046875,-0.9267578125
972,2.909,IMU0,5.487804878048781,-8.170731707317074,-4.451219512195122,0.560546875,0.0009765625,-0.892578125
973,2.909,IMU1,4.817073170731708,-7.01219512195122,-4.146341463414634,0.5546875,0.0078125,-0.931640625
974,2.909,IMU2,5.487804878048781,-7.743902439024391,-4.207317073170732,0.5380859375,-0.001953125,-0.9208984375
975,2.919,IMU0,15.975609756097562,5.548780487804878,-15.365853658536587,0.484375,0.0185546875,-0.8828125
976,2.919,IMU1,15.243902439024392,6.52439024390244,-15.243902439024392,0.4873046875,0.01953125,-0.9248046875
977,2.919,IMU2,15.853658536585368,5.914634146341464,-15.243902439024392,0.4716796875,0.013671875,-0.9150390625
978,2.929,IMU0,27.5609756097561,16.585365853658537,-21.219512195121954,0.3564453125,0.0947265625,-0.876953125
979,2.929,IMU1,26.951219512195124,17.98780487804878,-21.646341463414636,0.3681640625,0.0927734375,-0.916015625
980,2.929,IMU2,27.439024390243905,17.31707317073171,-21.402439024390247,0.359375,0.0869140625,-0.904296875
981,2.939,IMU0,35.609756097560975,21.402439024390247,-18.231707317073173,0.23046875,0.1884765625,-0.8681640625
982,2.939,IMU1,35.30487804878049,23.353658536585368,-19.32926829268293,0.2509765625,0.1884765625,-0.90234375
983,2.939,IMU2,35.609756097560975,22.378048780487806,-18.719512195121954,0.2548828125,0.18359375,-0.8837890625
984,2.949,IMU0,38.35365853658537,17.621951219512198,-5.609756097560976,0.1455078125,0.2451171875,-0.8603515625
985,2.949,IMU1,38.23170731707317,19.939024390243905,-7.317073170731708,0.1708984375,0.2490234375,-0.88671875
986,2.949,IMU2,38.53658536585366,18.78048780487805,-6.402439024390245,0.185546875,0.2421875,-0.8623046875
987,2.959,IMU0,35.0609756097561,7.01219512195122,11.097560975609756,0.123046875,0.25390625,-0.837890625
988,2.959,IMU1,35.243902439024396,10.182926829268293,9.26829268292683,0.1435546875,0.26171875,-0.8603515625
989,2.959,IMU2,35.487804878048784,8.475609756097562,10.24390243902439,0.1611328125,0.251953125,-0.8251953125
990,2.969,IMU0,25.731707317073173,-15.365853658536587,23.963414634146343,0.173828125,0.1982421875,-0.837890625
991,2.969,IMU1,26.03658536585366,-11.646341463414634,22.5609756097561,0.1826171875,0.2099609375,-0.8525390625
992,2.969,IMU2,26.28048780487805,-13.719512195121952,23.231707317073173,0.1923828125,0.197265625,-0.814453125
993,2.979,IMU0,14.207317073170733,-38.35365853658537,27.073170731707318,0.26171875,0.12890625,-0.8857421875
994,2.979,IMU1,14.51219512195122,-35.0,26.58536585365854,0.2578125,0.140625,-0.8974609375
995,2.979,IMU2,14.756097560975611,-37.01219512195122,26.707317073170735,0.2568359375,0.12890625,-0.86328125
996,2.989,IMU0,4.2682926829268295,-50.97560975609756,22.073170731707318,0.3798828125,0.0595703125,-0.947265625
997,2.989,IMU1,4.390243902439025,-48.47560975609756,22.073170731707318,0.3681640625,0.0703125,-0.962890625
998,2.989,IMU2,4.75609756097561,-50.00000000000001,21.890243902439025,0.3623046875,0.0595703125,-0.9306640625
999,2.999,IMU0,-2.8658536585365857,-53.10975609756098,12.74390243902439,0.4873046875,0.0068359375,-0.9990234375
1000,2.999,IMU1,-2.8658536585365857,-51.463414634146346,13.04878048780488,0.4765625,0.017578125,-1.0205078125
1001,2.999,IMU2,-2.5,-52.43902439024391,12.621951219512196,0.4658203125,0.0048828125,-0.9921875
1002,3.009,IMU0,-4.451219512195122,-43.170731707317074,3.2926829268292686,0.517578125,-0.0166015625,-1.0166015625
1003,3.009,IMU1,-4.878048780487806,-42.6219512195122,3.658536585365854,0.5166015625,-0.0087890625,-1.048828125
1004,3.009,IMU2,-4.2682926829268295,-42.86585365853659,3.231707317073171,0.50390625,-0.0185546875,-1.025390625
1005,3.019,IMU0,1.0975609756097562,-22.743902439024392,-3.4756097560975614,0.455078125,0.0068359375,-0.986328125
1006,3.019,IMU1,1.0365853658536586,-20.48780487804878,-3.8414634146341466,0.46484375,0.0078125,-1.02734375
1007,3.019,IMU2,1.1585365853658538,-22.5609756097561,-3.536585365853659,0.4521484375,0.001953125,-1.009765625
1008,3.029,IMU0,10.548780487804878,-4.390243902439025,-6.036585365853659,0.365234375,0.0634765625,-0.9384765625
1009,3.029,IMU1,10.609756097560977,-2.25609756097561,-6.341463414634147,0.3798828125,0.064453125,-0.98046875
1010,3.029,IMU2,10.548780487804878,-3.9024390243902443,-6.158536585365854,0.37109375,0.05859375,-0.962890625
1011,3.039,IMU0,20.60975609756098,3.231707317073171,-4.695121951219512,0.2783203125,0.111328125,-0.8798828125
1012,3.039,IMU1,20.60975609756098,5.2439024390243905,-5.121951219512195,0.294921875,0.11328125,-0.921875
1013,3.039,IMU2,20.60975609756098,4.085365853658537,-5.0,0.291015625,0.1064453125,-0.90625
1014,3.049,IMU0,28.292682926829272,1.707317073170732,-0.24390243902439027,0.2177734375,0.15625,-0.8583984375
1015,3.049,IMU1,28.170731707317074,3.658536585365854,-0.853658536585366,0.232421875,0.1591796875,-0.8935546875
1016,3.049,IMU2,28.292682926829272,2.7439024390243905,-0.853658536585366,0.2333984375,0.1533203125,-0.8720703125
1017,3.059,IMU0,30.426829268292686,-4.329268292682928,5.7926829268292686,0.21484375,0.177734375,-0.8623046875
1018,3.059,IMU1,30.182926829268297,-2.439024390243903,5.2439024390243905,0.2275390625,0.18359375,-0.890625
1019,3.059,IMU2,30.670731707317074,-3.1097560975609757,5.2439024390243905,0.23046875,0.1748046875,-0.861328125
1020,3.069,IMU0,24.32926829268293,-17.378048780487806,9.390243902439025,0.28125,0.1484375,-0.8876953125
1021,3.069,IMU1,23.84146341463415,-15.609756097560977,8.719512195121952,0.2880859375,0.1533203125,-0.90625
1022,3.069,IMU2,24.75609756097561,-16.097560975609756,8.963414634146343,0.2822265625,0.1474609375,-0.8681640625
1023,3.079,IMU0,11.951219512195124,-30.426829268292686,6.646341463414635,0.3515625,0.0986328125,-0.9296875
1024,3.079,IMU1,11.463414634146343,-28.53658536585366,6.036585365853659,0.353515625,0.1025390625,-0.9423828125
1025,3.079,IMU2,12.560975609756099,-29.32926829268293,6.402439024390245,0.341796875,0.095703125,-0.90234375
1026,3.089,IMU0,-1.8902439024390245,-32.987804878048784,1.2195121951219514,0.3896484375,0.0791015625,-0.98046875
1027,3.089,IMU1,-2.25609756097561,-30.975609756097565,0.7926829268292683,0.390625,0.083984375,-0.994140625
1028,3.089,IMU2,-1.3414634146341464,-32.19512195121951,1.0975609756097562,0.3798828125,0.0751953125,-0.9560546875
1029,3.099,IMU0,-12.256097560975611,-25.243902439024392,-3.7195121951219514,0.412109375,0.072265625,-1.005859375
1030,3.099,IMU1,-12.621951219512196,-23.231707317073173,-3.9024390243902443,0.41796875,0.07421875,-1.0234375
1031,3.099,IMU2,-11.829268292682928,-24.695121951219516,-3.7195121951219514,0.4111328125,0.06640625,-0.994140625
1032,3.109,IMU0,-16.219512195121954,-12.500000000000002,-5.121951219512195,0.416015625,0.064453125,-0.974609375
1033,3.109,IMU1,-16.463414634146343,-10.548780487804878,-5.2439024390243905,0.421875,0.0673828125,-0.9931640625
1034,3.109,IMU2,-15.853658536585368,-12.01219512195122,-5.121951219512195,0.419921875,0.0615234375,-0.974609375
