,ts,acc_x,acc_y,acc_z
0,33762,0,0,0
1,33772,0,-1,0
2,33782,0,0,0
3,33792,0,-1,0
4,33802,0,0,0
5,33812,0,-1,0
6,33822,0,0,0
7,33832,0,-1,0
8,33842,0,0,0
9,33852,-1,0,0
10,33862,0,-1,0
11,33872,-1,0,0
12,33882,-1,0,0
13,33892,-1,-1,0
14,33902,0,0,0
15,33912,0,-1,0
16,33922,0,-1,0
17,33932,0,0,0
18,33942,0,0,0
19,33952,0,-1,0
20,33962,-1,0,0
21,33972,0,0,0
22,33982,0,0,0
23,33992,-1,-1,0
24,34002,0,-1,0
25,34012,-1,-1,0
26,34022,1,0,0
27,34032,0,-1,0
28,34042,1,0,0
29,34052,0,-1,0
30,34062,-1,0,0
31,34072,0,0,0
32,34082,0,0,0
33,34092,-1,-1,0
34,34102,0,-1,0
35,34112,0,-1,0
36,34122,0,0,0
37,34132,-1,0,0
38,34142,-1,-1,0
39,34152,-1,0,0
40,34162,-1,0,0
41,34172,-1,-1,0
42,34182,0,-1,0
43,34192,0,0,0
44,34202,-1,0,0
45,34212,-1,0,0
46,34222,-1,-1,0
47,34232,-1,-1,0
48,34242,0,0,0
49,34252,0,0,0
50,34262,0,-1,0
51,34272,0,-1,0
52,34282,-1,0,0
53,34292,-1,0,0
54,34302,-1,-1,0
55,34312,-1,-1,0
56,34322,-1,-1,0
57,34332,-1,0,0
58,34342,-1,0,0
59,34352,-1,0,0
60,34362,-1,-1,0
61,34372,0,0,0
62,34382,-1,0,0
63,34392,-1,-1,0
64,34402,-1,-1,0
65,34412,0,0,0
66,34422,-1,0,0
67,34432,-1,0,0
68,34442,0,0,0
69,34452,0,-1,0
70,34462,-1,0,0
71,34472,0,0,0
72,34482,-1,0,0
73,34492,0,0,0
74,34502,-1,0,0
75,34512,-1,0,0
76,34522,-1,0,0
77,34532,-1,-1,0
78,34542,0,0,0
79,34552,0,-1,0
80,34562,0,-1,0
81,34572,0,0,0
82,34582,-1,-1,0
83,34592,0,0,0
84,34602,-1,-1,0
85,34612,-1,0,0
86,34622,0,0,0
87,34632,-1,-1,0
88,34642,0,0,0
89,34652,0,-1,0
90,34662,-1,-1,0
91,34672,0,0,0
92,34682,0,-1,0
93,34692,0,-1,0
94,34702,0,-1,0
95,34712,-1,-1,0
96,34722,0,0,0
97,34732,0,-1,0
98,34742,0,0,0
99,34752,0,-1,0
100,34762,-1,-1,0
101,34772,0,0,0
102,34782,0,-1,0
103,34792,0,0,0
104,34802,-1,-1,0
105,34812,0,0,0
106,34822,-1,0,0
107,34832,0,0,0
108,34842,-1,-1,0
109,34852,0,0,0
110,34862,0,-1,0
111,34872,0,0,0
112,34882,-1,-1,0
113,34892,0,0,0
114,34902,0,-1,0
115,34912,0,0,0
116,34922,-1,-1,0
117,34932,0,-1,0
118,34942,-1,0,0
119,34952,0,-1,0
120,34962,0,0,0
121,34972,0,-1,0
122,34982,0,0,0
123,34992,0,-1,0
124,35002,-1,0,0
125,35012,-1,-1,0
126,35022,0,0,0
127,35032,-1,-1,0
128,35042,0,0,0
129,35052,0,-1,0
130,35062,-1,0,0
131,35072,-1,0,0
132,35082,0,-1,0
133,35092,-1,0,0
134,35102,-1,-1,0
135,35112,0,0,0
136,35122,0,-1,0
137,35132,0,0,0
138,35142,-1,-1,0
139,35152,-1,0,0
140,35162,0,-1,0
141,35172,0,0,0
142,35182,0,0,0
143,35192,-1,-1,0
144,35202,0,0,0
145,35212,0,-1,0
146,35222,0,-1,0
147,35232,-1,-1,0
148,35242,0,0,0
149,35252,0,0,0
150,35262,-1,-1,0
151,35272,0,0,0
152,35282,-1,-1,0
153,35292,0,0,0
154,35302,-1,0,0
155,35312,0,-1,0
156,35322,0,0,0
157,35332,-1,-1,0
158,35342,0,0,0
159,35352,0,0,0
160,35362,0,-1,0
161,35372,0,0,0
162,35382,0,-1,0
163,35392,0,0,0
164,35402,0,-1,0
165,35412,0,-1,0
166,35422,0,0,0
167,35432,-1,-1,0
168,35442,0,0,0
169,35452,0,-1,0
170,35462,0,0,0
171,35472,0,0,0
172,35482,0,-1,0
173,35492,0,0,0
174,35502,-1,-1,0
175,35512,0,0,0
176,35522,-1,0,0
177,35532,-1,-1,0
178,35542,0,0,0
179,35552,-1,-1,0
180,35562,0,0,0
181,35572,-1,-1,0
182,35582,0,-1,0
183,35592,-1,0,0
184,35602,0,-1,0
185,35612,0,0,0
186,35622,0,-1,0
187,35632,0,-1,0
188,35642,0,0,0
189,35652,0,-1,0
190,35662,0,0,0
191,35672,0,-1,0
192,35682,0,0,0
193,35692,0,-1,0
194,35702,0,-1,0
195,35712,0,0,0
196,35722,-1,-1,0
197,35732,0,-1,0
198,35742,0,0,0
199,35752,-1,-1,0
200,35762,0,-1,0
201,35772,0,0,0
202,35782,-1,-1,0
203,35792,0,0,0
204,35802,0,0,0
205,35812,-1,-1,0
206,35822,-1,-1,0
207,35832,-1,0,0
208,35842,0,-1,0
209,35852,0,-1,0
210,35862,0,-1,0
211,35872,0,-1,0
212,35882,0,-1,0
213,35892,0,0,0
214,35902,0,0,0
215,35912,0,-1,0
216,35922,0,0,0
217,35932,0,-1,0
218,35942,-1,-1,0
219,35952,0,0,0
220,35962,0,0,0
221,35972,0,-2,0
222,35982,0,0,0
223,35992,0,0,0
224,36002,-1,-1,0
225,36012,0,-1,0
226,36022,0,0,0
227,36032,0,-1,0
228,36042,0,-1,0
229,36052,0,0,0
230,36062,0,-1,0
231,36072,0,0,0
232,36082,-1,-1,0
233,36092,0,-1,0
234,36102,0,0,0
235,36112,0,-1,0
236,36122,-1,-1,0
237,36132,0,0,0
238,36142,0,-1,0
239,36152,0,-1,0
240,36162,0,0,0
241,36172,-1,-1,0
242,36182,0,-1,0
243,36192,0,0,0
244,36202,0,-1,0
245,36212,0,-1,0
246,36222,0,0,0
247,36232,-1,-1,0
248,36242,0,-1,0
249,36252,0,0,0
250,36262,0,0,0
251,36272,0,-1,0
252,36282,0,-1,0
253,36292,0,0,0
254,36302,0,-2,0
255,36312,0,-1,0
256,36322,0,0,0
257,36332,-1,-1,0
258,36342,0,-1,0
259,36352,0,0,0
260,36362,-1,0,0
261,36372,0,-1,0
262,36382,0,0,0
263,36392,0,0,0
264,36402,0,-1,0
265,36412,0,0,0
266,36422,0,0,0
267,36432,-1,-1,0
268,36442,0,-1,0
269,36452,0,0,0
270,36462,-1,0,0
271,36472,-1,-1,0
272,36482,0,0,0
273,36492,-1,-1,0
274,36502,0,-1,0
275,36512,0,0,0
276,36522,-1,-1,0
277,36532,0,-1,0
278,36542,0,0,0
279,36552,0,-1,0
280,36562,-1,-1,0
281,36572,0,0,0
282,36582,-1,0,0
283,36592,0,-1,0
284,36602,0,-1,0
285,36612,0,0,0
286,36622,-1,-1,0
287,36632,-1,0,0
288,36642,0,0,0
289,36652,-1,-1,0
290,36662,0,-1,0
291,36672,0,0,0
292,36682,0,-1,0
293,36692,0,0,0
294,36702,0,-1,0
295,36712,0,0,0
296,36722,0,-1,0
297,36732,0,0,0
298,36742,0,-1,0
299,36752,-1,-1,0
300,36762,0,0,0
301,36772,-1,-1,0
302,36782,0,0,0
303,36792,0,-1,0
304,36802,-1,-1,0
305,36812,0,-1,0
306,36822,0,0,0
307,36832,0,-1,0
308,36842,-1,-1,0
309,36852,-1,-1,0
310,36862,0,0,0
311,36872,-1,-1,0
312,36882,-1,-1,0
313,36892,-1,-1,0
314,36902,0,-1,0
315,36912,0,-1,0
316,36922,0,-1,0
317,36932,-1,-1,0
318,36942,0,-1,0
319,36952,-1,-1,0
320,36962,0,-1,0
321,36972,0,-1,0
322,36982,0,-1,0
323,36992,0,0,0
324,37002,0,0,0
325,37012,0,-1,0
326,37022,0,-1,0
327,37032,-1,-1,0
328,37042,-1,-1,0
329,37052,0,-1,0
330,37062,0,0,0
331,37072,-1,-1,0
332,37082,-1,-1,0
333,37092,0,-1,0
334,37102,0,0,0
335,37112,0,0,0
336,37122,-1,-1,0
337,37132,0,-1,0
338,37142,0,0,0
339,37152,-1,-1,0
340,37162,0,-1,0
341,37172,0,-1,0
342,37182,-1,0,0
343,37192,0,-1,0
344,37202,0,-1,0
345,37212,-1,0,0
346,37222,0,-1,0
347,37232,-1,-1,0
348,37242,0,-1,0
349,37252,-1,-1,0
350,37262,0,0,0
351,37272,-1,-1,0
352,37282,0,-1,0
353,37292,-1,0,0
354,37302,0,0,0
355,37312,0,-1,0
356,37322,-1,-1,0
357,37332,0,-1,0
358,37342,0,0,0
359,37352,-1,-1,0
360,37362,-1,0,0
361,37372,0,-1,0
362,37382,1,-1,0
363,37392,0,-1,0
364,37402,-1,-1,0
365,37412,-1,-1,0
366,37422,0,-1,0
367,37432,0,-1,0
368,37442,-1,-1,0
369,37452,-1,0,0
370,37462,0,0,0
371,37472,1,-1,0
372,37482,0,-1,0
373,37492,-1,0,0
374,37502,0,0,0
375,37512,0,-1,0
376,37522,-1,-1,0
377,37532,-1,-1,0
378,37542,-1,0,0
379,37552,0,-1,0
380,37562,-1,0,0
381,37572,-2,0,0
382,37582,-1,-1,0
383,37592,0,-1,0
384,37602,0,-1,0
385,37612,0,-1,0
386,37622,0,-1,0
387,37632,0,-1,0
388,37642,-1,-1,0
389,37652,0,-1,0
390,37662,0,-1,0
391,37672,0,0,0
392,37682,0,-1,0
393,37692,0,-1,0
394,37702,0,-1,0
395,37712,0,0,0
396,37722,-1,-1,0
397,37732,0,0,0
398,37742,0,-1,0
399,37752,0,-1,0
400,37762,-1,-1,0
401,37772,0,-1,0
402,37782,0,0,0
403,37792,0,-1,0
404,37802,0,-1,0
405,37812,0,-1,0
406,37822,0,-1,0
407,37832,0,-1,0
408,37842,0,-1,0
409,37852,-1,0,0
410,37862,0,-1,0
411,37872,0,-1,0
412,37882,0,-1,0
413,37892,-1,-1,0
414,37902,0,-1,0
415,37912,0,-1,0
416,37922,-1,-1,0
417,37932,0,-1,0
418,37942,-1,-1,0
419,37952,0,-1,0
420,37962,0,0,0
421,37972,0,-1,0
422,37982,0,-1,0
423,37992,0,-1,0
424,38002,0,-1,0
425,38012,0,-1,0
426,38022,0,-1,0
427,38032,0,-1,0
428,38042,0,-1,0
429,38052,0,-1,0
430,38062,0,-1,0
431,38072,0,-1,0
432,38082,0,-1,0
433,38092,-1,-1,0
434,38102,0,-1,0
435,38112,-1,-1,0
436,38122,0,-1,0
437,38132,0,-1,0
438,38142,-1,-1,0
439,38152,0,-1,0
440,38162,0,-1,0
441,38172,0,-1,0
442,38182,0,-1,0
443,38192,0,-1,0
444,38202,0,-1,0
445,38212,-1,0,0
446,38222,-1,-1,0
447,38232,0,-1,0
448,38242,0,-1,0
449,38252,0,-1,0
450,38262,0,-1,0
451,38272,-1,-1,0
452,38282,0,-1,0
453,38292,0,-1,0
454,38302,0,-1,0
455,38312,0,-1,0
456,38322,-1,-1,0
457,38332,0,-1,0
458,38342,0,-1,0
459,38352,0,-1,0
460,38362,0,-1,0
461,38372,-1,-1,0
462,38382,0,-1,0
463,38392,-1,-1,0
464,38402,0,-1,0
465,38412,0,-1,0
466,38422,0,-1,0
467,38432,-1,-1,0
468,38442,0,-1,0
469,38452,0,-1,0
470,38462,-1,-1,0
471,38472,0,-1,0
472,38482,0,-1,0
473,38492,-1,-1,0
474,38502,-1,-1,0
475,38512,0,-1,0
476,38522,0,-1,0
477,38532,-1,-1,0
478,38542,0,-1,0
479,38552,0,-1,0
480,38562,0,-1,0
481,38572,0,-1,0
482,38582,-1,-1,0
483,38592,0,-1,0
484,38602,0,-1,0
485,38612,-1,-1,0
486,38622,-1,-1,0
487,38632,-1,-1,0
488,38642,0,-1,0
489,38652,0,-1,0
490,38662,0,-1,0
491,38672,0,-1,0
492,38682,0,-1,0
493,38692,0,-1,0
494,38702,0,0,0
495,38712,-1,-1,0
496,38722,0,-1,0
497,38732,0,-1,0
498,38742,0,-1,0
499,38752,-1,0,0
500,38762,0,-1,0
501,38772,0,-1,0
502,38782,0,-1,0
503,38792,0,-1,0
504,38802,0,-1,0
505,38812,-1,-1,0
506,38822,0,-1,0
507,38832,0,-1,0
508,38842,0,-1,0
509,38852,0,-1,0
510,38862,-1,-1,0
511,38872,-1,-1,0
512,38882,0,-1,0
513,38892,0,-1,0
514,38902,0,-1,0
515,38912,0,-1,0
516,38922,-1,-1,0
517,38932,-1,-1,0
518,38942,0,-1,0
519,38952,0,-1,0
520,38962,0,-1,0
521,38972,0,-1,0
522,38982,0,-1,0
523,38992,0,-1,0
524,39002,-1,-1,0
525,39012,-1,-1,0
526,39022,-1,-1,0
527,39032,-1,-1,0
528,39042,-1,-1,0
529,39052,0,-1,0
530,39062,0,-1,0
531,39072,-1,-1,0
532,39082,0,-1,0
533,39092,-1,-1,0
534,39102,-1,-1,0
535,39112,-1,-1,0
536,39122,0,-1,0
537,39132,0,-1,0
538,39142,0,-1,0
539,39152,0,-1,0
540,39162,-1,-1,0
541,39172,0,-1,0
542,39182,-1,-1,0
543,39192,-1,-1,0
544,39202,0,-1,0
545,39212,-1,0,0
546,39222,0,-1,0
547,39232,-1,-1,0
548,39242,-1,-1,0
549,39252,0,-1,0
550,39262,0,-1,0
551,39272,0,-1,0
552,39282,0,-1,0
553,39292,-1,-1,0
554,39302,-1,-1,0
555,39312,-1,-1,0
556,39322,0,-1,0
557,39332,-1,-1,0
558,39342,-1,-1,0
559,39352,0,-1,0
560,39362,-1,-1,0
561,39372,-1,-1,0
562,39382,0,0,0
563,39392,-1,-1,0
564,39402,0,0,0
565,39412,-1,-1,0
566,39422,0,-1,0
567,39432,-1,0,0
568,39442,-1,0,0
569,39452,-1,-1,0
570,39462,0,-1,0
571,39472,-1,-1,0
572,39482,-1,-1,0
573,39492,-1,-1,0
574,39502,0,0,0
575,39512,-1,-1,0
576,39522,-1,-1,0
577,39532,-1,-1,0
578,39542,0,-1,0
579,39552,-1,-1,0
580,39562,-1,0,0
581,39572,-1,-1,0
582,39582,0,-1,0
583,39592,-1,-1,0
584,39602,-1,-1,0
585,39612,-1,0,0
586,39622,0,0,0
587,39632,0,-1,0
588,39642,-1,-1,0
589,39652,0,0,0
590,39662,-1,-1,0
591,39672,0,-1,0
592,39682,-1,-1,0
593,39692,-1,-1,0
594,39702,-1,-1,0
595,39712,-1,-1,0
596,39722,-1,-1,0
597,39732,0,-1,0
598,39742,-1,-1,0
599,39752,-1,-1,0
600,39762,0,-1,0
601,39772,-1,-1,0
602,39782,-1,-1,0
603,39792,0,0,0
604,39802,-1,-1,0
605,39812,0,-1,0
606,39822,-1,-1,0
607,39832,0,-1,0
608,39842,-1,-1,0
609,39852,-1,-1,0
610,39862,-1,-1,0
611,39872,0,-1,0
612,39882,0,-1,0
613,39892,-1,0,0
614,39902,-1,-1,0
615,39912,-1,-1,0
616,39922,-1,-1,0
617,39932,-1,-1,0
618,39942,0,-1,0
619,39952,-1,-1,0
620,39962,0,-1,0
621,39972,-1,-1,0
622,39982,0,0,0
623,39992,-1,-1,0
624,40002,-1,-1,0
625,40012,-1,0,0
626,40022,-1,-1,0
627,40032,0,-1,0
628,40042,-1,-1,0
629,40052,-1,-1,0
630,40062,0,0,0
631,40072,-1,0,0
632,40082,0,-1,0
633,40092,-1,-1,0
634,40102,-1,-1,0
635,40112,0,-2,0
636,40122,-1,-2,0
637,40132,-1,-1,0
638,40142,0,-1,0
639,40152,-1,-1,0
640,40162,0,-1,0
641,40172,-1,0,0
642,40182,-1,0,0
643,40192,0,-1,0
644,40202,-1,-2,0
645,40212,-1,-1,0
646,40222,0,0,0
647,40232,-1,0,0
648,40242,0,0,0
649,40252,-1,-1,0
650,40262,-1,-2,0
651,40272,-1,-1,0
652,40282,-1,-1,0
653,40292,0,0,0
654,40302,-1,0,0
655,40312,0,-1,0
656,40322,-1,-1,0
657,40332,-1,-2,0
658,40342,0,-1,0
659,40352,-1,-1,0
660,40362,0,-1,0
661,40372,-1,0,0
662,40382,0,1,0
663,40392,-1,-1,0
664,40402,0,-1,0
665,40412,-1,-1,0
666,40422,0,0,0
667,40432,-1,-1,0
668,40442,0,-1,0
669,40452,-1,-1,0
670,40462,0,-1,0
671,40472,-1,-1,0
672,40482,0,-1,0
673,40492,-1,-1,0
674,40502,-1,-1,0
675,40512,0,0,0
676,40522,-1,-1,0
677,40532,0,0,0
678,40542,-1,-1,0
679,40552,0,-1,0
680,40562,-1,-1,0
681,40572,0,-1,0
682,40582,-1,-1,0
683,40592,0,-1,0
684,40602,0,-1,0
685,40612,-1,0,0
686,40622,0,0,0
687,40632,-1,-1,0
688,40642,0,0,0
689,40652,-1,-1,0
690,40662,-1,-1,0
691,40672,0,0,0
692,40682,-1,-1,0
693,40692,-1,-1,0
694,40702,0,-1,0
695,40712,-1,-1,0
696,40722,-1,-1,0
697,40732,0,-1,0
698,40742,-1,-1,0
699,40752,0,-1,0
700,40762,-2,-1,0
701,40772,0,-1,0
702,40782,-1,-1,0
703,40792,0,-1,0
704,40802,-1,-1,0
705,40812,-1,-1,0
706,40822,0,0,0
707,40832,-1,-1,0
708,40842,0,0,0
709,40852,-1,-1,0
710,40862,0,0,0
711,40872,-1,-1,0
712,40882,-1,-1,0
713,40892,0,-1,0
714,40902,-1,-1,0
715,40912,0,0,0
716,40922,-1,-1,0
717,40932,-1,-1,0
718,40942,0,-1,0
719,40952,-1,-1,0
720,40962,0,-1,0
721,40972,-1,-1,0
722,40982,-1,-1,0
723,40992,0,-1,0
724,41002,-1,-1,0
725,41012,-1,-2,0
726,41022,0,-2,0
727,41032,0,-1,0
728,41042,-1,-1,0
729,41052,0,-1,0
730,41062,-1,-1,0
731,41072,-1,-1,0
732,41082,-1,-1,0
733,41092,0,0,0
734,41102,0,-1,0
735,41112,0,-1,0
736,41122,0,-1,0
737,41132,-1,-1,0
738,41142,0,0,0
739,41152,-1,0,0
740,41162,-1,-1,0
741,41172,0,0,0
742,41182,-1,-1,0
743,41192,0,-1,0
744,41202,0,-1,0
745,41212,-1,-1,0
746,41222,-1,-2,0
747,41232,-1,-2,0
748,41242,0,0,0
749,41252,-1,0,0
750,41262,-1,-1,0
751,41272,-1,-1,0
752,41282,-1,0,0
753,41292,0,-1,0
754,41302,-1,-1,0
755,41312,-1,-1,0
756,41322,-1,0,0
757,41332,-1,-1,0
758,41342,0,-1,0
759,41352,-1,-1,0
760,41362,0,-1,0
761,41372,0,-1,0
762,41382,-1,-1,0
763,41392,-1,-1,0
764,41402,-1,-1,0
765,41412,0,-1,0
766,41422,-1,-1,0
767,41432,0,-1,0
768,41442,-1,-1,0
769,41452,0,-1,0
770,41462,0,0,0
771,41472,-1,-1,0
772,41482,-1,-1,0
773,41492,-1,-1,0
774,41502,0,-1,0
775,41512,-1,0,0
776,41522,-1,-1,0
777,41532,-1,-1,0
778,41542,-1,-1,0
779,41552,-1,0,0
780,41562,0,-1,0
781,41572,-1,-1,0
782,41582,0,-1,0
783,41592,-1,-1,0
784,41602,0,-1,0
785,41612,0,-1,0
786,41622,-1,-1,0
787,41632,-1,-1,0
788,41642,-1,-1,0
789,41652,0,-1,0
790,41662,-1,0,0
791,41672,-1,-1,0
792,41682,-1,-1,0
793,41692,-1,-1,0
794,41702,-1,0,0
795,41712,-1,-1,0
796,41722,0,-1,0
797,41732,-1,-1,0
798,41742,-1,-1,0
799,41752,0,-1,0
800,41762,-1,-1,0
801,41772,-1,0,0
802,41782,0,-1,0
803,41792,-1,-1,0
804,41802,0,0,0
805,41812,0,-1,0
806,41822,-1,-1,0
807,41832,0,-1,0
808,41842,-1,0,0
809,41852,-1,-1,0
810,41862,0,-1,0
811,41872,-1,0,0
812,41882,-1,-1,0
813,41892,0,-1,0
814,41902,-1,-1,0
815,41912,0,0,0
816,41922,0,-1,0
817,41932,0,-1,0
818,41942,-1,-1,0
819,41952,-1,0,0
820,41962,-1,-1,0
821,41972,-1,-1,0
822,41982,-1,-1,0
823,41992,0,-1,0
824,42002,0,-1,0
825,42012,-1,0,0
826,42022,-1,0,0
827,42032,-1,-1,0
828,42042,0,-1,0
829,42052,0,-1,0
830,42062,-1,-1,0
831,42072,-1,-1,0
832,42082,-1,0,0
833,42092,-1,-1,0
834,42102,-1,-1,0
835,42112,-1,-1,0
836,42122,0,-1,0
837,42132,-1,-1,0
838,42142,-1,-1,0
839,42152,-1,-1,0
840,42162,-1,-1,0
841,42172,-1,-2,0
842,42182,-1,0,0
843,42192,-1,-1,0
844,42202,-1,-1,0
845,42212,-1,-1,0
846,42222,0,-1,0
847,42232,-1,-1,0
848,42242,-1,-1,0
849,42252,0,-1,0
850,42262,0,-1,0
851,42272,0,-2,0
852,42282,-1,-1,0
853,42292,0,-1,0
854,42302,-1,-1,0
855,42312,-1,-1,0
856,42322,0,-1,0
857,42332,-1,-1,0
858,42342,-1,-1,0
859,42352,-1,-1,0
860,42362,0,-1,0
861,42372,-1,-1,0
862,42382,-1,-1,0
863,42392,-1,-1,0
864,42402,-1,-1,0
865,42412,-1,-1,0
866,42422,-1,-1,0
867,42432,-1,0,0
868,42442,0,-1,0
869,42452,-1,-1,0
870,42462,0,-1,0
871,42472,-1,-1,0
872,42482,-1,-1,0
873,42492,0,-1,0
874,42502,-1,-1,0
875,42512,-1,-1,0
876,42522,-1,-1,0
877,42532,-1,-1,0
878,42542,-1,-1,0
879,42552,-1,-1,0
880,42562,0,-1,0
881,42572,-1,-1,0
882,42582,-1,-1,0
883,42592,0,-1,0
884,42602,-1,-1,0
885,42612,-1,-1,0
886,42622,0,-1,0
887,42632,0,-1,0
888,42642,-1,-1,0
889,42652,-1,-1,0
890,42662,0,-1,0
891,42672,0,-2,0
892,42682,0,-1,0
893,42692,-1,-1,0
894,42702,-1,-1,0
895,42712,-1,-1,0
896,42722,0,-1,0
897,42732,-1,-1,0
898,42742,-1,-1,0
899,42752,-1,-1,0
900,42762,-1,-1,0
901,42772,-1,-1,0
902,42782,0,-1,0
903,42792,0,-1,0
904,42802,-1,-1,0
905,42812,-1,-1,0
906,42822,0,-1,0
907,42832,-1,-1,0
908,42842,-1,-2,0
909,42852,-1,-1,0
910,42862,-1,-1,0
911,42872,-1,0,0
912,42882,0,-1,0
913,42892,-1,-1,0
914,42902,0,-1,0
915,42912,-1,-2,0
916,42922,-1,-1,0
917,42932,0,-1,0
918,42942,0,-1,0
919,42952,0,-1,0
920,42962,0,-1,0
921,42972,0,-1,0
922,42982,-1,-1,0
923,42992,0,-1,0
924,43002,-1,-1,0
925,43012,-1,-1,0
926,43022,-1,-1,0
927,43032,0,-1,0
928,43042,-1,-1,0
929,43052,-1,-1,0
930,43062,-1,-1,0
931,43072,-1,-1,0
932,43082,-1,-1,0
933,43092,0,-1,0
934,43102,-1,-1,0
935,43112,-1,-1,0
936,43122,0,-1,0
937,43132,-1,-1,0
938,43142,-1,-1,0
939,43152,0,-1,0
940,43162,-1,-2,0
941,43172,0,-1,0
942,43182,0,-1,0
943,43192,-1,-1,0
944,43202,-1,-1,0
945,43212,0,-1,0
946,43222,-1,-1,0
947,43232,0,-1,0
948,43242,0,-1,0
949,43252,-1,-1,0
950,43262,0,-1,0
951,43272,-1,-1,0
952,43282,0,-1,0
953,43292,0,-1,0
954,43302,0,-1,0
955,43312,-1,-1,0
956,43322,0,-1,0
957,43332,-1,-1,0
958,43342,-1,-1,0
959,43352,0,-1,0
960,43362,-1,-1,0
961,43372,0,-1,0
962,43382,-1,-1,0
963,43392,0,-1,0
964,43402,-1,-1,0
965,43412,0,-1,0
966,43422,0,-1,0
967,43432,0,-1,0
968,43442,0,-1,0
969,43452,-1,-1,0
970,43462,0,-1,0
971,43472,0,-1,0
972,43482,0,-1,0
973,43492,-1,-1,0
974,43502,0,-1,0
975,43512,-1,-1,0
976,43522,0,-1,0
977,43532,-1,-1,0
978,43542,-1,-1,0
979,43552,0,0,0
980,43562,-1,-1,0
981,43572,0,-1,0
982,43582,0,-1,0
983,43592,-1,-1,0
984,43602,0,-1,0
985,43612,0,-1,0
986,43622,0,-1,0
987,43632,-1,-1,0
988,43642,0,-1,0
989,43652,0,-1,0
990,43662,-1,-1,0
991,43672,0,-1,0
992,43682,0,-1,0
993,43692,-1,-1,0
994,43702,0,-1,0
995,43712,0,-1,0
996,43722,-1,-1,0
997,43732,0,-1,0
998,43742,-1,0,0
999,43752,0,-1,0
1000,43762,0,-1,0
1001,43772,-1,-1,0
1002,43782,0,-1,0
1003,43792,0,0,0
1004,43802,0,0,0
1005,43812,0,-1,0
1006,43822,-1,-1,0
1007,43832,0,-1,0
1008,43842,-1,-1,0
1009,43852,0,-1,0
1010,43862,0,-1,0
1011,43872,-1,-1,0
1012,43882,0,-1,0
1013,43892,-1,-1,0
1014,43902,0,-1,0
1015,43912,-1,-2,0
1016,43922,0,-1,0
1017,43932,-1,-1,0
1018,43942,0,-1,0
1019,43952,-1,-1,0
1020,43962,-1,-1,0
1021,43972,0,-1,0
1022,43982,0,-1,0
1023,43992,0,-1,0
1024,44002,-1,-1,0
1025,44012,-1,-1,0
1026,44022,0,-1,0
1027,44032,-1,-1,0
1028,44042,-1,-1,0
1029,44052,0,-1,0
1030,44062,0,-1,0
1031,44072,-1,-1,0
1032,44082,0,-1,0
1033,44092,0,-1,0
1034,44102,-1,-1,0
1035,44112,0,-1,0
1036,44122,0,0,0
1037,44132,-1,-1,0
1038,44142,-1,-1,0
1039,44152,0,-1,0
1040,44162,0,-1,0
1041,44172,-1,-1,0
1042,44182,-1,-1,0
1043,44192,-1,-1,0
1044,44202,0,-1,0
1045,44212,-1,-1,0
1046,44222,0,-1,0
1047,44232,-1,-1,0
1048,44242,0,-1,0
1049,44252,0,-1,0
1050,44262,0,-1,0
1051,44272,-1,-1,0
1052,44282,-1,-1,0
1053,44292,0,-1,0
1054,44302,0,0,0
1055,44312,0,-1,0
1056,44322,0,-1,0
1057,44332,-1,-1,0
1058,44342,-1,-1,0
1059,44352,-1,-1,0
1060,44362,0,-1,0
1061,44372,0,-1,0
1062,44382,0,-1,0
1063,44392,-1,-1,0
1064,44402,-1,-1,0
1065,44412,0,0,0
1066,44422,0,-1,0
1067,44432,-1,-1,0
1068,44442,0,-1,0
1069,44452,0,0,0
1070,44462,-1,-1,0
1071,44472,0,-1,0
1072,44482,0,0,0
1073,44492,0,-1,0
1074,44502,-1,-1,0
1075,44512,-1,-1,0
1076,44522,0,-1,0
1077,44532,0,-1,0
1078,44542,0,-1,0
1079,44552,-1,-1,0
1080,44562,0,-1,0
1081,44572,-1,0,0
1082,44582,-1,-1,0
1083,44592,0,-1,0
1084,44602,-1,-1,0
1085,44612,0,-1,0
1086,44622,0,-1,0
1087,44632,0,-1,0
1088,44642,0,-1,0
1089,44652,-1,-1,0
1090,44662,0,0,0
1091,44672,0,-1,0
1092,44682,0,0,0
1093,44692,-1,-1,0
1094,44702,0,-1,0
1095,44712,-1,-1,0
1096,44722,0,0,0
1097,44732,-1,-1,0
1098,44742,-1,-1,0
1099,44752,-1,-1,0
1100,44762,0,-1,0
1101,44772,-1,-1,0
1102,44782,0,-1,0
1103,44792,-1,-1,0
1104,44802,-1,-1,0
1105,44812,-1,0,0
1106,44822,-1,-1,0
1107,44832,0,0,0
1108,44842,0,-1,0
1109,44852,-1,0,0
1110,44862,0,-1,0
1111,44872,-1,-1,0
1112,44882,-1,0,0
1113,44892,0,0,0
1114,44902,-1,-1,0
1115,44912,-1,0,0
1116,44922,0,0,0
1117,44932,-1,-1,0
1118,44942,-1,-1,0
1119,44952,0,-1,0
1120,44962,-1,-2,0
1121,44972,0,1,0
1122,44982,-1,0,0
1123,44992,0,-1,0
1124,45002,0,0,0
1125,45012,-1,-1,0
1126,45022,0,-1,0
1127,45032,0,0,0
1128,45042,-1,-1,0
1129,45052,0,-1,0
1130,45062,-1,-1,0
1131,45072,0,0,0
1132,45082,0,-1,0
1133,45092,-1,-1,0
1134,45102,0,-2,0
1135,45112,0,-1,0
1136,45122,0,-1,0
1137,45132,-1,0,0
1138,45142,-1,-1,0
1139,45152,-1,0,0
1140,45162,0,-1,0
1141,45172,0,-2,0
1142,45182,0,0,0
1143,45192,0,-2,0
1144,45202,-1,-1,0
1145,45212,-1,-1,0
1146,45222,0,-1,0
1147,45232,0,-1,0
1148,45242,-1,-1,0
1149,45252,-1,-2,0
1150,45262,0,-1,0
1151,45272,0,-1,0
1152,45282,-1,0,0
1153,45292,0,0,0
1154,45302,0,0,0
1155,45312,0,0,0
1156,45322,-1,0,0
1157,45332,0,-1,0
1158,45342,-1,-1,0
1159,45352,0,-2,0
1160,45362,0,-1,0
1161,45372,0,-1,0
1162,45382,-1,-1,0
1163,45392,-1,-2,0
1164,45402,0,-1,0
1165,45412,-1,-2,0
1166,45422,0,-2,0
1167,45432,-1,-1,0
1168,45442,-1,-1,0
1169,45452,-1,-1,0
1170,45462,-1,-1,0
1171,45472,-1,-1,0
1172,45482,0,-1,0
1173,45492,0,-1,0
1174,45502,-1,0,0
1175,45512,0,-1,0
1176,45522,-1,-1,0
1177,45532,-1,-1,0
1178,45542,-1,-2,0
1179,45552,-1,-1,0
1180,45562,-1,-2,0
1181,45572,0,-1,0
1182,45582,-1,0,0
1183,45592,-1,0,0
1184,45602,-1,-1,0
1185,45612,0,-1,0
1186,45622,-1,-2,0
1187,45632,0,-1,0
1188,45642,-1,-1,0
1189,45652,-1,0,0
1190,45662,-1,0,0
1191,45672,0,-1,0
1192,45682,-1,-1,0
1193,45692,-1,-2,0
1194,45702,0,-1,0
1195,45712,0,-1,0
1196,45722,-1,-1,0
1197,45732,0,-2,0
1198,45742,-1,-1,0
1199,45752,0,0,0
1200,45762,-1,0,0
1201,45772,-1,0,0
1202,45782,-1,-1,0
1203,45792,0,-1,0
1204,45802,-1,0,0
1205,45812,-1,1,0
1206,45822,-1,-1,0
1207,45832,-1,-1,0
1208,45842,-1,-2,0
1209,45852,0,-2,0
1210,45862,0,-1,0
1211,45872,0,-1,0
1212,45882,-1,0,0
1213,45892,0,-1,0
1214,45902,-1,-1,0
1215,45912,-1,-1,0
1216,45922,-1,-1,0
1217,45932,-1,0,0
1218,45942,-1,0,0
1219,45952,-1,-1,0
1220,45962,0,-1,0
1221,45972,-1,-2,0
1222,45982,-1,-2,0
1223,45992,0,0,0
1224,46002,-1,-1,0
1225,46012,-1,-1,0
1226,46022,0,-1,0
1227,46032,-1,-1,0
1228,46042,0,0,0
1229,46052,0,-1,0
1230,46062,-1,-1,0
1231,46072,0,-1,0
1232,46082,-1,-1,0
1233,46092,-1,-1,0
1234,46102,0,-1,0
1235,46112,0,-1,0
1236,46122,0,-1,0
1237,46132,-1,-1,0
1238,46142,0,0,0
1239,46152,-1,-1,0
1240,46162,-1,-1,0
1241,46172,0,-1,0
1242,46182,-1,-2,0
1243,46192,-1,-1,0
1244,46202,-1,-1,0
1245,46212,-1,-1,0
1246,46222,0,-1,0
1247,46232,-1,-1,0
1248,46242,-1,-2,0
1249,46252,0,-1,0
1250,46262,-1,-1,0
1251,46272,0,-1,0
1252,46282,-1,0,0
1253,46292,-1,-1,0
1254,46302,0,-1,0
1255,46312,-1,-1,0
1256,46322,0,-1,0
1257,46332,0,-2,0
1258,46342,-1,-2,0
1259,46352,-1,-1,0
1260,46362,-1,-1,0
1261,46372,-1,-2,0
1262,46382,-1,-2,0
1263,46392,-1,-1,0
1264,46402,-1,-1,0
1265,46412,-1,-1,0
1266,46422,-1,-2,0
1267,46432,-1,-1,0
1268,46442,-1,-1,0
1269,46452,-1,-1,0
1270,46462,-1,-1,0
1271,46472,0,-1,0
1272,46482,-1,-1,0
1273,46492,-1,0,0
1274,46502,0,-1,0
1275,46512,-1,-1,0
1276,46522,-1,0,0
1277,46532,-1,-2,0
1278,46542,0,-1,0
1279,46552,-1,-1,0
1280,46562,0,-1,0
1281,46572,-1,-1,0
1282,46582,-1,-1,0
1283,46592,-1,-2,0
1284,46602,0,0,0
1285,46612,-1,0,0
1286,46622,-1,-1,0
1287,46632,0,1,0
1288,46642,-1,1,0
1289,46652,-1,0,0
1290,46662,-1,-3,0
1291,46672,0,-1,0
1292,46682,0,1,0
1293,46692,-1,-1,0
1294,46702,-1,-3,0
1295,46712,-1,-1,0
1296,46722,-1,0,0
1297,46732,-1,-2,0
1298,46742,0,-1,0
1299,46752,-1,1,0
1300,46762,-1,-1,0
1301,46772,-1,-3,0
1302,46782,-1,-1,0
1303,46792,-1,0,0
1304,46802,-1,-1,0
1305,46812,-1,-3,0
1306,46822,-1,-1,0
1307,46832,-1,-1,0
1308,46842,-1,-2,0
1309,46852,-1,0,0
1310,46862,0,0,0
1311,46872,-1,-3,0
1312,46882,0,-2,0
1313,46892,-1,0,0
1314,46902,-1,-1,0
1315,46912,0,-2,0
1316,46922,-1,-2,0
1317,46932,-1,-2,0
1318,46942,-1,-2,0
1319,46952,-1,0,0
1320,46962,-1,-3,0
1321,46972,0,-2,0
1322,46982,-1,-2,0
1323,46992,-1,-1,0
1324,47002,-1,1,0
1325,47012,-1,-1,0
1326,47022,-1,-2,0
1327,47032,0,-2,0
1328,47042,-1,-3,0
1329,47052,0,0,0
1330,47062,-1,0,0
1331,47072,0,-1,0
1332,47082,-1,-1,0
1333,47092,-1,-3,0
1334,47102,0,-1,0
1335,47112,-1,-1,0
1336,47122,0,0,0
1337,47132,-1,-1,0
1338,47142,0,-2,0
1339,47152,-1,-2,0
1340,47162,-1,-3,0
1341,47172,-1,0,0
1342,47182,-1,0,0
1343,47192,-1,0,0
1344,47202,-1,-2,0
1345,47212,-1,-3,0
1346,47222,-1,0,0
1347,47232,-1,0,0
1348,47242,-1,-1,0
1349,47252,-1,-3,0
1350,47262,-1,-2,0
1351,47272,-1,0,0
1352,47282,0,-1,0
1353,47292,-1,-2,0
1354,47302,-1,-2,0
1355,47312,-1,1,0
1356,47322,0,-1,0
1357,47332,-1,-2,0
1358,47342,-1,0,0
1359,47352,-1,-2,0
1360,47362,0,-1,0
1361,47372,-1,-1,0
1362,47382,-1,-1,0
1363,47392,0,-1,0
1364,47402,-1,-3,0
1365,47412,0,0,0
1366,47422,-1,0,0
1367,47432,-1,-1,0
1368,47442,-1,-1,0
1369,47452,-1,0,0
1370,47462,0,0,0
1371,47472,0,-1,0
1372,47482,-1,-2,0
1373,47492,-1,0,0
1374,47502,0,0,0
1375,47512,-1,-1,0
1376,47522,0,-1,0
1377,47532,0,-1,0
1378,47542,-1,-1,0
1379,47552,-1,-2,0
1380,47562,0,-1,0
1381,47572,-1,-1,0
1382,47582,-1,-1,0
1383,47592,0,-2,0
1384,47602,-1,-1,0
1385,47612,0,0,0
1386,47622,-1,-1,0
1387,47632,-1,-1,0
1388,47642,-1,-1,0
1389,47652,-1,0,0
1390,47662,0,-1,0
1391,47672,-1,-1,0
1392,47682,0,-1,0
1393,47692,-1,-1,0
1394,47702,0,-2,0
1395,47712,0,-2,0
1396,47722,0,-1,0
1397,47732,-1,-1,0
1398,47742,-1,-1,0
1399,47752,0,-2,0
1400,47762,-1,-2,0
1401,47772,-1,-2,0
1402,47782,0,0,0
1403,47792,-1,-1,0
1404,47802,0,-1,0
1405,47812,0,-1,0
1406,47822,-1,-1,0
1407,47832,-1,-1,0
1408,47842,-1,-1,0
1409,47852,-1,-2,0
1410,47862,-1,-2,0
1411,47872,-1,-1,0
1412,47882,-1,-1,0
1413,47892,-1,-1,0
1414,47902,0,-1,0
1415,47912,0,-1,0
1416,47922,0,-2,0
1417,47932,-1,-1,0
1418,47942,0,-1,0
1419,47952,-1,-1,0
1420,47962,-1,-2,0
1421,47972,0,-2,0
1422,47982,-1,-1,0
1423,47992,-1,-2,0
1424,48002,-1,-1,0
1425,48012,0,-2,0
1426,48022,-1,-1,0
1427,48032,0,-2,0
1428,48042,-1,-2,0
1429,48052,-1,-2,0
1430,48062,-1,-2,0
1431,48072,0,-1,0
1432,48082,-1,-2,0
1433,48092,-1,-1,0
1434,48102,0,-1,0
1435,48112,0,-1,0
1436,48122,-1,-1,0
1437,48132,0,-2,0
1438,48142,-1,-2,0
1439,48152,-1,-1,0
1440,48162,0,-1,0
1441,48172,0,-1,0
1442,48182,-1,-1,0
1443,48192,-1,-1,0
1444,48202,-1,-1,0
1445,48212,0,-1,0
1446,48222,0,-1,0
1447,48232,0,-1,0
1448,48242,0,-1,0
1449,48252,-1,-1,0
1450,48262,-1,-2,0
1451,48272,0,-2,0
1452,48282,0,-2,0
1453,48292,0,-1,0
1454,48302,0,-1,0
1455,48312,-1,-2,0
1456,48322,-1,-2,0
1457,48332,-1,-1,0
1458,48342,-1,-1,0
1459,48352,0,-1,0
1460,48362,0,-1,0
1461,48372,0,-1,0
1462,48382,-1,-1,0
1463,48392,-1,-1,0
1464,48402,-1,-1,0
1465,48412,-1,-1,0
1466,48422,-1,-2,0
1467,48432,-1,-1,0
1468,48442,-1,-2,0
1469,48452,0,-1,0
1470,48462,-1,-1,0
1471,48472,0,-2,0
1472,48482,0,-2,0
1473,48492,1,-2,0
1474,48502,0,-2,0
1475,48512,0,-2,0
1476,48522,-1,-2,0
1477,48532,-1,-2,0
1478,48542,-1,-2,0
1479,48552,-2,-1,0
1480,48562,-1,-1,0
1481,48572,0,-1,0
1482,48582,0,-2,0
1483,48592,0,-1,0
1484,48602,-1,-2,0
1485,48612,0,-2,0
1486,48622,-2,-2,0
1487,48632,-1,-2,0
1488,48642,-1,-1,0
1489,48652,-1,-2,0
1490,48662,0,-1,0
1491,48672,0,-2,0
1492,48682,0,-1,0
1493,48692,0,-2,0
1494,48702,0,-2,0
1495,48712,0,-1,0
1496,48722,-1,-3,0
1497,48732,-2,-2,0
1498,48742,-1,-1,0
1499,48752,0,-2,0
1500,48762,0,-1,0
1501,48772,0,-1,0
1502,48782,0,-2,0
1503,48792,0,-2,0
1504,48802,0,-1,0
1505,48812,-1,-2,0
1506,48822,0,-2,0
1507,48832,-1,-1,0
1508,48842,-1,-1,0
1509,48852,0,-1,0
1510,48862,0,-2,0
1511,48872,0,-2,0
1512,48882,-1,-1,0
1513,48892,-1,-1,0
1514,48902,0,-2,0
1515,48912,0,-1,0
1516,48922,0,-1,0
1517,48932,-1,-1,0
1518,48942,-1,-2,0
1519,48952,-1,-1,0
1520,48962,0,-1,0
1521,48972,0,-1,0
1522,48982,0,-2,0
1523,48992,-1,-1,0
1524,49002,0,-1,0
1525,49012,0,-1,0
1526,49022,-1,-1,0
1527,49032,-1,-1,0
1528,49042,-1,-1,0
1529,49052,-1,-2,0
1530,49062,0,-1,0
1531,49072,0,-2,0
1532,49082,-1,0,0
1533,49092,-1,-1,0
1534,49102,-1,-2,0
1535,49112,-1,-1,0
1536,49122,-1,-1,0
1537,49132,-1,-1,0
1538,49142,0,-2,0
1539,49152,0,-2,0
1540,49162,0,0,0
1541,49172,-1,-1,0
1542,49182,-1,0,0
1543,49192,-2,-2,0
1544,49202,-1,-2,0
1545,49212,-1,-1,0
1546,49222,-1,-2,0
1547,49232,-1,-1,0
1548,49242,-1,-1,0
1549,49252,-1,-3,0
1550,49262,0,-2,0
1551,49272,-1,0,0
1552,49282,0,-1,0
1553,49292,0,-1,0
1554,49302,0,-2,0
1555,49312,0,-2,0
1556,49322,0,-1,0
1557,49332,0,-1,0
1558,49342,0,-1,0
1559,49352,0,-2,0
1560,49362,0,-1,0
1561,49372,0,0,0
1562,49382,-1,-1,0
1563,49392,-1,-2,0
1564,49402,-1,-2,0
1565,49412,-1,-1,0
1566,49422,-1,-2,0
1567,49432,-1,-2,0
1568,49442,-1,-2,0
1569,49452,-1,-1,0
1570,49462,-1,-1,0
1571,49472,-1,-2,0
1572,49482,-1,-1,0
1573,49492,-1,-2,0
1574,49502,-1,-1,0
1575,49512,-1,-2,0
1576,49522,0,-1,0
1577,49532,0,-1,0
1578,49542,0,-1,0
1579,49552,0,-1,0
1580,49562,0,-1,0
1581,49572,0,-2,0
1582,49582,0,-1,0
1583,49592,0,-1,0
1584,49602,0,-2,0
1585,49612,-1,-1,0
1586,49622,-1,0,0
1587,49632,-1,-1,0
1588,49642,-1,-1,0
1589,49652,-1,-1,0
1590,49662,-1,-2,0
1591,49672,0,-2,0
1592,49682,0,-1,0
1593,49692,0,-1,0
1594,49702,0,-1,0
1595,49712,0,-2,0
1596,49722,0,-1,0
1597,49732,0,-2,0
1598,49742,-1,-2,0
1599,49752,0,-2,0
1600,49762,0,-1,0
1601,49772,0,-1,0
1602,49782,0,-1,0
1603,49792,-1,-1,0
1604,49802,-1,-1,0
1605,49812,-1,-2,0
1606,49822,0,-1,0
1607,49832,0,-1,0
1608,49842,-1,-1,0
1609,49852,-1,-1,0
1610,49862,-1,-1,0
1611,49872,0,-2,0
1612,49882,0,-1,0
1613,49892,0,-1,0
1614,49902,-1,-1,0
1615,49912,-1,-1,0
1616,49922,0,-1,0
1617,49932,0,-1,0
1618,49942,0,-1,0
1619,49952,-1,-1,0
1620,49962,-1,-1,0
1621,49972,0,-1,0
1622,49982,0,-2,0
1623,49992,0,-1,0
1624,50002,0,-1,0
1625,50012,-1,-2,0
1626,50022,0,-1,0
1627,50032,0,-1,0
1628,50042,0,-1,0
1629,50052,-1,-2,0
1630,50062,-1,-1,0
1631,50072,-1,-1,0
1632,50082,0,-1,0
1633,50092,0,-1,0
1634,50102,-1,-1,0
1635,50112,0,-1,0
1636,50122,-1,-1,0
1637,50132,0,-1,0
1638,50142,0,-2,0
1639,50152,0,-1,0
1640,50162,0,-1,0
1641,50172,0,-1,0
1642,50182,0,-1,0
1643,50192,-1,-1,0
1644,50202,-1,-2,0
1645,50212,-1,-2,0
1646,50222,0,-2,0
1647,50232,1,-2,0
1648,50242,0,-1,0
1649,50252,0,-1,0
1650,50262,-1,-1,0
1651,50272,-1,-1,0
1652,50282,-1,-2,0
1653,50292,-1,-2,0
1654,50302,0,-1,0
1655,50312,0,-1,0
1656,50322,0,-1,0
1657,50332,0,-1,0
1658,50342,0,-1,0
1659,50352,-1,-2,0
1660,50362,0,-1,0
1661,50372,-1,-2,0
1662,50382,0,-1,0
1663,50392,-1,-2,0
1664,50402,-1,-1,0
1665,50412,-1,-2,0
1666,50422,-1,-1,0
1667,50432,0,-1,0
1668,50442,-1,-2,0
1669,50452,0,-1,0
1670,50462,-1,-1,0
1671,50472,0,-1,0
1672,50482,0,-1,0
1673,50492,0,-1,0
1674,50502,0,-1,0
1675,50512,-1,-2,0
1676,50522,0,-1,0
1677,50532,-1,-2,0
1678,50542,0,-1,0
1679,50552,0,-1,0
1680,50562,-1,-1,0
1681,50572,-1,-1,0
1682,50582,0,-2,0
1683,50592,0,-1,0
1684,50602,-1,-1,0
1685,50612,-1,-1,0
1686,50622,-1,-1,0
1687,50632,0,-2,0
1688,50642,0,-2,0
1689,50652,0,-1,0
1690,50662,-1,-1,0
1691,50672,0,-1,0
1692,50682,0,-1,0
1693,50692,0,-1,0
1694,50702,0,-2,0
1695,50712,-1,-2,0
1696,50722,0,-2,0
1697,50732,-1,-1,0
1698,50742,-1,-1,0
1699,50752,-1,-1,0
1700,50762,-1,-1,0
1701,50772,0,-1,0
1702,50782,0,-1,0
1703,50792,0,-2,0
1704,50802,-1,-1,0
1705,50812,0,-1,0
1706,50822,0,-1,0
1707,50832,-1,-2,0
1708,50842,0,-2,0
1709,50852,-1,-2,0
1710,50862,-1,-2,0
1711,50872,0,-1,0
1712,50882,0,-1,0
1713,50892,0,-1,0
1714,50902,-1,-1,0
1715,50912,0,-2,0
1716,50922,0,-1,0
1717,50932,-1,-1,0
1718,50942,0,-1,0
1719,50952,-1,-2,0
1720,50962,-1,-2,0
1721,50972,0,-1,0
1722,50982,0,-1,0
1723,50992,0,0,0
1724,51002,-1,-2,0
1725,51012,-1,-2,0
1726,51022,0,-1,0
1727,51032,-1,-1,0
1728,51042,-1,-1,0
1729,51052,0,-1,0
1730,51062,-1,-1,0
1731,51072,0,-2,0
1732,51082,-1,-1,0
1733,51092,0,-1,0
1734,51102,0,-1,0
1735,51112,0,-1,0
1736,51122,0,-1,0
1737,51132,-1,-1,0
1738,51142,0,-2,0
1739,51152,-1,-2,0
1740,51162,0,-2,0
1741,51172,0,-1,0
1742,51182,0,-1,0
1743,51192,0,-1,0
1744,51202,-1,-1,0
1745,51212,0,-1,0
1746,51222,-1,-1,0
1747,51232,0,-1,0
1748,51242,-1,-2,0
1749,51252,0,-2,0
1750,51262,0,-2,0
1751,51272,0,-2,0
1752,51282,0,-2,0
1753,51292,-1,-1,0
1754,51302,-1,-1,0
1755,51312,0,-1,0
1756,51322,-1,0,0
1757,51332,-1,-1,0
1758,51342,0,-1,0
1759,51352,-1,0,0
1760,51362,0,-1,0
1761,51372,0,-1,0
1762,51382,-1,-1,0
1763,51392,0,-2,0
1764,51402,-1,-1,0
1765,51412,0,-1,0
1766,51422,-1,-1,0
1767,51432,-1,-2,0
1768,51442,0,-1,0
1769,51452,-1,-1,0
1770,51462,-1,-1,0
1771,51472,-1,-1,0
1772,51482,0,-1,0
1773,51492,-1,-1,0
1774,51502,0,-1,0
1775,51512,0,-1,0
1776,51522,0,-1,0
1777,51532,0,-1,0
1778,51542,-1,-2,0
1779,51552,-1,-1,0
1780,51562,-1,-1,0
1781,51572,-1,-1,0
1782,51582,0,-1,0
1783,51592,-1,-1,0
1784,51602,0,-1,0
1785,51612,0,-2,0
1786,51622,-1,-1,0
1787,51632,-1,-1,0
1788,51642,-1,-1,0
1789,51652,-1,-1,0
1790,51662,-1,-1,0
1791,51672,-1,-1,0
1792,51682,-1,-1,0
1793,51692,0,-1,0
1794,51702,-1,-1,0
1795,51712,-1,-2,0
1796,51722,-1,-1,0
1797,51732,0,-1,0
1798,51742,0,-1,0
1799,51752,0,-1,0
1800,51762,-1,-1,0
1801,51772,-1,-1,0
1802,51782,-1,-1,0
1803,51792,0,-1,0
1804,51802,-1,-1,0
1805,51812,0,-1,0
1806,51822,-1,-1,0
1807,51832,0,-1,0
1808,51842,0,-1,0
1809,51852,0,-1,0
1810,51862,-1,-1,0
1811,51872,0,-1,0
1812,51882,-1,-1,0
1813,51892,-1,-1,0
1814,51902,-1,-1,0
1815,51912,-1,-1,0
1816,51922,0,-1,0
1817,51932,-1,-1,0
1818,51942,0,-1,0
1819,51952,0,-1,0
1820,51962,-1,-1,0
1821,51972,0,-1,0
1822,51982,-1,-1,0
1823,51992,-1,-1,0
1824,52002,0,-1,0
1825,52012,0,-1,0
1826,52022,-1,-1,0
1827,52032,-1,-1,0
1828,52042,-1,-1,0
1829,52052,0,-1,0
1830,52062,0,-1,0
1831,52072,-1,-1,0
1832,52082,-1,-1,0
1833,52092,-1,-1,0
1834,52102,-1,-2,0
1835,52112,0,-1,0
1836,52122,0,-1,0
1837,52132,0,-1,0
1838,52142,0,0,0
1839,52152,0,-1,0
1840,52162,-1,-1,0
1841,52172,-1,-1,0
1842,52182,-1,-1,0
1843,52192,-1,-2,0
1844,52202,-1,-2,0
1845,52212,-1,-2,0
1846,52222,-1,-2,0
1847,52232,-1,-1,0
1848,52242,-1,-1,0
1849,52252,-1,-1,0
1850,52262,0,-1,0
1851,52272,1,-1,0
1852,52282,0,-1,0
1853,52292,-1,-1,0
1854,52302,-1,-1,0
1855,52312,-1,-1,0
1856,52322,-2,-1,0
1857,52332,-2,-1,0
1858,52342,-1,-1,0
1859,52352,0,-1,0
1860,52362,0,-1,0
1861,52372,0,-1,0
1862,52382,0,-1,0
1863,52392,-1,-1,0
1864,52402,-1,-1,0
