,ts,id,Gx,Gy,Gz,Ax,Ay,Az
0,0.0,IMU1,0.426829268292683,-4.817073170731708,0.853658536585366,-0.1982421875,-0.04296875,1.07421875
1,0.01,IMU0,11.219512195121952,-16.03658536585366,-5.0,-0.1728515625,0.041015625,1.07421875
2,0.01,IMU1,0.6097560975609757,-16.34146341463415,0.1829268292682927,-0.2119140625,-0.0537109375,1.0751953125
3,0.02,IMU0,11.219512195121952,-24.512195121951223,-4.75609756097561,-0.193359375,-0.0341796875,1.076171875
4,0.02,IMU1,0.6097560975609757,-24.390243902439025,0.48780487804878053,-0.2314453125,-0.130859375,1.076171875
5,0.03,IMU0,11.158536585365855,-19.75609756097561,-6.219512195121951,-0.2138671875,-0.0703125,1.0771484375
6,0.03,IMU1,0.7926829268292683,-19.695121951219512,-1.3414634146341464,-0.26171875,-0.162109375,1.0693359375
7,0.04,IMU0,12.073170731707318,-31.52439024390244,-7.8048780487804885,-0.2099609375,-0.0400390625,1.07421875
8,0.04,IMU1,1.402439024390244,-32.25609756097561,-2.7439024390243905,-0.2392578125,-0.12890625,1.0732421875
9,0.05,IMU0,11.463414634146343,-34.451219512195124,-1.0365853658536586,-0.1162109375,-0.00390625,1.08203125
10,0.05,IMU1,0.5487804878048781,-33.90243902439025,4.51219512195122,-0.138671875,-0.0966796875,1.0830078125
11,0.06,IMU0,10.853658536585368,-16.28048780487805,5.2439024390243905,-0.0078125,0.02734375,1.0830078125
12,0.06,IMU1,-0.1829268292682927,-14.756097560975611,11.097560975609756,-0.0380859375,-0.0654296875,1.087890625
13,0.07,IMU0,11.646341463414634,8.048780487804878,7.560975609756098,0.0546875,0.27734375,1.0849609375
14,0.07,IMU1,0.7926829268292683,9.695121951219512,13.902439024390246,0.0244140625,0.1982421875,1.095703125
15,0.08,IMU0,10.731707317073171,24.695121951219516,4.390243902439025,0.0673828125,0.2783203125,1.08984375
16,0.08,IMU1,0.24390243902439027,24.81707317073171,11.158536585365855,0.01171875,0.18359375,1.1015625
17,0.09,IMU0,11.158536585365855,27.439024390243905,-5.731707317073171,-0.029296875,0.21484375,1.087890625
18,0.09,IMU1,1.1585365853658538,28.292682926829272,0.5487804878048781,-0.08203125,0.115234375,1.09375
19,0.1,IMU0,11.829268292682928,21.097560975609756,-9.939024390243903,-0.103515625,0.1064453125,1.0908203125
20,0.1,IMU1,1.7682926829268295,22.378048780487806,-4.146341463414634,-0.1455078125,0.0078125,1.0888671875
21,0.11,IMU0,11.585365853658537,11.890243902439025,-10.24390243902439,-0.1083984375,0.052734375,1.0849609375
22,0.11,IMU1,1.6463414634146343,12.926829268292684,-4.695121951219512,-0.1455078125,-0.04296875,1.0849609375
23,0.12,IMU0,11.219512195121952,3.7195121951219514,-9.939024390243903,-0.107421875,0.0322265625,1.080078125
24,0.12,IMU1,1.0975609756097562,4.634146341463415,-4.573170731707317,-0.1435546875,-0.060546875,1.080078125
25,0.13,IMU0,10.975609756097562,-2.804878048780488,-8.292682926829269,-0.1162109375,0.0419921875,1.080078125
26,0.13,IMU1,0.7317073170731708,-2.1341463414634148,-2.987804878048781,-0.15234375,-0.048828125,1.0810546875
27,0.14,IMU0,10.792682926829269,-6.829268292682928,-6.951219512195123,-0.1083984375,0.0537109375,1.080078125
28,0.14,IMU1,0.5487804878048781,-6.341463414634147,-1.6463414634146343,-0.14453125,-0.0380859375,1.0830078125
29,0.15,IMU0,10.975609756097562,-7.500000000000001,-6.341463414634147,-0.08984375,0.060546875,1.0849609375
30,0.15,IMU1,0.6097560975609757,-7.25609756097561,-0.853658536585366,-0.12890625,-0.03125,1.0869140625
31,0.16,IMU0,11.219512195121952,-2.1341463414634148,-5.914634146341464,-0.068359375,0.0625,1.0888671875
32,0.16,IMU1,0.7317073170731708,-1.9512195121951221,-0.3658536585365854,-0.1064453125,-0.0302734375,1.08984375
33,0.17,IMU0,11.28048780487805,8.353658536585366,-5.060975609756098,-0.0390625,0.0751953125,1.095703125
34,0.17,IMU1,0.853658536585366,8.597560975609756,0.6097560975609757,-0.0771484375,-0.0185546875,1.099609375
35,0.18,IMU0,11.097560975609756,23.658536585365855,-3.353658536585366,-0.0419921875,0.0791015625,1.08984375
36,0.18,IMU1,0.853658536585366,24.02439024390244,2.804878048780488,-0.078125,-0.0166015625,1.0947265625
37,0.19,IMU0,10.487804878048781,27.31707317073171,0.48780487804878053,-0.056640625,0.1083984375,1.0966796875
38,0.19,IMU1,0.24390243902439027,27.926829268292686,6.7682926829268295,-0.0869140625,0.0146484375,1.1005859375
39,0.2,IMU0,8.597560975609756,4.207317073170732,12.256097560975611,-0.0419921875,0.091796875,1.0927734375
40,0.2,IMU1,-2.3170731707317076,4.817073170731708,18.04878048780488,-0.0654296875,0.0029296875,1.0986328125
41,0.21,IMU0,5.975609756097562,-19.207317073170735,26.09756097560976,0.1064453125,0.095703125,1.1240234375
42,0.21,IMU1,-5.609756097560976,-19.634146341463417,31.646341463414636,0.0869140625,0.001953125,1.13671875
43,0.22,IMU0,-2.9268292682926833,-34.87804878048781,40.0,0.2001953125,0.0546875,1.251953125
44,0.22,IMU1,-15.426829268292684,-35.73170731707317,45.73170731707317,0.1640625,-0.04296875,1.265625
45,0.23,IMU0,-17.5,-53.35365853658537,33.170731707317074,0.216796875,-0.0078125,1.4052734375
46,0.23,IMU1,-30.243902439024392,-53.84146341463415,38.65853658536586,0.1474609375,-0.11328125,1.431640625
47,0.24,IMU0,-38.963414634146346,-83.29268292682927,11.341463414634147,0.1357421875,0.0458984375,1.6455078125
48,0.24,IMU1,-52.13414634146342,-83.47560975609757,15.487804878048783,0.0595703125,-0.0703125,1.67578125
49,0.25,IMU0,-59.81707317073171,-126.21951219512196,-2.1951219512195124,-0.078125,0.123046875,1.9501953125
50,0.25,IMU1,-73.78048780487805,-126.28048780487806,0.1829268292682927,-0.1435546875,0.0,1.9697265625
51,0.26,IMU0,-70.42682926829269,-173.59756097560978,-1.524390243902439,-0.3134765625,0.0966796875,2.2197265625
52,0.26,IMU1,-85.42682926829269,-174.32926829268294,-0.3658536585365854,-0.3759765625,-0.033203125,2.2236328125
53,0.27,IMU0,-72.31707317073172,-205.91463414634148,3.7195121951219514,-0.3984375,0.0869140625,2.42578125
54,0.27,IMU1,-87.8658536585366,-207.56097560975613,4.2682926829268295,-0.4716796875,-0.0537109375,2.421875
55,0.28,IMU0,-69.14634146341464,-223.0487804878049,12.01219512195122,-0.34765625,0.203125,2.6728515625
56,0.28,IMU1,-85.00000000000001,-225.2439024390244,12.134146341463415,-0.419921875,0.0498046875,2.6650390625
57,0.29,IMU0,-56.646341463414636,-234.39024390243904,28.59756097560976,-0.2607421875,0.34375,2.8994140625
58,0.29,IMU1,-72.5,-237.31707317073173,28.84146341463415,-0.3291015625,0.1826171875,2.8857421875
59,0.3,IMU0,-30.000000000000004,-261.70731707317077,49.024390243902445,-0.15625,0.33984375,3.0390625
60,0.3,IMU1,-45.670731707317074,-265.4268292682927,49.39024390243903,-0.2314453125,0.1767578125,3.01953125
61,0.31,IMU0,8.719512195121952,-252.07317073170734,62.6829268292683,0.103515625,0.181640625,3.00390625
62,0.31,IMU1,-5.914634146341464,-257.19512195121956,64.08536585365854,0.0185546875,0.017578125,2.974609375
63,0.32,IMU0,50.60975609756098,-189.93902439024393,65.54878048780489,0.265625,0.0927734375,2.9072265625
64,0.32,IMU1,38.04878048780488,-194.93902439024393,68.90243902439025,0.16796875,-0.0712890625,2.880859375
65,0.33,IMU0,83.78048780487805,-109.81707317073172,53.84146341463415,0.2841796875,0.1328125,2.892578125
66,0.33,IMU1,73.71951219512195,-113.71951219512196,59.085365853658544,0.1796875,-0.03125,2.8828125
67,0.34,IMU0,104.20731707317074,-47.926829268292686,38.90243902439025,0.2001953125,0.1435546875,2.8876953125
68,0.34,IMU1,95.79268292682927,-50.36585365853659,45.487804878048784,0.0908203125,-0.017578125,2.8876953125
69,0.35,IMU0,116.70731707317074,-11.158536585365855,16.646341463414636,0.1181640625,0.0400390625,2.7802734375
70,0.35,IMU1,109.69512195121952,-12.317073170731708,23.719512195121954,0.001953125,-0.1142578125,2.78125
71,0.36,IMU0,124.26829268292684,14.085365853658537,-9.207317073170733,0.099609375,-0.072265625,2.544921875
72,0.36,IMU1,118.65853658536587,13.963414634146343,-2.1341463414634148,-0.009765625,-0.21875,2.546875
73,0.37,IMU0,127.37804878048782,41.890243902439025,-29.695121951219516,0.10546875,-0.078125,2.2333984375
74,0.37,IMU1,122.62195121951221,42.6829268292683,-22.378048780487806,0.013671875,-0.2138671875,2.2421875
75,0.38,IMU0,124.63414634146342,68.35365853658537,-43.84146341463415,0.1328125,-0.0751953125,1.9287109375
76,0.38,IMU1,120.48780487804879,69.93902439024392,-36.40243902439025,0.0537109375,-0.2001953125,1.939453125
77,0.39,IMU0,119.39024390243904,91.03658536585367,-55.79268292682927,0.18359375,-0.0810546875,1.6650390625
78,0.39,IMU1,115.54878048780489,93.23170731707317,-48.41463414634147,0.1142578125,-0.197265625,1.677734375
79,0.4,IMU0,115.48780487804879,109.02439024390245,-62.37804878048781,0.21875,-0.095703125,1.4384765625
80,0.4,IMU1,111.76829268292684,111.76829268292684,-55.91463414634147,0.1640625,-0.203125,1.4462890625
81,0.41,IMU0,117.50000000000001,127.07317073170732,-63.29268292682927,0.2099609375,-0.107421875,1.2666015625
82,0.41,IMU1,113.96341463414635,129.9390243902439,-55.426829268292686,0.166015625,-0.20703125,1.265625
83,0.42,IMU0,123.04878048780489,121.58536585365854,-60.00000000000001,0.1728515625,-0.0947265625,1.15625
84,0.42,IMU1,119.39024390243904,124.45121951219514,-51.89024390243903,0.130859375,-0.1904296875,1.1552734375
85,0.43,IMU0,131.40243902439025,118.23170731707319,-55.97560975609757,0.228515625,-0.125,1.078125
86,0.43,IMU1,127.6829268292683,120.85365853658537,-47.804878048780495,0.1904296875,-0.2158203125,1.0703125
87,0.44,IMU0,141.40243902439025,115.1829268292683,-52.31707317073171,0.3154296875,-0.1689453125,0.9619140625
88,0.44,IMU1,138.53658536585368,117.50000000000001,-44.32926829268293,0.2802734375,-0.25390625,0.951171875
89,0.45,IMU0,153.2926829268293,115.97560975609757,-48.10975609756098,0.3447265625,-0.2177734375,0.8037109375
90,0.45,IMU1,150.5487804878049,118.17073170731709,-39.81707317073171,0.3154296875,-0.298828125,0.7900390625
91,0.46,IMU0,164.32926829268294,123.96341463414635,-42.07317073170732,0.3134765625,-0.2705078125,0.6416015625
92,0.46,IMU1,161.89024390243904,126.03658536585367,-33.35365853658537,0.2880859375,-0.3447265625,0.625
93,0.47,IMU0,173.41463414634148,128.35365853658539,-35.426829268292686,0.2392578125,-0.30859375,0.4873046875
94,0.47,IMU1,171.28048780487805,130.1219512195122,-26.52439024390244,0.2177734375,-0.3740234375,0.470703125
95,0.48,IMU0,179.57317073170734,121.09756097560977,-30.60975609756098,0.17578125,-0.3310546875,0.302734375
96,0.48,IMU1,177.25609756097563,122.6829268292683,-21.76829268292683,0.15625,-0.3896484375,0.291015625
97,0.49,IMU0,184.14634146341464,111.09756097560977,-20.0,0.119140625,-0.376953125,0.0830078125
98,0.49,IMU1,181.52439024390245,112.37804878048782,-11.036585365853659,0.12109375,-0.4267578125,0.06640625
99,0.5,IMU0,187.9268292682927,100.54878048780489,-4.634146341463415,0.0927734375,-0.37890625,-0.1083984375
100,0.5,IMU1,184.87804878048783,100.91463414634147,4.51219512195122,0.1025390625,-0.4189453125,-0.123046875
101,0.51,IMU0,189.32926829268294,74.39024390243902,14.02439024390244,0.0810546875,-0.35546875,-0.255859375
102,0.51,IMU1,185.4878048780488,73.59756097560977,23.231707317073173,0.1015625,-0.388671875,-0.267578125
103,0.52,IMU0,189.08536585365854,38.90243902439025,32.926829268292686,0.1318359375,-0.37109375,-0.3681640625
104,0.52,IMU1,184.26829268292684,37.25609756097561,41.890243902439025,0.146484375,-0.4033203125,-0.376953125
105,0.53,IMU0,182.43902439024393,5.182926829268293,38.170731707317074,0.19921875,-0.353515625,-0.4091796875
106,0.53,IMU1,177.01219512195124,3.1097560975609757,46.28048780487805,0.1982421875,-0.3857421875,-0.4033203125
107,0.54,IMU0,164.75609756097563,-18.84146341463415,30.975609756097565,0.23046875,-0.2587890625,-0.416015625
108,0.54,IMU1,158.78048780487805,-20.79268292682927,38.170731707317074,0.2216796875,-0.2919921875,-0.396484375
109,0.55,IMU0,140.85365853658539,-27.195121951219516,21.219512195121954,0.1796875,-0.1298828125,-0.3056640625
110,0.55,IMU1,133.90243902439025,-28.902439024390247,27.80487804878049,0.16796875,-0.16796875,-0.2763671875
111,0.56,IMU0,115.42682926829269,-43.04878048780488,16.951219512195124,0.1015625,0.01171875,-0.1083984375
112,0.56,IMU1,107.6219512195122,-44.81707317073171,22.865853658536587,0.0947265625,-0.033203125,-0.07421875
113,0.57,IMU0,95.60975609756099,-64.39024390243902,19.634146341463417,0.0302734375,0.0927734375,0.03125
114,0.57,IMU1,87.01219512195122,-66.46341463414635,25.000000000000004,0.0263671875,0.0419921875,0.056640625
115,0.58,IMU0,83.84146341463415,-77.7439024390244,26.03658536585366,-0.0244140625,0.1064453125,0.1337890625
116,0.58,IMU1,74.57317073170732,-80.3658536585366,31.402439024390247,-0.02734375,0.052734375,0.1494140625
117,0.59,IMU0,77.8658536585366,-75.67073170731707,32.987804878048784,-0.0537109375,0.1015625,0.1748046875
118,0.59,IMU1,68.23170731707317,-77.7439024390244,38.47560975609756,-0.060546875,0.046875,0.1845703125
119,0.6,IMU0,72.6219512195122,-55.487804878048784,36.890243902439025,-0.0693359375,0.134765625,0.166015625
120,0.6,IMU1,63.10975609756098,-57.13414634146342,42.743902439024396,-0.080078125,0.080078125,0.1767578125
121,0.61,IMU0,64.08536585365854,-30.914634146341466,37.19512195121951,-0.0693359375,0.1806640625,0.150390625
122,0.61,IMU1,54.085365853658544,-32.25609756097561,43.47560975609756,-0.0810546875,0.1279296875,0.1669921875
123,0.62,IMU0,51.463414634146346,-14.878048780487806,36.768292682926834,-0.048828125,0.244140625,0.146484375
124,0.62,IMU1,40.85365853658537,-16.28048780487805,43.29268292682927,-0.0615234375,0.1923828125,0.169921875
125,0.63,IMU0,35.1829268292683,-12.865853658536587,35.609756097560975,-0.0107421875,0.2978515625,0.15625
126,0.63,IMU1,23.658536585365855,-14.26829268292683,42.01219512195122,-0.02734375,0.2451171875,0.1865234375
127,0.64,IMU0,18.53658536585366,-19.512195121951223,30.0609756097561,0.044921875,0.263671875,0.19140625
128,0.64,IMU1,6.52439024390244,-20.914634146341466,35.79268292682927,0.021484375,0.2060546875,0.2177734375
129,0.65,IMU0,5.914634146341464,-33.963414634146346,19.085365853658537,0.109375,0.23046875,0.2265625
130,0.65,IMU1,-6.097560975609756,-35.1829268292683,24.02439024390244,0.0830078125,0.171875,0.244140625
131,0.66,IMU0,-3.1097560975609757,-48.23170731707317,8.292682926829269,0.166015625,0.279296875,0.236328125
132,0.66,IMU1,-15.30487804878049,-49.024390243902445,12.682926829268293,0.14453125,0.2216796875,0.25390625
133,0.67,IMU0,-9.085365853658537,-52.43902439024391,2.25609756097561,0.216796875,0.373046875,0.25390625
134,0.67,IMU1,-21.097560975609756,-52.6829268292683,6.463414634146342,0.203125,0.314453125,0.2744140625
135,0.68,IMU0,-11.158536585365855,-44.451219512195124,2.7439024390243905,0.26953125,0.4521484375,0.2900390625
136,0.68,IMU1,-23.170731707317074,-44.390243902439025,7.317073170731708,0.26171875,0.3916015625,0.3125
137,0.69,IMU0,-9.207317073170733,-29.451219512195124,7.378048780487806,0.29296875,0.474609375,0.3486328125
138,0.69,IMU1,-21.097560975609756,-29.207317073170735,12.500000000000002,0.283203125,0.41015625,0.3701171875
139,0.7,IMU0,-5.548780487804878,-13.719512195121952,12.01219512195122,0.28125,0.462890625,0.40625
140,0.7,IMU1,-17.439024390243905,-13.536585365853659,17.5609756097561,0.2685546875,0.396484375,0.4287109375
141,0.71,IMU0,-3.1707317073170733,-0.30487804878048785,15.121951219512196,0.2392578125,0.4541015625,0.4697265625
142,0.71,IMU1,-15.060975609756099,-0.24390243902439027,21.097560975609756,0.2236328125,0.38671875,0.490234375
143,0.72,IMU0,-4.695121951219512,7.195121951219513,17.5609756097561,0.203125,0.4541015625,0.5205078125
144,0.72,IMU1,-16.76829268292683,7.195121951219513,23.719512195121954,0.1845703125,0.3818359375,0.5458984375
145,0.73,IMU0,-9.390243902439025,9.756097560975611,17.378048780487806,0.18359375,0.4287109375,0.5478515625
146,0.73,IMU1,-21.646341463414636,9.695121951219512,23.53658536585366,0.16015625,0.3544921875,0.5732421875
147,0.74,IMU0,-15.731707317073171,9.451219512195122,15.609756097560977,0.177734375,0.4091796875,0.5673828125
148,0.74,IMU1,-27.621951219512198,9.51219512195122,21.646341463414636,0.1552734375,0.3359375,0.591796875
149,0.75,IMU0,-21.28048780487805,11.52439024390244,13.597560975609758,0.1787109375,0.40234375,0.5693359375
150,0.75,IMU1,-33.90243902439025,11.890243902439025,19.512195121951223,0.154296875,0.330078125,0.5947265625
151,0.76,IMU0,-26.707317073170735,17.865853658536587,11.707317073170733,0.1650390625,0.408203125,0.5927734375
152,0.76,IMU1,-39.57317073170732,18.414634146341466,17.865853658536587,0.140625,0.337890625,0.6181640625
153,0.77,IMU0,-31.280487804878053,24.207317073170735,11.28048780487805,0.1513671875,0.4296875,0.6279296875
154,0.77,IMU1,-44.32926829268293,24.878048780487806,17.5609756097561,0.125,0.3564453125,0.654296875
155,0.78,IMU0,-35.426829268292686,29.695121951219516,10.731707317073171,0.1435546875,0.4580078125,0.6708984375
156,0.78,IMU1,-48.47560975609756,30.365853658536587,16.951219512195124,0.115234375,0.3828125,0.6943359375
157,0.79,IMU0,-38.65853658536586,33.71951219512196,9.207317073170733,0.1416015625,0.482421875,0.7099609375
158,0.79,IMU1,-51.646341463414636,34.451219512195124,15.426829268292684,0.11328125,0.4052734375,0.7333984375
159,0.8,IMU0,-40.1829268292683,36.646341463414636,7.378048780487806,0.1494140625,0.4873046875,0.7421875
160,0.8,IMU1,-53.17073170731708,37.5609756097561,13.719512195121952,0.1220703125,0.4091796875,0.7646484375
161,0.81,IMU0,-40.73170731707317,39.451219512195124,5.060975609756098,0.1796875,0.48046875,0.7578125
162,0.81,IMU1,-53.65853658536586,40.60975609756098,11.402439024390246,0.1533203125,0.3994140625,0.77734375
163,0.82,IMU0,-40.1219512195122,44.75609756097561,2.1951219512195124,0.2001953125,0.4501953125,0.78515625
164,0.82,IMU1,-52.926829268292686,45.85365853658537,8.475609756097562,0.169921875,0.3681640625,0.8037109375
165,0.83,IMU0,-38.71951219512196,46.58536585365854,-1.0975609756097562,0.2099609375,0.419921875,0.8046875
166,0.83,IMU1,-51.21951219512196,47.6829268292683,5.0,0.1767578125,0.3369140625,0.8203125
167,0.84,IMU0,-38.35365853658537,45.73170731707317,-4.329268292682928,0.1826171875,0.40234375,0.8251953125
168,0.84,IMU1,-50.36585365853659,46.58536585365854,1.7682926829268295,0.1513671875,0.3203125,0.84375
169,0.85,IMU0,-39.08536585365854,40.91463414634147,-4.878048780487806,0.1279296875,0.3955078125,0.8515625
170,0.85,IMU1,-51.463414634146346,41.707317073170735,1.2195121951219514,0.099609375,0.3115234375,0.8701171875
171,0.86,IMU0,-42.31707317073171,33.53658536585366,-2.7439024390243905,0.07421875,0.380859375,0.8828125
172,0.86,IMU1,-55.0609756097561,34.146341463414636,3.353658536585366,0.046875,0.296875,0.900390625
173,0.87,IMU0,-46.40243902439025,26.34146341463415,0.5487804878048781,0.0517578125,0.35546875,0.8955078125
174,0.87,IMU1,-59.57317073170732,26.89024390243903,6.646341463414635,0.025390625,0.271484375,0.9130859375
175,0.88,IMU0,-50.0609756097561,22.743902439024392,4.207317073170732,0.052734375,0.341796875,0.9013671875
176,0.88,IMU1,-63.47560975609757,23.29268292682927,10.365853658536587,0.02734375,0.2578125,0.9208984375
177,0.89,IMU0,-52.37804878048781,20.670731707317074,8.963414634146343,0.0537109375,0.3525390625,0.9140625
178,0.89,IMU1,-65.85365853658537,20.975609756097562,15.060975609756099,0.029296875,0.267578125,0.93359375
179,0.9,IMU0,-52.50000000000001,16.463414634146343,14.817073170731708,0.076171875,0.376953125,0.92578125
180,0.9,IMU1,-66.28048780487805,16.402439024390244,21.097560975609756,0.0537109375,0.29296875,0.943359375
181,0.91,IMU0,-51.03658536585366,11.585365853658537,21.463414634146343,0.125,0.3994140625,0.9287109375
182,0.91,IMU1,-64.69512195121952,11.097560975609756,27.926829268292686,0.1015625,0.3154296875,0.94140625
183,0.92,IMU0,-47.07317073170732,9.451219512195122,27.743902439024392,0.173828125,0.4091796875,0.92578125
184,0.92,IMU1,-61.15853658536586,8.902439024390244,33.78048780487805,0.146484375,0.32421875,0.9384765625
185,0.93,IMU0,-43.170731707317074,11.463414634146343,30.0609756097561,0.2041015625,0.396484375,0.927734375
186,0.93,IMU1,-57.25609756097561,10.853658536585368,36.524390243902445,0.171875,0.3095703125,0.94140625
187,0.94,IMU0,-40.670731707317074,15.609756097560977,29.451219512195124,0.208984375,0.3603515625,0.9365234375
188,0.94,IMU1,-54.57317073170732,15.060975609756099,35.91463414634147,0.171875,0.2724609375,0.9501953125
189,0.95,IMU0,-39.63414634146342,18.353658536585368,26.03658536585366,0.189453125,0.3115234375,0.9541015625
190,0.95,IMU1,-53.17073170731708,18.10975609756098,32.6829268292683,0.1484375,0.2236328125,0.9677734375
191,0.96,IMU0,-39.207317073170735,17.865853658536587,21.28048780487805,0.1640625,0.2822265625,0.9755859375
192,0.96,IMU1,-52.6829268292683,17.926829268292686,27.865853658536587,0.1259765625,0.1962890625,0.9853515625
193,0.97,IMU0,-38.90243902439025,15.731707317073171,17.195121951219512,0.1435546875,0.28125,0.998046875
194,0.97,IMU1,-52.13414634146342,16.097560975609756,23.59756097560976,0.1064453125,0.1953125,1.009765625
195,0.98,IMU0,-38.41463414634147,11.646341463414634,15.121951219512196,0.119140625,0.294921875,1.0283203125
196,0.98,IMU1,-51.585365853658544,11.951219512195124,21.158536585365855,0.0830078125,0.2060546875,1.0439453125
197,0.99,IMU0,-38.04878048780488,7.195121951219513,13.78048780487805,0.087890625,0.298828125,1.0595703125
198,0.99,IMU1,-51.21951219512196,7.439024390243903,19.75609756097561,0.0517578125,0.2099609375,1.072265625
199,1.0,IMU0,-38.10975609756098,1.8902439024390245,13.353658536585368,0.0400390625,0.2919921875,1.080078125
200,1.0,IMU1,-51.15853658536586,2.1341463414634148,19.02439024390244,0.0048828125,0.203125,1.0927734375
201,1.01,IMU0,-37.31707317073171,0.06097560975609757,14.085365853658537,0.0146484375,0.28125,1.087890625
202,1.01,IMU1,-50.426829268292686,0.06097560975609757,19.878048780487806,-0.0234375,0.19140625,1.0986328125
203,1.02,IMU0,-35.85365853658537,2.5609756097560976,14.51219512195122,0.0146484375,0.26953125,1.091796875
204,1.02,IMU1,-49.024390243902445,2.378048780487805,20.243902439024392,-0.0244140625,0.1796875,1.1005859375
205,1.03,IMU0,-34.93902439024391,3.414634146341464,15.000000000000002,0.0302734375,0.2626953125,1.087890625
206,1.03,IMU1,-48.170731707317074,3.414634146341464,20.853658536585368,-0.0078125,0.171875,1.0986328125
207,1.04,IMU0,-35.0,1.2804878048780488,16.463414634146343,0.04296875,0.265625,1.083984375
208,1.04,IMU1,-48.04878048780488,1.3414634146341464,22.25609756097561,0.0078125,0.1728515625,1.0966796875
209,1.05,IMU0,-35.0,-2.5,18.597560975609756,0.0537109375,0.267578125,1.087890625
210,1.05,IMU1,-48.23170731707317,-2.5,24.26829268292683,0.017578125,0.1767578125,1.0986328125
211,1.06,IMU0,-33.71951219512196,-4.695121951219512,19.512195121951223,0.0693359375,0.2646484375,1.0888671875
212,1.06,IMU1,-47.19512195121952,-4.817073170731708,25.182926829268293,0.029296875,0.173828125,1.1005859375
213,1.07,IMU0,-31.646341463414636,-3.353658536585366,18.475609756097562,0.0908203125,0.2724609375,1.0859375
214,1.07,IMU1,-45.00000000000001,-3.5975609756097566,24.207317073170735,0.048828125,0.1796875,1.0986328125
215,1.08,IMU0,-30.000000000000004,0.853658536585366,15.914634146341465,0.10546875,0.2841796875,1.078125
216,1.08,IMU1,-42.86585365853659,0.5487804878048781,21.76829268292683,0.064453125,0.1923828125,1.091796875
217,1.09,IMU0,-29.207317073170735,5.7926829268292686,11.52439024390244,0.1083984375,0.291015625,1.0673828125
218,1.09,IMU1,-41.951219512195124,5.670731707317073,17.621951219512198,0.06640625,0.2001953125,1.0810546875
219,1.1,IMU0,-28.902439024390247,10.426829268292684,5.853658536585367,0.1025390625,0.3037109375,1.068359375
220,1.1,IMU1,-41.524390243902445,10.670731707317074,11.890243902439025,0.060546875,0.2119140625,1.08203125
221,1.11,IMU0,-28.353658536585368,13.414634146341465,0.7926829268292683,0.091796875,0.3125,1.0888671875
222,1.11,IMU1,-40.79268292682927,13.902439024390246,6.585365853658537,0.0517578125,0.2197265625,1.0986328125
223,1.12,IMU0,-25.975609756097562,14.695121951219514,-2.25609756097561,0.0830078125,0.306640625,1.1015625
224,1.12,IMU1,-38.35365853658537,15.30487804878049,3.658536585365854,0.044921875,0.2119140625,1.1103515625
225,1.13,IMU0,-22.012195121951223,17.98780487804878,-2.9268292682926833,0.0751953125,0.2919921875,1.1044921875
226,1.13,IMU1,-33.78048780487805,18.53658536585366,2.9268292682926833,0.03515625,0.1982421875,1.111328125
227,1.14,IMU0,-15.975609756097562,22.378048780487806,-2.6219512195121952,0.060546875,0.27734375,1.1123046875
228,1.14,IMU1,-27.621951219512198,22.926829268292686,3.1707317073170733,0.0234375,0.181640625,1.1181640625
229,1.15,IMU0,-8.902439024390244,23.414634146341466,-0.3658536585365854,0.0419921875,0.265625,1.1259765625
230,1.15,IMU1,-20.182926829268293,23.963414634146343,5.670731707317073,0.0078125,0.1689453125,1.1298828125
231,1.16,IMU0,-1.9512195121951221,22.31707317073171,3.8414634146341466,0.0205078125,0.25390625,1.142578125
232,1.16,IMU1,-13.29268292682927,22.621951219512198,10.121951219512196,-0.0126953125,0.1572265625,1.1455078125
233,1.17,IMU0,2.987804878048781,19.085365853658537,8.841463414634147,-0.0087890625,0.248046875,1.185546875
234,1.17,IMU1,-8.353658536585366,19.390243902439025,15.182926829268293,-0.0439453125,0.150390625,1.1875
235,1.18,IMU0,5.121951219512195,15.000000000000002,12.987804878048781,-0.0302734375,0.248046875,1.220703125
236,1.18,IMU1,-6.219512195121951,15.121951219512196,19.390243902439025,-0.0673828125,0.150390625,1.2265625
237,1.19,IMU0,4.390243902439025,14.817073170731708,14.085365853658537,-0.0478515625,0.2490234375,1.251953125
238,1.19,IMU1,-7.01219512195122,14.878048780487806,20.48780487804878,-0.091796875,0.150390625,1.263671875
239,1.2,IMU0,0.5487804878048781,17.926829268292686,10.548780487804878,-0.0732421875,0.2412109375,1.2744140625
240,1.2,IMU1,-10.548780487804878,18.10975609756098,16.951219512195124,-0.123046875,0.1435546875,1.2861328125
241,1.21,IMU0,-4.329268292682928,21.158536585365855,2.804878048780488,-0.10546875,0.240234375,1.2802734375
242,1.21,IMU1,-15.426829268292684,21.585365853658537,9.146341463414634,-0.1572265625,0.142578125,1.294921875
243,1.22,IMU0,-9.756097560975611,21.646341463414636,-4.573170731707317,-0.1279296875,0.2529296875,1.271484375
244,1.22,IMU1,-20.731707317073173,22.439024390243905,1.2195121951219514,-0.1787109375,0.1552734375,1.2880859375
245,1.23,IMU0,-13.78048780487805,20.0609756097561,-9.51219512195122,-0.12890625,0.25390625,1.2578125
246,1.23,IMU1,-25.0609756097561,21.158536585365855,-3.780487804878049,-0.17578125,0.1572265625,1.26953125
247,1.24,IMU0,-15.914634146341465,18.10975609756098,-10.609756097560977,-0.10546875,0.240234375,1.23046875
248,1.24,IMU1,-27.012195121951223,19.146341463414636,-5.060975609756098,-0.1494140625,0.14453125,1.2412109375
249,1.25,IMU0,-15.426829268292684,15.79268292682927,-8.902439024390244,-0.0771484375,0.21875,1.2041015625
250,1.25,IMU1,-26.52439024390244,16.646341463414636,-3.353658536585366,-0.1181640625,0.1240234375,1.2119140625
251,1.26,IMU0,-12.926829268292684,12.560975609756099,-5.487804878048781,-0.0439453125,0.2119140625,1.1826171875
252,1.26,IMU1,-24.02439024390244,13.170731707317074,0.1829268292682927,-0.0810546875,0.1171875,1.1884765625
253,1.27,IMU0,-9.390243902439025,9.085365853658537,-1.524390243902439,-0.009765625,0.2138671875,1.1650390625
254,1.27,IMU1,-20.60975609756098,9.451219512195122,4.207317073170732,-0.046875,0.119140625,1.169921875
255,1.28,IMU0,-5.2439024390243905,6.341463414634147,1.5853658536585367,0.0078125,0.22265625,1.15234375
256,1.28,IMU1,-16.646341463414636,6.585365853658537,7.439024390243903,-0.03125,0.12890625,1.15625
257,1.29,IMU0,-2.0121951219512195,2.682926829268293,2.25609756097561,-0.0009765625,0.236328125,1.154296875
258,1.29,IMU1,-13.231707317073171,2.8658536585365857,8.048780487804878,-0.04296875,0.142578125,1.1611328125
259,1.3,IMU0,1.0975609756097562,-2.682926829268293,1.5853658536585367,-0.0205078125,0.2470703125,1.1669921875
260,1.3,IMU1,-10.182926829268293,-2.439024390243903,7.25609756097561,-0.0615234375,0.1513671875,1.171875
261,1.31,IMU0,3.8414634146341466,-7.743902439024391,1.5853658536585367,-0.044921875,0.244140625,1.1748046875
262,1.31,IMU1,-7.25609756097561,-7.560975609756098,7.134146341463415,-0.083984375,0.1474609375,1.1806640625
263,1.32,IMU0,6.402439024390245,-9.939024390243903,1.707317073170732,-0.0634765625,0.2333984375,1.1806640625
264,1.32,IMU1,-4.878048780487806,-9.817073170731708,7.378048780487806,-0.103515625,0.138671875,1.185546875
265,1.33,IMU0,7.560975609756098,-10.060975609756099,1.8902439024390245,-0.083984375,0.224609375,1.1748046875
266,1.33,IMU1,-3.536585365853659,-9.939024390243903,7.500000000000001,-0.125,0.1298828125,1.1865234375
267,1.34,IMU0,7.439024390243903,-7.987804878048781,0.24390243902439027,-0.0888671875,0.2138671875,1.173828125
268,1.34,IMU1,-3.353658536585366,-7.8048780487804885,5.914634146341464,-0.1298828125,0.1171875,1.1845703125
269,1.35,IMU0,7.195121951219513,-5.731707317073171,-1.829268292682927,-0.083984375,0.205078125,1.1552734375
270,1.35,IMU1,-3.658536585365854,-5.548780487804878,3.780487804878049,-0.1259765625,0.1103515625,1.166015625
271,1.36,IMU0,6.158536585365854,-2.5,-3.963414634146342,-0.0810546875,0.2001953125,1.1328125
272,1.36,IMU1,-4.451219512195122,-2.1951219512195124,1.524390243902439,-0.123046875,0.107421875,1.142578125
273,1.37,IMU0,5.365853658536586,1.6463414634146343,-6.097560975609756,-0.080078125,0.1962890625,1.1083984375
274,1.37,IMU1,-5.487804878048781,2.0121951219512195,-0.48780487804878053,-0.12109375,0.103515625,1.1162109375
275,1.38,IMU0,3.963414634146342,2.7439024390243905,-7.317073170731708,-0.078125,0.193359375,1.095703125
276,1.38,IMU1,-6.646341463414635,3.231707317073171,-1.7682926829268295,-0.119140625,0.1015625,1.10546875
277,1.39,IMU0,1.707317073170732,-1.4634146341463417,-8.353658536585366,-0.0732421875,0.19140625,1.087890625
278,1.39,IMU1,-9.085365853658537,-0.9146341463414634,-2.8658536585365857,-0.1142578125,0.099609375,1.0986328125
279,1.4,IMU0,-1.402439024390244,-3.658536585365854,-10.609756097560977,-0.0458984375,0.1767578125,1.044921875
280,1.4,IMU1,-12.256097560975611,-3.1097560975609757,-5.060975609756098,-0.0869140625,0.0859375,1.0556640625
281,1.41,IMU0,-3.5975609756097566,0.6707317073170732,-12.317073170731708,-0.0234375,0.16015625,1.025390625
282,1.41,IMU1,-14.451219512195124,1.4634146341463417,-6.951219512195123,-0.0634765625,0.0712890625,1.03515625
283,1.42,IMU0,-4.634146341463415,7.01219512195122,-14.085365853658537,-0.0146484375,0.154296875,1.001953125
284,1.42,IMU1,-15.426829268292684,7.987804878048781,-8.658536585365855,-0.0537109375,0.0673828125,1.0126953125
285,1.43,IMU0,-4.329268292682928,13.29268292682927,-14.390243902439027,-0.009765625,0.1611328125,0.9921875
286,1.43,IMU1,-15.060975609756099,14.207317073170733,-8.78048780487805,-0.0458984375,0.0732421875,0.9970703125
287,1.44,IMU0,-2.439024390243903,20.54878048780488,-12.80487804878049,-0.0048828125,0.1650390625,0.986328125
288,1.44,IMU1,-12.987804878048781,21.463414634146343,-6.951219512195123,-0.041015625,0.076171875,0.9892578125
289,1.45,IMU0,0.7926829268292683,27.500000000000004,-10.548780487804878,-0.0087890625,0.1669921875,0.99609375
290,1.45,IMU1,-9.756097560975611,28.414634146341466,-4.51219512195122,-0.044921875,0.0771484375,0.998046875
291,1.46,IMU0,5.060975609756098,29.87804878048781,-8.170731707317074,-0.017578125,0.171875,1.015625
292,1.46,IMU1,-5.548780487804878,30.731707317073173,-1.9512195121951221,-0.052734375,0.080078125,1.017578125
293,1.47,IMU0,10.365853658536587,25.30487804878049,-5.731707317073171,-0.03125,0.1904296875,1.0556640625
294,1.47,IMU1,-0.3658536585365854,26.03658536585366,0.48780487804878053,-0.06640625,0.099609375,1.05859375
295,1.48,IMU0,14.939024390243905,17.5,-2.9268292682926833,-0.0302734375,0.21875,1.0830078125
296,1.48,IMU1,4.634146341463415,17.98780487804878,3.1097560975609757,-0.0673828125,0.126953125,1.0869140625
297,1.49,IMU0,19.32926829268293,20.30487804878049,-0.6097560975609757,-0.0419921875,0.232421875,1.1279296875
298,1.49,IMU1,9.02439024390244,20.914634146341466,5.609756097560976,-0.080078125,0.138671875,1.1357421875
299,1.5,IMU0,21.34146341463415,24.634146341463417,-0.426829268292683,-0.0751953125,0.2294921875,1.16796875
300,1.5,IMU1,11.158536585365855,25.30487804878049,5.731707317073171,-0.1181640625,0.1337890625,1.1767578125
301,1.51,IMU0,20.365853658536587,27.5609756097561,-2.5,-0.099609375,0.2138671875,1.1875
302,1.51,IMU1,10.365853658536587,28.292682926829272,3.658536585365854,-0.14453125,0.1181640625,1.197265625
303,1.52,IMU0,17.926829268292686,29.451219512195124,-5.426829268292684,-0.1044921875,0.185546875,1.19921875
304,1.52,IMU1,7.926829268292684,30.243902439024392,0.7317073170731708,-0.1474609375,0.08984375,1.20703125
305,1.53,IMU0,15.121951219512196,30.365853658536587,-8.170731707317074,-0.0908203125,0.146484375,1.1884765625
306,1.53,IMU1,5.121951219512195,31.280487804878053,-2.1341463414634148,-0.1328125,0.05078125,1.1943359375
307,1.54,IMU0,12.80487804878049,32.25609756097561,-10.609756097560977,-0.0625,0.119140625,1.1552734375
308,1.54,IMU1,2.7439024390243905,33.35365853658537,-4.695121951219512,-0.1044921875,0.0244140625,1.162109375
309,1.55,IMU0,11.463414634146343,34.81707317073171,-12.134146341463415,-0.033203125,0.1142578125,1.142578125
310,1.55,IMU1,1.524390243902439,35.97560975609756,-6.158536585365854,-0.072265625,0.0185546875,1.1484375
311,1.56,IMU0,11.28048780487805,34.57317073170732,-13.04878048780488,-0.0107421875,0.130859375,1.138671875
312,1.56,IMU1,1.2804878048780488,35.73170731707317,-7.195121951219513,-0.0517578125,0.037109375,1.142578125
313,1.57,IMU0,11.402439024390246,33.23170731707317,-15.365853658536587,-0.0107421875,0.1591796875,1.138671875
314,1.57,IMU1,1.2804878048780488,34.390243902439025,-9.390243902439025,-0.0517578125,0.064453125,1.14453125
315,1.58,IMU0,12.01219512195122,30.731707317073173,-16.097560975609756,-0.0263671875,0.1708984375,1.1474609375
316,1.58,IMU1,1.9512195121951221,31.89024390243903,-10.060975609756099,-0.06640625,0.076171875,1.154296875
317,1.59,IMU0,12.865853658536587,28.475609756097562,-15.000000000000002,-0.0498046875,0.1650390625,1.1513671875
318,1.59,IMU1,2.9268292682926833,29.634146341463417,-9.02439024390244,-0.087890625,0.0703125,1.1591796875
319,1.6,IMU0,13.353658536585368,28.780487804878053,-13.29268292682927,-0.08203125,0.1513671875,1.1611328125
320,1.6,IMU1,3.414634146341464,29.87804878048781,-7.195121951219513,-0.12109375,0.0546875,1.16796875
321,1.61,IMU0,13.536585365853659,32.19512195121951,-11.463414634146343,-0.1123046875,0.1435546875,1.171875
322,1.61,IMU1,3.536585365853659,33.35365853658537,-5.060975609756098,-0.15234375,0.048828125,1.177734375
323,1.62,IMU0,12.987804878048781,37.6829268292683,-9.329268292682928,-0.130859375,0.138671875,1.1865234375
324,1.62,IMU1,2.987804878048781,38.65853658536586,-2.9268292682926833,-0.1708984375,0.044921875,1.1923828125
325,1.63,IMU0,11.402439024390246,40.97560975609756,-9.756097560975611,-0.1337890625,0.1494140625,1.20703125
326,1.63,IMU1,1.1585365853658538,42.13414634146342,-3.2926829268292686,-0.1787109375,0.052734375,1.2158203125
327,1.64,IMU0,8.292682926829269,38.65853658536586,-11.219512195121952,-0.109375,0.1826171875,1.220703125
328,1.64,IMU1,-2.0121951219512195,39.51219512195122,-4.817073170731708,-0.15234375,0.083984375,1.232421875
329,1.65,IMU0,5.2439024390243905,34.024390243902445,-11.829268292682928,-0.0703125,0.1884765625,1.2197265625
330,1.65,IMU1,-5.060975609756098,34.81707317073171,-5.365853658536586,-0.1123046875,0.087890625,1.2294921875
331,1.66,IMU0,3.8414634146341466,30.54878048780488,-11.707317073170733,-0.0439453125,0.1640625,1.1875
332,1.66,IMU1,-6.402439024390245,31.52439024390244,-5.426829268292684,-0.08203125,0.0654296875,1.1923828125
333,1.67,IMU0,5.060975609756098,35.73170731707317,-12.134146341463415,-0.0400390625,0.1376953125,1.125
334,1.67,IMU1,-5.365853658536586,37.19512195121951,-5.670731707317073,-0.080078125,0.0439453125,1.126953125
335,1.68,IMU0,6.402439024390245,42.926829268292686,-12.378048780487806,-0.08203125,0.1259765625,1.16796875
336,1.68,IMU1,-3.8414634146341466,44.08536585365854,-6.097560975609756,-0.1240234375,0.029296875,1.173828125
337,1.69,IMU0,4.695121951219512,34.207317073170735,-9.146341463414634,-0.1181640625,0.1376953125,1.1982421875
338,1.69,IMU1,-5.7926829268292686,34.87804878048781,-2.7439024390243905,-0.1552734375,0.0400390625,1.2060546875
339,1.7,IMU0,3.9024390243902443,23.475609756097562,-3.353658536585366,-0.146484375,0.1494140625,1.2041015625
340,1.7,IMU1,-6.7682926829268295,23.902439024390247,3.048780487804878,-0.185546875,0.0537109375,1.20703125
341,1.71,IMU0,4.817073170731708,15.182926829268293,1.1585365853658538,-0.16796875,0.166015625,1.208984375
342,1.71,IMU1,-5.731707317073171,15.365853658536587,7.25609756097561,-0.2080078125,0.0712890625,1.212890625
343,1.72,IMU0,6.7682926829268295,11.402439024390246,3.1097560975609757,-0.1611328125,0.1748046875,1.208984375
344,1.72,IMU1,-4.085365853658537,11.829268292682928,9.146341463414634,-0.2021484375,0.0810546875,1.216796875
345,1.73,IMU0,8.841463414634147,14.085365853658537,3.048780487804878,-0.1455078125,0.17578125,1.20703125
346,1.73,IMU1,-1.8902439024390245,14.634146341463415,9.207317073170733,-0.189453125,0.080078125,1.2099609375
347,1.74,IMU0,11.52439024390244,19.939024390243905,1.5853658536585367,-0.138671875,0.177734375,1.2060546875
348,1.74,IMU1,1.0365853658536586,20.670731707317074,7.8048780487804885,-0.18359375,0.0810546875,1.2060546875
349,1.75,IMU0,14.02439024390244,26.402439024390247,-0.6097560975609757,-0.1396484375,0.169921875,1.2001953125
350,1.75,IMU1,3.658536585365854,27.378048780487806,5.670731707317073,-0.18359375,0.07421875,1.1982421875
351,1.76,IMU0,15.000000000000002,34.87804878048781,-4.024390243902439,-0.1611328125,0.1513671875,1.185546875
352,1.76,IMU1,4.75609756097561,35.243902439024396,2.682926829268293,-0.20703125,0.056640625,1.1884765625
353,1.77,IMU0,13.29268292682927,41.524390243902445,-6.707317073170732,-0.2001953125,0.1298828125,1.177734375
354,1.77,IMU1,3.1707317073170733,42.13414634146342,0.0,-0.24609375,0.0361328125,1.18359375
355,1.78,IMU0,9.817073170731708,45.54878048780488,-8.658536585365855,-0.2421875,0.1103515625,1.1669921875
356,1.78,IMU1,-0.1829268292682927,46.524390243902445,-1.8902439024390245,-0.287109375,0.0166015625,1.171875
357,1.79,IMU0,6.463414634146342,46.463414634146346,-10.24390243902439,-0.2607421875,0.099609375,1.1572265625
358,1.79,IMU1,-3.7195121951219514,47.6829268292683,-3.414634146341464,-0.302734375,0.0078125,1.1630859375
359,1.8,IMU0,3.5975609756097566,42.5609756097561,-11.158536585365855,-0.24609375,0.1044921875,1.1474609375
360,1.8,IMU1,-6.585365853658537,44.024390243902445,-4.390243902439025,-0.2890625,0.01171875,1.15625
361,1.81,IMU0,1.0975609756097562,35.91463414634147,-13.414634146341465,-0.212890625,0.1103515625,1.125
362,1.81,IMU1,-9.207317073170733,37.43902439024391,-6.890243902439025,-0.2587890625,0.0185546875,1.134765625
363,1.82,IMU0,-0.9146341463414634,30.731707317073173,-17.804878048780488,-0.1826171875,0.12109375,1.111328125
364,1.82,IMU1,-11.219512195121952,32.19512195121951,-11.585365853658537,-0.2294921875,0.029296875,1.119140625
365,1.83,IMU0,-2.5,26.951219512195124,-21.52439024390244,-0.171875,0.1279296875,1.10546875
366,1.83,IMU1,-12.865853658536587,28.475609756097562,-15.54878048780488,-0.21484375,0.0361328125,1.1103515625
367,1.84,IMU0,-2.7439024390243905,25.792682926829272,-23.658536585365855,-0.1875,0.126953125,1.099609375
368,1.84,IMU1,-13.170731707317074,27.195121951219516,-17.804878048780488,-0.2275390625,0.037109375,1.1005859375
369,1.85,IMU0,-1.402439024390244,26.463414634146343,-24.02439024390244,-0.203125,0.12890625,1.0927734375
370,1.85,IMU1,-11.829268292682928,27.865853658536587,-18.29268292682927,-0.2421875,0.0380859375,1.091796875
371,1.86,IMU0,0.9146341463414634,27.80487804878049,-22.378048780487806,-0.2099609375,0.126953125,1.0927734375
372,1.86,IMU1,-9.451219512195122,29.146341463414636,-16.82926829268293,-0.2470703125,0.0361328125,1.091796875
373,1.87,IMU0,5.121951219512195,28.04878048780488,-19.573170731707318,-0.2080078125,0.1328125,1.103515625
374,1.87,IMU1,-5.548780487804878,29.32926829268293,-13.902439024390246,-0.2421875,0.041015625,1.1015625
375,1.88,IMU0,8.963414634146343,26.28048780487805,-14.573170731707318,-0.205078125,0.1552734375,1.1259765625
376,1.88,IMU1,-1.0975609756097562,27.439024390243905,-8.963414634146343,-0.23828125,0.0634765625,1.1240234375
377,1.89,IMU0,12.560975609756099,21.646341463414636,-8.536585365853659,-0.22265625,0.1708984375,1.1416015625
378,1.89,IMU1,2.3170731707317076,22.80487804878049,-2.7439024390243905,-0.25390625,0.0791015625,1.1416015625
379,1.9,IMU0,14.695121951219514,15.121951219512196,-3.1707317073170733,-0.2568359375,0.1708984375,1.142578125
380,1.9,IMU1,4.390243902439025,16.097560975609756,2.6219512195121952,-0.2890625,0.080078125,1.14453125
381,1.91,IMU0,13.78048780487805,6.585365853658537,0.06097560975609757,-0.3603515625,0.1689453125,1.298828125
382,1.91,IMU1,3.780487804878049,7.743902439024391,6.097560975609756,-0.3916015625,0.0693359375,1.283203125
383,1.92,IMU0,1.4634146341463417,-18.04878048780488,-8.719512195121952,-0.4287109375,0.1943359375,1.2138671875
384,1.92,IMU1,-8.719512195121952,-16.82926829268293,-3.414634146341464,-0.4814453125,0.1005859375,1.2314453125
385,1.93,IMU0,-3.780487804878049,-27.621951219512198,-10.365853658536587,-0.3359375,0.142578125,1.1416015625
386,1.93,IMU1,-14.329268292682928,-27.073170731707318,-5.914634146341464,-0.376953125,0.052734375,1.1474609375
387,1.94,IMU0,-4.329268292682928,-25.670731707317074,-9.26829268292683,-0.255859375,0.0947265625,1.12109375
388,1.94,IMU1,-15.121951219512196,-25.426829268292686,-4.695121951219512,-0.2978515625,0.0048828125,1.1240234375
389,1.95,IMU0,-3.8414634146341466,-16.890243902439025,-9.695121951219512,-0.19140625,0.087890625,1.08984375
390,1.95,IMU1,-14.634146341463415,-16.890243902439025,-4.817073170731708,-0.234375,-0.0048828125,1.091796875
391,1.96,IMU0,-4.146341463414634,-5.0,-10.670731707317074,-0.17578125,0.107421875,1.0771484375
392,1.96,IMU1,-14.817073170731708,-4.817073170731708,-5.487804878048781,-0.216796875,0.0166015625,1.080078125
393,1.97,IMU0,-3.963414634146342,2.682926829268293,-11.890243902439025,-0.189453125,0.1083984375,1.076171875
394,1.97,IMU1,-14.634146341463415,3.231707317073171,-6.7682926829268295,-0.228515625,0.0166015625,1.0771484375
395,1.98,IMU0,-3.536585365853659,3.4756097560975614,-13.78048780487805,-0.203125,0.115234375,1.0703125
396,1.98,IMU1,-14.329268292682928,4.390243902439025,-8.475609756097562,-0.2431640625,0.0244140625,1.07421875
397,1.99,IMU0,-4.390243902439025,1.0365853658536586,-15.30487804878049,-0.19921875,0.115234375,1.05859375
398,1.99,IMU1,-15.000000000000002,1.8902439024390245,-10.182926829268293,-0.23828125,0.0283203125,1.0634765625
399,2.0,IMU0,-6.707317073170732,-2.0121951219512195,-15.243902439024392,-0.18359375,0.08984375,1.048828125
400,2.0,IMU1,-17.5,-1.1585365853658538,-10.182926829268293,-0.21875,0.0009765625,1.0546875
401,2.01,IMU0,-10.365853658536587,-3.231707317073171,-14.26829268292683,-0.205078125,0.076171875,1.0283203125
402,2.01,IMU1,-21.463414634146343,-2.5,-8.963414634146343,-0.240234375,-0.013671875,1.0341796875
403,2.02,IMU0,-15.609756097560977,-0.853658536585366,-14.207317073170733,-0.2373046875,0.0673828125,1.01953125
404,2.02,IMU1,-26.58536585365854,-0.1829268292682927,-9.02439024390244,-0.275390625,-0.0234375,1.025390625
405,2.03,IMU0,-21.402439024390247,1.707317073170732,-14.207317073170733,-0.2294921875,0.0625,1.0126953125
406,2.03,IMU1,-32.6219512195122,2.5,-9.26829268292683,-0.2666015625,-0.025390625,1.0234375
407,2.04,IMU0,-27.80487804878049,0.853658536585366,-12.378048780487806,-0.2265625,0.0546875,1.015625
408,2.04,IMU1,-39.207317073170735,1.829268292682927,-7.378048780487806,-0.2626953125,-0.0361328125,1.0244140625
409,2.05,IMU0,-33.23170731707317,-1.6463414634146343,-13.658536585365855,-0.23046875,0.0576171875,1.029296875
410,2.05,IMU1,-45.00000000000001,-0.6707317073170732,-8.536585365853659,-0.2705078125,-0.0322265625,1.03515625
411,2.06,IMU0,-17.31707317073171,-20.121951219512198,-6.829268292682928,-0.2900390625,0.1005859375,1.1376953125
412,2.06,IMU1,-29.451219512195124,-19.878048780487806,-2.1341463414634148,-0.3212890625,0.0078125,1.1318359375
413,2.07,IMU0,-5.487804878048781,-19.26829268292683,-2.5,-0.279296875,0.125,1.1162109375
414,2.07,IMU1,-17.25609756097561,-19.02439024390244,2.682926829268293,-0.3212890625,0.0322265625,1.109375
415,2.08,IMU0,2.25609756097561,-14.573170731707318,-4.451219512195122,-0.224609375,0.142578125,1.0947265625
416,2.08,IMU1,-8.963414634146343,-14.390243902439027,0.853658536585366,-0.265625,0.0517578125,1.08984375
417,2.09,IMU0,6.585365853658537,-10.609756097560977,-5.0,-0.2060546875,0.10546875,1.083984375
418,2.09,IMU1,-4.451219512195122,-10.365853658536587,0.3658536585365854,-0.244140625,0.013671875,1.0830078125
419,2.1,IMU0,8.841463414634147,-6.707317073170732,-5.365853658536586,-0.208984375,0.087890625,1.07421875
420,2.1,IMU1,-2.0121951219512195,-6.463414634146342,0.12195121951219513,-0.2470703125,-0.0048828125,1.0712890625
421,2.11,IMU0,10.24390243902439,-5.914634146341464,-5.487804878048781,-0.2109375,0.076171875,1.0673828125
422,2.11,IMU1,-0.5487804878048781,-5.731707317073171,0.0,-0.2490234375,-0.015625,1.06640625
423,2.12,IMU0,10.853658536585368,-6.829268292682928,-5.487804878048781,-0.2109375,0.0712890625,1.0703125
424,2.12,IMU1,0.24390243902439027,-6.585365853658537,-0.06097560975609757,-0.2490234375,-0.01953125,1.068359375
425,2.13,IMU0,11.097560975609756,-6.951219512195123,-5.548780487804878,-0.2041015625,0.0693359375,1.0693359375
426,2.13,IMU1,0.5487804878048781,-6.646341463414635,-0.12195121951219513,-0.2412109375,-0.021484375,1.0673828125
427,2.14,IMU0,11.463414634146343,-5.609756097560976,-5.7926829268292686,-0.203125,0.064453125,1.06640625
428,2.14,IMU1,1.0975609756097562,-5.3048780487804885,-0.30487804878048785,-0.2431640625,-0.02734375,1.0654296875
429,2.15,IMU0,11.707317073170733,-3.7195121951219514,-6.707317073170732,-0.19921875,0.06640625,1.06640625
430,2.15,IMU1,1.0975609756097562,-3.2926829268292686,-1.1585365853658538,-0.2373046875,-0.0224609375,1.0654296875
431,2.16,IMU0,11.707317073170733,-2.7439024390243905,-6.2804878048780495,-0.1962890625,0.06640625,1.06640625
432,2.16,IMU1,1.0975609756097562,-2.3170731707317076,-0.6707317073170732,-0.2333984375,-0.0234375,1.06640625
433,2.17,IMU0,11.463414634146343,-1.2195121951219514,-6.036585365853659,-0.193359375,0.0654296875,1.06640625
434,2.17,IMU1,1.0365853658536586,-0.7926829268292683,-0.3658536585365854,-0.23046875,-0.0244140625,1.06640625
435,2.18,IMU0,11.52439024390244,0.6097560975609757,-5.853658536585367,-0.1943359375,0.0673828125,1.0654296875
436,2.18,IMU1,0.9756097560975611,1.0365853658536586,-0.1829268292682927,-0.232421875,-0.0244140625,1.068359375
437,2.19,IMU0,11.402439024390246,2.1341463414634148,-5.609756097560976,-0.1982421875,0.06640625,1.0634765625
438,2.19,IMU1,0.9756097560975611,2.682926829268293,-0.06097560975609757,-0.236328125,-0.0234375,1.06640625
439,2.2,IMU0,11.097560975609756,2.7439024390243905,-5.548780487804878,-0.203125,0.0673828125,1.0654296875
440,2.2,IMU1,0.9756097560975611,3.1707317073170733,0.06097560975609757,-0.2412109375,-0.0234375,1.0673828125
441,2.21,IMU0,11.402439024390246,1.9512195121951221,-5.609756097560976,-0.2080078125,0.0673828125,1.06640625
442,2.21,IMU1,0.9146341463414634,2.5,0.06097560975609757,-0.2451171875,-0.0234375,1.0703125
443,2.22,IMU0,11.28048780487805,0.7926829268292683,-5.487804878048781,-0.2099609375,0.0673828125,1.064453125
444,2.22,IMU1,0.9146341463414634,1.2195121951219514,0.0,-0.244140625,-0.0234375,1.0693359375
445,2.23,IMU0,11.28048780487805,-0.06097560975609757,-5.426829268292684,-0.205078125,0.0673828125,1.06640625
446,2.23,IMU1,0.9146341463414634,0.426829268292683,0.06097560975609757,-0.2421875,-0.0244140625,1.0673828125
447,2.24,IMU0,11.219512195121952,-0.30487804878048785,-5.426829268292684,-0.203125,0.06640625,1.0654296875
448,2.24,IMU1,0.9146341463414634,0.24390243902439027,0.0,-0.240234375,-0.0244140625,1.0654296875
449,2.25,IMU0,11.341463414634147,-0.48780487804878053,-5.487804878048781,-0.2041015625,0.0654296875,1.064453125
450,2.25,IMU1,0.9146341463414634,0.0,0.06097560975609757,-0.2421875,-0.0244140625,1.064453125
451,2.26,IMU0,11.402439024390246,-0.9756097560975611,-5.548780487804878,-0.203125,0.0654296875,1.064453125
452,2.26,IMU1,0.9146341463414634,-0.48780487804878053,0.0,-0.2431640625,-0.0234375,1.0654296875
453,2.27,IMU0,11.585365853658537,-1.402439024390244,-5.548780487804878,-0.2041015625,0.06640625,1.064453125
454,2.27,IMU1,0.9146341463414634,-0.9146341463414634,0.0,-0.2431640625,-0.0244140625,1.06640625
455,2.28,IMU0,11.463414634146343,-1.5853658536585367,-5.670731707317073,-0.203125,0.06640625,1.064453125
456,2.28,IMU1,0.9146341463414634,-1.1585365853658538,-0.06097560975609757,-0.2421875,-0.0244140625,1.06640625
457,2.29,IMU0,11.463414634146343,-1.524390243902439,-5.670731707317073,-0.2021484375,0.0673828125,1.0654296875
458,2.29,IMU1,0.9146341463414634,-1.0975609756097562,0.0,-0.2392578125,-0.0244140625,1.068359375
459,2.3,IMU0,11.52439024390244,-1.2195121951219514,-5.609756097560976,-0.2001953125,0.06640625,1.0654296875
460,2.3,IMU1,0.9146341463414634,-0.7926829268292683,0.0,-0.2373046875,-0.0244140625,1.0673828125
461,2.31,IMU0,11.463414634146343,-0.7317073170731708,-5.609756097560976,-0.19921875,0.0654296875,1.06640625
462,2.31,IMU1,0.9756097560975611,-0.24390243902439027,0.0,-0.2373046875,-0.0244140625,1.06640625
463,2.32,IMU0,11.402439024390246,-0.1829268292682927,-5.548780487804878,-0.19921875,0.06640625,1.0654296875
464,2.32,IMU1,0.9756097560975611,0.24390243902439027,0.06097560975609757,-0.2373046875,-0.0234375,1.06640625
465,2.33,IMU0,11.585365853658537,0.1829268292682927,-5.609756097560976,-0.19921875,0.0673828125,1.0703125
466,2.33,IMU1,0.9146341463414634,0.6097560975609757,0.06097560975609757,-0.23828125,-0.0234375,1.0673828125
467,2.34,IMU0,11.463414634146343,0.3658536585365854,-5.670731707317073,-0.201171875,0.0654296875,1.068359375
468,2.34,IMU1,0.9146341463414634,0.7926829268292683,0.06097560975609757,-0.2392578125,-0.0234375,1.068359375
469,2.35,IMU0,11.52439024390244,0.24390243902439027,-5.731707317073171,-0.201171875,0.0673828125,1.0693359375
470,2.35,IMU1,0.9146341463414634,0.6707317073170732,0.06097560975609757,-0.240234375,-0.0244140625,1.068359375
471,2.36,IMU0,11.463414634146343,0.0,-5.670731707317073,-0.201171875,0.06640625,1.0693359375
472,2.36,IMU1,0.9146341463414634,0.3658536585365854,0.06097560975609757,-0.240234375,-0.0244140625,1.068359375
473,2.37,IMU0,11.52439024390244,-0.3658536585365854,-5.670731707317073,-0.2001953125,0.06640625,1.068359375
474,2.37,IMU1,0.9146341463414634,0.12195121951219513,0.0,-0.2392578125,-0.025390625,1.0673828125
475,2.38,IMU0,11.52439024390244,-0.48780487804878053,-5.670731707317073,-0.2001953125,0.06640625,1.06640625
476,2.38,IMU1,0.9146341463414634,-0.12195121951219513,0.0,-0.2392578125,-0.025390625,1.0654296875
477,2.39,IMU0,11.52439024390244,-0.6707317073170732,-5.670731707317073,-0.2001953125,0.06640625,1.0654296875
478,2.39,IMU1,0.9146341463414634,-0.24390243902439027,0.06097560975609757,-0.240234375,-0.0244140625,1.06640625
479,2.4,IMU0,11.341463414634147,-0.853658536585366,-5.609756097560976,-0.19921875,0.0654296875,1.0654296875
480,2.4,IMU1,0.9146341463414634,-0.3658536585365854,0.0,-0.240234375,-0.025390625,1.068359375
481,2.41,IMU0,11.219512195121952,-0.853658536585366,-5.670731707317073,-0.1982421875,0.06640625,1.0693359375
482,2.41,IMU1,0.9146341463414634,-0.3658536585365854,0.0,-0.2392578125,-0.025390625,1.0703125
483,2.42,IMU0,11.28048780487805,-0.7317073170731708,-5.670731707317073,-0.1982421875,0.0654296875,1.06640625
484,2.42,IMU1,0.9146341463414634,-0.30487804878048785,0.0,-0.2373046875,-0.0244140625,1.0693359375
485,2.43,IMU0,11.402439024390246,-0.6707317073170732,-5.548780487804878,-0.19921875,0.064453125,1.0654296875
486,2.43,IMU1,0.9146341463414634,-0.12195121951219513,0.06097560975609757,-0.2373046875,-0.0244140625,1.0673828125
487,2.44,IMU0,11.219512195121952,-0.5487804878048781,-5.548780487804878,-0.19921875,0.06640625,1.0654296875
488,2.44,IMU1,0.9146341463414634,-0.06097560975609757,0.06097560975609757,-0.236328125,-0.0244140625,1.06640625
489,2.45,IMU0,11.341463414634147,-0.5487804878048781,-5.548780487804878,-0.19921875,0.06640625,1.0654296875
490,2.45,IMU1,0.9146341463414634,-0.06097560975609757,0.0,-0.2373046875,-0.0244140625,1.068359375
491,2.46,IMU0,11.341463414634147,-0.426829268292683,-5.548780487804878,-0.2001953125,0.0673828125,1.0654296875
492,2.46,IMU1,0.9146341463414634,-0.06097560975609757,0.0,-0.2373046875,-0.025390625,1.068359375
493,2.47,IMU0,11.28048780487805,-0.426829268292683,-5.548780487804878,-0.1982421875,0.0673828125,1.0654296875
494,2.47,IMU1,0.9146341463414634,0.0,0.0,-0.2373046875,-0.025390625,1.068359375
495,2.48,IMU0,11.402439024390246,-0.426829268292683,-5.670731707317073,-0.1982421875,0.068359375,1.068359375
496,2.48,IMU1,0.9146341463414634,0.06097560975609757,0.0,-0.2373046875,-0.025390625,1.068359375
497,2.49,IMU0,11.341463414634147,-0.426829268292683,-5.609756097560976,-0.19921875,0.068359375,1.06640625
498,2.49,IMU1,0.9146341463414634,0.06097560975609757,0.06097560975609757,-0.2373046875,-0.0244140625,1.0673828125
499,2.5,IMU0,11.585365853658537,-0.426829268292683,-5.609756097560976,-0.19921875,0.06640625,1.0673828125
500,2.5,IMU1,0.853658536585366,0.12195121951219513,0.06097560975609757,-0.236328125,-0.025390625,1.0673828125
501,2.51,IMU0,11.585365853658537,-0.426829268292683,-5.609756097560976,-0.19921875,0.06640625,1.0673828125
502,2.51,IMU1,0.9756097560975611,0.06097560975609757,0.0,-0.236328125,-0.0244140625,1.0673828125
503,2.52,IMU0,11.341463414634147,-0.48780487804878053,-5.548780487804878,-0.1982421875,0.06640625,1.0654296875
504,2.52,IMU1,0.9756097560975611,-0.06097560975609757,0.0,-0.236328125,-0.0244140625,1.0673828125
505,2.53,IMU0,11.646341463414634,-0.5487804878048781,-5.670731707317073,-0.1982421875,0.0654296875,1.0654296875
506,2.53,IMU1,0.9146341463414634,-0.12195121951219513,0.0,-0.236328125,-0.0244140625,1.068359375
507,2.54,IMU0,11.341463414634147,-0.5487804878048781,-5.609756097560976,-0.19921875,0.06640625,1.0673828125
508,2.54,IMU1,0.9146341463414634,-0.24390243902439027,0.0,-0.2353515625,-0.025390625,1.0673828125
509,2.55,IMU0,11.402439024390246,-0.6707317073170732,-5.487804878048781,-0.1982421875,0.064453125,1.068359375
510,2.55,IMU1,0.9146341463414634,-0.24390243902439027,0.0,-0.234375,-0.025390625,1.068359375
511,2.56,IMU0,11.463414634146343,-0.5487804878048781,-5.548780487804878,-0.1982421875,0.0654296875,1.0693359375
512,2.56,IMU1,0.9146341463414634,-0.1829268292682927,0.0,-0.234375,-0.025390625,1.0673828125
513,2.57,IMU0,11.463414634146343,-0.48780487804878053,-5.609756097560976,-0.1982421875,0.0654296875,1.0693359375
514,2.57,IMU1,0.9146341463414634,-0.12195121951219513,0.0,-0.234375,-0.0244140625,1.068359375
515,2.58,IMU0,11.646341463414634,-0.426829268292683,-5.609756097560976,-0.1982421875,0.064453125,1.068359375
516,2.58,IMU1,0.9756097560975611,-0.06097560975609757,0.06097560975609757,-0.2353515625,-0.0244140625,1.0673828125
517,2.59,IMU0,11.463414634146343,-0.426829268292683,-5.609756097560976,-0.1982421875,0.0654296875,1.06640625
518,2.59,IMU1,0.9756097560975611,0.0,0.06097560975609757,-0.2353515625,-0.0244140625,1.0673828125
519,2.6,IMU0,11.52439024390244,-0.5487804878048781,-5.670731707317073,-0.197265625,0.064453125,1.06640625
520,2.6,IMU1,0.9756097560975611,0.0,0.06097560975609757,-0.236328125,-0.0244140625,1.068359375
521,2.61,IMU0,11.402439024390246,-0.48780487804878053,-5.670731707317073,-0.197265625,0.0654296875,1.0654296875
522,2.61,IMU1,0.9146341463414634,-0.06097560975609757,0.0,-0.2353515625,-0.0234375,1.0693359375
523,2.62,IMU0,11.52439024390244,-0.48780487804878053,-5.731707317073171,-0.1962890625,0.0654296875,1.064453125
524,2.62,IMU1,0.9146341463414634,-0.06097560975609757,0.0,-0.2353515625,-0.0234375,1.0693359375
525,2.63,IMU0,11.585365853658537,-0.426829268292683,-5.670731707317073,-0.1953125,0.064453125,1.0654296875
526,2.63,IMU1,0.9146341463414634,0.0,0.0,-0.234375,-0.0244140625,1.0673828125
527,2.64,IMU0,11.463414634146343,-0.426829268292683,-5.548780487804878,-0.1962890625,0.0673828125,1.0654296875
528,2.64,IMU1,0.9146341463414634,0.0,0.0,-0.2333984375,-0.0244140625,1.0693359375
529,2.65,IMU0,11.463414634146343,-0.426829268292683,-5.548780487804878,-0.1953125,0.06640625,1.0654296875
530,2.65,IMU1,0.853658536585366,0.0,0.0,-0.2333984375,-0.0244140625,1.068359375
531,2.66,IMU0,11.28048780487805,-0.48780487804878053,-5.548780487804878,-0.1953125,0.06640625,1.06640625
532,2.66,IMU1,0.853658536585366,-0.06097560975609757,0.0,-0.2353515625,-0.0244140625,1.0703125
533,2.67,IMU0,11.341463414634147,-0.5487804878048781,-5.548780487804878,-0.1953125,0.06640625,1.0673828125
534,2.67,IMU1,0.9146341463414634,-0.12195121951219513,0.0,-0.2353515625,-0.0234375,1.0703125
535,2.68,IMU0,11.097560975609756,-0.5487804878048781,-5.487804878048781,-0.1953125,0.0654296875,1.0673828125
536,2.68,IMU1,0.9146341463414634,-0.12195121951219513,0.06097560975609757,-0.234375,-0.0244140625,1.068359375
537,2.69,IMU0,11.52439024390244,-0.5487804878048781,-5.670731707317073,-0.1953125,0.06640625,1.0673828125
538,2.69,IMU1,0.853658536585366,-0.12195121951219513,0.06097560975609757,-0.2333984375,-0.0244140625,1.0673828125
539,2.7,IMU0,11.463414634146343,-0.5487804878048781,-5.609756097560976,-0.1953125,0.06640625,1.06640625
540,2.7,IMU1,0.9146341463414634,-0.06097560975609757,0.0,-0.2333984375,-0.0234375,1.06640625
541,2.71,IMU0,11.463414634146343,-0.48780487804878053,-5.670731707317073,-0.1943359375,0.06640625,1.06640625
542,2.71,IMU1,0.9146341463414634,0.0,0.06097560975609757,-0.2333984375,-0.0234375,1.0673828125
543,2.72,IMU0,11.463414634146343,-0.426829268292683,-5.731707317073171,-0.1943359375,0.0673828125,1.0673828125
544,2.72,IMU1,0.9146341463414634,-0.06097560975609757,0.0,-0.2333984375,-0.0234375,1.068359375
545,2.73,IMU0,11.585365853658537,-0.48780487804878053,-5.731707317073171,-0.1943359375,0.0673828125,1.0654296875
546,2.73,IMU1,0.9146341463414634,-0.06097560975609757,-0.06097560975609757,-0.2333984375,-0.0234375,1.0693359375
547,2.74,IMU0,11.402439024390246,-0.48780487804878053,-5.609756097560976,-0.1943359375,0.06640625,1.0673828125
548,2.74,IMU1,0.9146341463414634,-0.12195121951219513,0.0,-0.2333984375,-0.0244140625,1.0693359375
549,2.75,IMU0,11.341463414634147,-0.48780487804878053,-5.670731707317073,-0.1943359375,0.0654296875,1.0654296875
550,2.75,IMU1,0.9146341463414634,0.0,0.06097560975609757,-0.2333984375,-0.0244140625,1.0693359375
551,2.76,IMU0,11.341463414634147,-0.48780487804878053,-5.670731707317073,-0.1943359375,0.06640625,1.0634765625
552,2.76,IMU1,0.9146341463414634,0.0,0.0,-0.2333984375,-0.0224609375,1.068359375
553,2.77,IMU0,11.28048780487805,-0.426829268292683,-5.670731707317073,-0.193359375,0.06640625,1.06640625
554,2.77,IMU1,0.9756097560975611,0.0,0.06097560975609757,-0.232421875,-0.0234375,1.068359375
555,2.78,IMU0,11.158536585365855,-0.3658536585365854,-5.548780487804878,-0.1923828125,0.06640625,1.06640625
556,2.78,IMU1,0.9756097560975611,0.0,0.06097560975609757,-0.232421875,-0.0244140625,1.0693359375
557,2.79,IMU0,11.341463414634147,-0.48780487804878053,-5.609756097560976,-0.1923828125,0.06640625,1.06640625
558,2.79,IMU1,0.9756097560975611,0.0,0.0,-0.2314453125,-0.0244140625,1.0693359375
559,2.8,IMU0,11.52439024390244,-0.48780487804878053,-5.609756097560976,-0.193359375,0.06640625,1.0654296875
560,2.8,IMU1,0.9146341463414634,-0.06097560975609757,0.0,-0.2314453125,-0.0244140625,1.0693359375
561,2.81,IMU0,11.219512195121952,-0.426829268292683,-5.670731707317073,-0.1923828125,0.0673828125,1.0634765625
562,2.81,IMU1,0.9146341463414634,-0.12195121951219513,0.0,-0.2314453125,-0.0234375,1.0703125
563,2.82,IMU0,11.341463414634147,-0.48780487804878053,-5.609756097560976,-0.193359375,0.06640625,1.0654296875
564,2.82,IMU1,0.9146341463414634,-0.06097560975609757,0.06097560975609757,-0.23046875,-0.025390625,1.0693359375
565,2.83,IMU0,11.463414634146343,-0.48780487804878053,-5.670731707317073,-0.1923828125,0.06640625,1.0654296875
566,2.83,IMU1,0.9146341463414634,0.0,0.06097560975609757,-0.2294921875,-0.0244140625,1.068359375
567,2.84,IMU0,11.28048780487805,-0.3658536585365854,-5.670731707317073,-0.1943359375,0.06640625,1.0673828125
568,2.84,IMU1,0.9146341463414634,0.06097560975609757,0.0,-0.23046875,-0.0244140625,1.0693359375
569,2.85,IMU0,11.341463414634147,-0.426829268292683,-5.609756097560976,-0.193359375,0.0673828125,1.0673828125
570,2.85,IMU1,0.9146341463414634,0.0,0.0,-0.23046875,-0.025390625,1.0673828125
571,2.86,IMU0,11.402439024390246,-0.426829268292683,-5.609756097560976,-0.1943359375,0.0673828125,1.06640625
572,2.86,IMU1,0.9756097560975611,0.0,0.0,-0.232421875,-0.025390625,1.068359375
573,2.87,IMU0,11.402439024390246,-0.48780487804878053,-5.548780487804878,-0.193359375,0.06640625,1.068359375
574,2.87,IMU1,0.9756097560975611,0.0,0.0,-0.2314453125,-0.025390625,1.068359375
575,2.88,IMU0,11.402439024390246,-0.48780487804878053,-5.487804878048781,-0.1923828125,0.06640625,1.06640625
576,2.88,IMU1,0.9146341463414634,-0.06097560975609757,0.0,-0.23046875,-0.025390625,1.068359375
577,2.89,IMU0,11.52439024390244,-0.426829268292683,-5.609756097560976,-0.1923828125,0.0654296875,1.0654296875
578,2.89,IMU1,0.9146341463414634,-0.06097560975609757,0.0,-0.2294921875,-0.025390625,1.0703125
579,2.9,IMU0,11.28048780487805,-0.426829268292683,-5.548780487804878,-0.1923828125,0.0673828125,1.0673828125
580,2.9,IMU1,0.853658536585366,0.0,0.0,-0.2294921875,-0.0263671875,1.0693359375
581,2.91,IMU0,11.463414634146343,-0.48780487804878053,-5.609756097560976,-0.1923828125,0.0673828125,1.06640625
582,2.91,IMU1,0.853658536585366,0.0,0.06097560975609757,-0.23046875,-0.025390625,1.0703125
583,2.92,IMU0,11.52439024390244,-0.48780487804878053,-5.670731707317073,-0.19140625,0.0654296875,1.0673828125
584,2.92,IMU1,0.9146341463414634,0.0,0.0,-0.23046875,-0.0244140625,1.0703125
585,2.93,IMU0,11.52439024390244,-0.426829268292683,-5.670731707317073,-0.19140625,0.06640625,1.068359375
586,2.93,IMU1,0.9146341463414634,0.0,0.0,-0.2294921875,-0.0234375,1.0693359375
587,2.94,IMU0,11.463414634146343,-0.30487804878048785,-5.670731707317073,-0.1923828125,0.0654296875,1.06640625
588,2.94,IMU1,0.9146341463414634,0.0,0.0,-0.2294921875,-0.025390625,1.0693359375
589,2.95,IMU0,11.28048780487805,-0.426829268292683,-5.487804878048781,-0.19140625,0.06640625,1.0673828125
590,2.95,IMU1,0.9146341463414634,0.0,0.06097560975609757,-0.228515625,-0.0244140625,1.0693359375
591,2.96,IMU0,11.341463414634147,-0.3658536585365854,-5.548780487804878,-0.19140625,0.068359375,1.0703125
592,2.96,IMU1,0.9146341463414634,-0.06097560975609757,0.06097560975609757,-0.228515625,-0.025390625,1.0693359375
593,2.97,IMU0,11.28048780487805,-0.3658536585365854,-5.487804878048781,-0.1904296875,0.0673828125,1.0693359375
594,2.97,IMU1,0.9146341463414634,0.0,0.06097560975609757,-0.2294921875,-0.025390625,1.068359375
595,2.98,IMU0,11.341463414634147,-0.3658536585365854,-5.548780487804878,-0.19140625,0.06640625,1.0703125
596,2.98,IMU1,0.9146341463414634,0.06097560975609757,0.0,-0.228515625,-0.025390625,1.068359375
597,2.99,IMU0,11.402439024390246,-0.426829268292683,-5.609756097560976,-0.1923828125,0.06640625,1.0693359375
598,2.99,IMU1,0.9146341463414634,0.06097560975609757,0.0,-0.228515625,-0.0244140625,1.0693359375
599,3.0,IMU0,11.52439024390244,-0.3658536585365854,-5.670731707317073,-0.19140625,0.06640625,1.0703125
600,3.0,IMU1,0.9146341463414634,0.0,0.0,-0.2275390625,-0.0244140625,1.0693359375
601,3.01,IMU0,11.402439024390246,-0.3658536585365854,-5.670731707317073,-0.19140625,0.0654296875,1.0673828125
602,3.01,IMU1,0.853658536585366,0.06097560975609757,0.0,-0.228515625,-0.025390625,1.0712890625
603,3.02,IMU0,11.402439024390246,-0.426829268292683,-5.670731707317073,-0.19140625,0.0654296875,1.068359375
604,3.02,IMU1,0.9146341463414634,0.0,0.0,-0.2275390625,-0.0244140625,1.0693359375
605,3.03,IMU0,11.585365853658537,-0.3658536585365854,-5.670731707317073,-0.19140625,0.0654296875,1.068359375
606,3.03,IMU1,0.9146341463414634,0.06097560975609757,-0.06097560975609757,-0.228515625,-0.0244140625,1.068359375
607,3.04,IMU0,11.52439024390244,-0.426829268292683,-5.609756097560976,-0.1904296875,0.06640625,1.06640625
608,3.04,IMU1,0.9146341463414634,0.12195121951219513,0.0,-0.2265625,-0.0244140625,1.0673828125
609,3.05,IMU0,11.341463414634147,-0.1829268292682927,-5.426829268292684,-0.1884765625,0.064453125,1.0615234375
610,3.05,IMU1,1.0365853658536586,0.3658536585365854,0.0,-0.2236328125,-0.025390625,1.0634765625
611,3.06,IMU0,11.52439024390244,0.5487804878048781,-5.426829268292684,-0.1845703125,0.0634765625,1.0576171875
612,3.06,IMU1,1.1585365853658538,0.9756097560975611,0.06097560975609757,-0.2216796875,-0.025390625,1.0576171875
613,3.07,IMU0,11.585365853658537,0.853658536585366,-5.487804878048781,-0.1875,0.0654296875,1.0615234375
614,3.07,IMU1,1.2804878048780488,1.3414634146341464,0.12195121951219513,-0.2265625,-0.025390625,1.0615234375
615,3.08,IMU0,11.76829268292683,0.0,-5.487804878048781,-0.1962890625,0.0673828125,1.0771484375
616,3.08,IMU1,1.2195121951219514,0.426829268292683,0.12195121951219513,-0.2353515625,-0.0234375,1.0771484375
617,3.09,IMU0,11.585365853658537,-1.9512195121951221,-5.609756097560976,-0.201171875,0.0673828125,1.0908203125
618,3.09,IMU1,1.0365853658536586,-1.402439024390244,0.0,-0.240234375,-0.0244140625,1.08984375
619,3.1,IMU0,11.28048780487805,-3.2926829268292686,-5.609756097560976,-0.1953125,0.068359375,1.0869140625
620,3.1,IMU1,0.7926829268292683,-2.8658536585365857,-0.06097560975609757,-0.234375,-0.0234375,1.0869140625
621,3.11,IMU0,11.036585365853659,-2.987804878048781,-5.548780487804878,-0.1845703125,0.068359375,1.072265625
622,3.11,IMU1,0.6097560975609757,-2.5609756097560976,-0.12195121951219513,-0.2236328125,-0.0234375,1.07421875
623,3.12,IMU0,11.158536585365855,-1.1585365853658538,-5.609756097560976,-0.1787109375,0.0673828125,1.0595703125
624,3.12,IMU1,0.6707317073170732,-0.6707317073170732,-0.06097560975609757,-0.216796875,-0.0244140625,1.060546875
625,3.13,IMU0,11.341463414634147,0.6097560975609757,-5.548780487804878,-0.1806640625,0.0654296875,1.056640625
626,3.13,IMU1,0.853658536585366,1.0975609756097562,0.0,-0.2177734375,-0.025390625,1.0595703125
627,3.14,IMU0,11.585365853658537,0.9756097560975611,-5.609756097560976,-0.1865234375,0.0654296875,1.064453125
628,3.14,IMU1,0.9756097560975611,1.4634146341463417,0.06097560975609757,-0.224609375,-0.02734375,1.06640625
629,3.15,IMU0,11.585365853658537,-0.12195121951219513,-5.609756097560976,-0.1923828125,0.06640625,1.072265625
630,3.15,IMU1,1.0365853658536586,0.426829268292683,0.0,-0.232421875,-0.0263671875,1.07421875
631,3.16,IMU0,11.463414634146343,-1.2804878048780488,-5.548780487804878,-0.19140625,0.06640625,1.0732421875
632,3.16,IMU1,0.9756097560975611,-0.853658536585366,0.0,-0.2314453125,-0.0263671875,1.0732421875
633,3.17,IMU0,11.646341463414634,-1.402439024390244,-5.7926829268292686,-0.1875,0.06640625,1.0654296875
634,3.17,IMU1,0.9756097560975611,-1.0365853658536586,-0.06097560975609757,-0.2255859375,-0.025390625,1.0673828125
635,3.18,IMU0,11.646341463414634,-1.402439024390244,-5.7926829268292686,-0.1875,0.06640625,1.0654296875
636,3.18,IMU1,1.0365853658536586,-0.24390243902439027,0.0,-0.22265625,-0.0263671875,1.0634765625
637,3.19,IMU0,11.707317073170733,0.3658536585365854,-5.548780487804878,-0.181640625,0.06640625,1.0615234375
638,3.19,IMU1,1.0975609756097562,0.7926829268292683,0.06097560975609757,-0.2216796875,-0.025390625,1.0654296875
639,3.2,IMU0,11.829268292682928,0.6707317073170732,-5.548780487804878,-0.1865234375,0.06640625,1.0673828125
640,3.2,IMU1,1.2195121951219514,1.0975609756097562,0.06097560975609757,-0.224609375,-0.0244140625,1.0703125
641,3.21,IMU0,11.76829268292683,0.06097560975609757,-5.548780487804878,-0.1884765625,0.06640625,1.072265625
642,3.21,IMU1,1.2195121951219514,0.48780487804878053,0.0,-0.228515625,-0.025390625,1.07421875
643,3.22,IMU0,11.52439024390244,-0.7926829268292683,-5.609756097560976,-0.1884765625,0.0673828125,1.072265625
644,3.22,IMU1,1.1585365853658538,-0.426829268292683,0.0,-0.228515625,-0.0234375,1.07421875
645,3.23,IMU0,11.585365853658537,-1.0975609756097562,-5.670731707317073,-0.185546875,0.0673828125,1.0693359375
646,3.23,IMU1,1.0975609756097562,-0.7926829268292683,0.0,-0.2265625,-0.0234375,1.0712890625
647,3.24,IMU0,11.402439024390246,-0.9756097560975611,-5.670731707317073,-0.1865234375,0.068359375,1.068359375
648,3.24,IMU1,1.0365853658536586,-0.5487804878048781,0.0,-0.2255859375,-0.0234375,1.0712890625
649,3.25,IMU0,11.341463414634147,-0.6097560975609757,-5.548780487804878,-0.1845703125,0.0673828125,1.0673828125
650,3.25,IMU1,1.0365853658536586,-0.12195121951219513,0.12195121951219513,-0.2236328125,-0.0234375,1.0712890625
651,3.26,IMU0,11.402439024390246,-0.30487804878048785,-5.548780487804878,-0.1845703125,0.068359375,1.0693359375
652,3.26,IMU1,1.0365853658536586,0.1829268292682927,0.12195121951219513,-0.22265625,-0.0244140625,1.0712890625
653,3.27,IMU0,11.341463414634147,0.0,-5.548780487804878,-0.18359375,0.06640625,1.0703125
654,3.27,IMU1,1.0365853658536586,0.426829268292683,0.06097560975609757,-0.22265625,-0.025390625,1.0693359375
655,3.28,IMU0,11.341463414634147,0.12195121951219513,-5.487804878048781,-0.185546875,0.06640625,1.068359375
656,3.28,IMU1,1.0975609756097562,0.5487804878048781,0.06097560975609757,-0.2236328125,-0.025390625,1.068359375
657,3.29,IMU0,11.341463414634147,0.1829268292682927,-5.487804878048781,-0.1865234375,0.0654296875,1.06640625
658,3.29,IMU1,1.0975609756097562,0.6707317073170732,0.06097560975609757,-0.224609375,-0.0244140625,1.0693359375
659,3.3,IMU0,11.585365853658537,0.24390243902439027,-5.548780487804878,-0.1875,0.0673828125,1.064453125
660,3.3,IMU1,1.0975609756097562,0.6707317073170732,0.06097560975609757,-0.2255859375,-0.0244140625,1.068359375
661,3.31,IMU0,11.646341463414634,0.12195121951219513,-5.548780487804878,-0.1875,0.068359375,1.064453125
662,3.31,IMU1,1.0975609756097562,0.5487804878048781,0.06097560975609757,-0.2265625,-0.0234375,1.0693359375
663,3.32,IMU0,11.463414634146343,-0.1829268292682927,-5.487804878048781,-0.1865234375,0.0673828125,1.0693359375
664,3.32,IMU1,1.0975609756097562,0.30487804878048785,0.06097560975609757,-0.2255859375,-0.0244140625,1.0712890625
665,3.33,IMU0,11.341463414634147,-0.30487804878048785,-5.548780487804878,-0.185546875,0.0673828125,1.0712890625
666,3.33,IMU1,1.0975609756097562,0.1829268292682927,0.06097560975609757,-0.224609375,-0.0244140625,1.0712890625
667,3.34,IMU0,11.52439024390244,-0.426829268292683,-5.609756097560976,-0.1865234375,0.0673828125,1.0703125
668,3.34,IMU1,1.0975609756097562,0.06097560975609757,0.06097560975609757,-0.2236328125,-0.0244140625,1.0732421875
669,3.35,IMU0,11.646341463414634,-0.5487804878048781,-5.609756097560976,-0.185546875,0.06640625,1.0712890625
670,3.35,IMU1,1.0975609756097562,0.0,0.06097560975609757,-0.2236328125,-0.0244140625,1.072265625
671,3.36,IMU0,11.585365853658537,-0.426829268292683,-5.670731707317073,-0.185546875,0.0673828125,1.068359375
672,3.36,IMU1,1.0975609756097562,0.06097560975609757,0.0,-0.2236328125,-0.025390625,1.0703125
673,3.37,IMU0,11.463414634146343,-0.3658536585365854,-5.609756097560976,-0.1865234375,0.0673828125,1.0673828125
674,3.37,IMU1,1.0975609756097562,0.12195121951219513,0.06097560975609757,-0.224609375,-0.0234375,1.0693359375
675,3.38,IMU0,11.463414634146343,-0.24390243902439027,-5.609756097560976,-0.18359375,0.0693359375,1.06640625
676,3.38,IMU1,1.0975609756097562,0.24390243902439027,0.0,-0.2236328125,-0.0234375,1.0703125
677,3.39,IMU0,11.52439024390244,-0.06097560975609757,-5.731707317073171,-0.18359375,0.068359375,1.0673828125
678,3.39,IMU1,1.0365853658536586,0.30487804878048785,0.06097560975609757,-0.22265625,-0.0244140625,1.0703125
679,3.4,IMU0,11.463414634146343,-0.06097560975609757,-5.548780487804878,-0.18359375,0.068359375,1.0673828125
680,3.4,IMU1,1.0975609756097562,0.426829268292683,0.06097560975609757,-0.2216796875,-0.0244140625,1.0693359375
681,3.41,IMU0,11.52439024390244,0.06097560975609757,-5.609756097560976,-0.18359375,0.0673828125,1.0654296875
682,3.41,IMU1,1.0975609756097562,0.48780487804878053,0.06097560975609757,-0.2236328125,-0.025390625,1.0693359375
683,3.42,IMU0,11.52439024390244,0.0,-5.426829268292684,-0.18359375,0.0654296875,1.06640625
684,3.42,IMU1,1.1585365853658538,0.48780487804878053,0.06097560975609757,-0.2236328125,-0.025390625,1.0703125
685,3.43,IMU0,11.646341463414634,0.0,-5.487804878048781,-0.1826171875,0.0673828125,1.06640625
686,3.43,IMU1,1.1585365853658538,0.3658536585365854,0.0,-0.22265625,-0.0224609375,1.0693359375
687,3.44,IMU0,11.402439024390246,0.1829268292682927,-5.487804878048781,-0.1826171875,0.0673828125,1.06640625
688,3.44,IMU1,1.0975609756097562,0.5487804878048781,0.06097560975609757,-0.2236328125,-0.0234375,1.0703125
689,3.45,IMU0,11.463414634146343,0.0,-5.548780487804878,-0.18359375,0.068359375,1.068359375
690,3.45,IMU1,1.1585365853658538,0.48780487804878053,0.06097560975609757,-0.2255859375,-0.0234375,1.0732421875
691,3.46,IMU0,11.76829268292683,-0.30487804878048785,-5.670731707317073,-0.185546875,0.0673828125,1.0693359375
692,3.46,IMU1,1.0975609756097562,0.1829268292682927,0.06097560975609757,-0.2255859375,-0.0234375,1.0732421875
693,3.47,IMU0,11.646341463414634,-0.6097560975609757,-5.548780487804878,-0.18359375,0.0673828125,1.068359375
694,3.47,IMU1,1.0975609756097562,-0.12195121951219513,0.06097560975609757,-0.2255859375,-0.0234375,1.0732421875
695,3.48,IMU0,11.52439024390244,-0.6707317073170732,-5.548780487804878,-0.181640625,0.06640625,1.068359375
696,3.48,IMU1,1.0975609756097562,-0.1829268292682927,0.06097560975609757,-0.2236328125,-0.0234375,1.0703125
697,3.49,IMU0,11.707317073170733,-0.48780487804878053,-5.609756097560976,-0.181640625,0.0673828125,1.0673828125
698,3.49,IMU1,1.0365853658536586,-0.06097560975609757,0.06097560975609757,-0.2236328125,-0.0244140625,1.0703125
699,3.5,IMU0,11.585365853658537,-0.30487804878048785,-5.609756097560976,-0.181640625,0.0673828125,1.0673828125
700,3.5,IMU1,1.0365853658536586,0.12195121951219513,0.06097560975609757,-0.2236328125,-0.0244140625,1.0693359375
701,3.51,IMU0,11.52439024390244,-0.06097560975609757,-5.548780487804878,-0.1826171875,0.068359375,1.0673828125
702,3.51,IMU1,1.0365853658536586,0.3658536585365854,0.06097560975609757,-0.22265625,-0.0234375,1.0693359375
703,3.52,IMU0,11.52439024390244,0.0,-5.548780487804878,-0.1826171875,0.068359375,1.068359375
704,3.52,IMU1,1.0365853658536586,0.48780487804878053,0.06097560975609757,-0.22265625,-0.0244140625,1.0703125
705,3.53,IMU0,11.402439024390246,-0.06097560975609757,-5.426829268292684,-0.185546875,0.06640625,1.068359375
706,3.53,IMU1,0.9756097560975611,0.48780487804878053,0.06097560975609757,-0.22265625,-0.0244140625,1.0712890625
707,3.54,IMU0,11.585365853658537,-0.12195121951219513,-5.426829268292684,-0.18359375,0.0673828125,1.0693359375
708,3.54,IMU1,0.9756097560975611,0.3658536585365854,0.06097560975609757,-0.22265625,-0.025390625,1.0712890625
709,3.55,IMU0,11.646341463414634,-0.1829268292682927,-5.487804878048781,-0.1826171875,0.068359375,1.0712890625
710,3.55,IMU1,0.9756097560975611,0.30487804878048785,0.06097560975609757,-0.22265625,-0.0244140625,1.0732421875
711,3.56,IMU0,11.52439024390244,-0.12195121951219513,-5.548780487804878,-0.1826171875,0.0673828125,1.0712890625
712,3.56,IMU1,0.9756097560975611,0.30487804878048785,0.06097560975609757,-0.22265625,-0.0244140625,1.072265625
713,3.57,IMU0,11.341463414634147,-0.1829268292682927,-5.487804878048781,-0.18359375,0.0673828125,1.0712890625
714,3.57,IMU1,0.9756097560975611,0.30487804878048785,0.06097560975609757,-0.22265625,-0.0234375,1.072265625
715,3.58,IMU0,11.341463414634147,-0.1829268292682927,-5.548780487804878,-0.18359375,0.06640625,1.0703125
716,3.58,IMU1,0.9146341463414634,0.24390243902439027,0.0,-0.2216796875,-0.0234375,1.072265625
717,3.59,IMU0,11.402439024390246,-0.06097560975609757,-5.609756097560976,-0.1826171875,0.0673828125,1.0693359375
718,3.59,IMU1,0.9146341463414634,0.30487804878048785,0.0,-0.22265625,-0.0234375,1.072265625
719,3.6,IMU0,11.219512195121952,-0.12195121951219513,-5.548780487804878,-0.18359375,0.068359375,1.068359375
720,3.6,IMU1,0.9756097560975611,0.3658536585365854,0.06097560975609757,-0.2216796875,-0.0244140625,1.0712890625
721,3.61,IMU0,11.219512195121952,-0.12195121951219513,-5.487804878048781,-0.1845703125,0.068359375,1.0693359375
722,3.61,IMU1,0.9756097560975611,0.3658536585365854,0.0,-0.2216796875,-0.0244140625,1.0712890625
723,3.62,IMU0,11.28048780487805,-0.24390243902439027,-5.426829268292684,-0.18359375,0.0673828125,1.0693359375
724,3.62,IMU1,1.0365853658536586,0.24390243902439027,0.0,-0.220703125,-0.0244140625,1.0703125
725,3.63,IMU0,11.52439024390244,-0.24390243902439027,-5.487804878048781,-0.18359375,0.068359375,1.0712890625
726,3.63,IMU1,1.0365853658536586,0.24390243902439027,0.0,-0.220703125,-0.0234375,1.0712890625
727,3.64,IMU0,11.402439024390246,-0.12195121951219513,-5.548780487804878,-0.1845703125,0.068359375,1.0693359375
728,3.64,IMU1,1.0365853658536586,0.24390243902439027,0.06097560975609757,-0.2216796875,-0.0234375,1.0703125
729,3.65,IMU0,11.52439024390244,-0.06097560975609757,-5.609756097560976,-0.18359375,0.068359375,1.0703125
730,3.65,IMU1,0.9756097560975611,0.30487804878048785,0.06097560975609757,-0.2216796875,-0.0244140625,1.0712890625
731,3.66,IMU0,11.341463414634147,0.0,-5.548780487804878,-0.181640625,0.0654296875,1.0693359375
732,3.66,IMU1,0.9756097560975611,0.30487804878048785,0.0,-0.220703125,-0.0244140625,1.072265625
733,3.67,IMU0,11.52439024390244,0.06097560975609757,-5.670731707317073,-0.1826171875,0.06640625,1.0673828125
734,3.67,IMU1,0.9756097560975611,0.3658536585365854,0.0,-0.220703125,-0.0234375,1.0712890625
735,3.68,IMU0,11.463414634146343,-0.06097560975609757,-5.609756097560976,-0.1826171875,0.0673828125,1.0693359375
736,3.68,IMU1,1.0365853658536586,0.3658536585365854,0.0,-0.220703125,-0.0234375,1.072265625
737,3.69,IMU0,11.341463414634147,-0.1829268292682927,-5.548780487804878,-0.181640625,0.068359375,1.068359375
738,3.69,IMU1,1.0365853658536586,0.24390243902439027,0.0,-0.220703125,-0.0234375,1.0712890625
739,3.7,IMU0,11.52439024390244,-0.1829268292682927,-5.609756097560976,-0.1806640625,0.0693359375,1.068359375
740,3.7,IMU1,0.9756097560975611,0.1829268292682927,0.0,-0.220703125,-0.0234375,1.0693359375
741,3.71,IMU0,11.463414634146343,-0.1829268292682927,-5.670731707317073,-0.181640625,0.0693359375,1.06640625
742,3.71,IMU1,1.0365853658536586,0.12195121951219513,0.06097560975609757,-0.2197265625,-0.0224609375,1.0703125
743,3.72,IMU0,11.341463414634147,-0.12195121951219513,-5.609756097560976,-0.181640625,0.0693359375,1.068359375
744,3.72,IMU1,1.0365853658536586,0.24390243902439027,0.12195121951219513,-0.220703125,-0.0224609375,1.0703125
745,3.73,IMU0,11.463414634146343,0.0,-5.609756097560976,-0.181640625,0.068359375,1.0703125
746,3.73,IMU1,1.0365853658536586,0.3658536585365854,0.06097560975609757,-0.220703125,-0.0234375,1.072265625
747,3.74,IMU0,11.402439024390246,0.0,-5.426829268292684,-0.181640625,0.068359375,1.0693359375
748,3.74,IMU1,0.9756097560975611,0.3658536585365854,0.0,-0.220703125,-0.0234375,1.0712890625
749,3.75,IMU0,11.402439024390246,0.0,-5.609756097560976,-0.181640625,0.0693359375,1.0703125
750,3.75,IMU1,0.9756097560975611,0.3658536585365854,0.06097560975609757,-0.220703125,-0.0234375,1.072265625
751,3.76,IMU0,11.52439024390244,-0.1829268292682927,-5.609756097560976,-0.1806640625,0.0673828125,1.0703125
752,3.76,IMU1,0.9756097560975611,0.30487804878048785,0.06097560975609757,-0.220703125,-0.0224609375,1.0712890625
753,3.77,IMU0,11.402439024390246,-0.12195121951219513,-5.548780487804878,-0.181640625,0.0673828125,1.0712890625
754,3.77,IMU1,0.9146341463414634,0.24390243902439027,0.06097560975609757,-0.220703125,-0.0224609375,1.0703125
755,3.78,IMU0,11.341463414634147,-0.1829268292682927,-5.548780487804878,-0.1806640625,0.0673828125,1.0732421875
756,3.78,IMU1,0.9756097560975611,0.1829268292682927,0.06097560975609757,-0.2197265625,-0.0224609375,1.0703125
757,3.79,IMU0,11.28048780487805,-0.24390243902439027,-5.548780487804878,-0.1806640625,0.068359375,1.0712890625
758,3.79,IMU1,0.9756097560975611,0.1829268292682927,0.06097560975609757,-0.21875,-0.0224609375,1.0712890625
759,3.8,IMU0,11.402439024390246,-0.1829268292682927,-5.609756097560976,-0.181640625,0.068359375,1.0712890625
760,3.8,IMU1,0.9756097560975611,0.1829268292682927,0.06097560975609757,-0.21875,-0.0234375,1.0712890625
761,3.81,IMU0,11.402439024390246,-0.1829268292682927,-5.670731707317073,-0.1806640625,0.0673828125,1.0693359375
762,3.81,IMU1,0.9756097560975611,0.1829268292682927,0.06097560975609757,-0.2197265625,-0.0234375,1.0712890625
763,3.82,IMU0,11.341463414634147,-0.1829268292682927,-5.609756097560976,-0.181640625,0.0693359375,1.068359375
764,3.82,IMU1,0.9756097560975611,0.24390243902439027,0.06097560975609757,-0.2177734375,-0.0224609375,1.0693359375
765,3.83,IMU0,11.463414634146343,-0.12195121951219513,-5.670731707317073,-0.1806640625,0.0673828125,1.0673828125
766,3.83,IMU1,1.0365853658536586,0.30487804878048785,0.06097560975609757,-0.21875,-0.0234375,1.0693359375
767,3.84,IMU0,11.646341463414634,-0.12195121951219513,-5.670731707317073,-0.1796875,0.06640625,1.068359375
768,3.84,IMU1,1.0365853658536586,0.3658536585365854,0.06097560975609757,-0.21875,-0.0224609375,1.068359375
769,3.85,IMU0,11.463414634146343,0.0,-5.609756097560976,-0.1796875,0.06640625,1.0693359375
770,3.85,IMU1,1.0365853658536586,0.3658536585365854,0.0,-0.2177734375,-0.0224609375,1.0703125
771,3.86,IMU0,11.585365853658537,0.0,-5.609756097560976,-0.1806640625,0.06640625,1.0703125
772,3.86,IMU1,1.0365853658536586,0.3658536585365854,0.0,-0.21875,-0.0234375,1.0703125
773,3.87,IMU0,11.52439024390244,0.0,-5.548780487804878,-0.1796875,0.0673828125,1.068359375
774,3.87,IMU1,1.0365853658536586,0.3658536585365854,0.12195121951219513,-0.21875,-0.0234375,1.0712890625
775,3.88,IMU0,11.585365853658537,0.0,-5.670731707317073,-0.1806640625,0.06640625,1.0693359375
776,3.88,IMU1,0.9756097560975611,0.3658536585365854,0.12195121951219513,-0.21875,-0.0244140625,1.072265625
777,3.89,IMU0,11.646341463414634,-0.12195121951219513,-5.731707317073171,-0.177734375,0.06640625,1.0703125
778,3.89,IMU1,0.9756097560975611,0.30487804878048785,0.06097560975609757,-0.21875,-0.0234375,1.0712890625
779,3.9,IMU0,11.402439024390246,-0.24390243902439027,-5.609756097560976,-0.177734375,0.068359375,1.0693359375
780,3.9,IMU1,0.9146341463414634,0.30487804878048785,0.0,-0.21875,-0.021484375,1.0732421875
781,3.91,IMU0,11.646341463414634,-0.24390243902439027,-5.670731707317073,-0.177734375,0.068359375,1.068359375
782,3.91,IMU1,1.0365853658536586,0.3658536585365854,0.06097560975609757,-0.21875,-0.021484375,1.0732421875
783,3.92,IMU0,11.341463414634147,-0.12195121951219513,-5.487804878048781,-0.1787109375,0.068359375,1.0693359375
784,3.92,IMU1,0.9756097560975611,0.3658536585365854,0.0,-0.21875,-0.0224609375,1.072265625
785,3.93,IMU0,11.463414634146343,-0.06097560975609757,-5.548780487804878,-0.1787109375,0.068359375,1.0703125
786,3.93,IMU1,0.9146341463414634,0.30487804878048785,0.0,-0.2177734375,-0.0224609375,1.072265625
787,3.94,IMU0,11.52439024390244,0.0,-5.609756097560976,-0.1787109375,0.068359375,1.0712890625
788,3.94,IMU1,0.9146341463414634,0.3658536585365854,0.06097560975609757,-0.2177734375,-0.0224609375,1.07421875
789,3.95,IMU0,11.585365853658537,-0.12195121951219513,-5.548780487804878,-0.1796875,0.068359375,1.07421875
790,3.95,IMU1,0.9146341463414634,0.3658536585365854,0.06097560975609757,-0.2177734375,-0.0224609375,1.07421875
791,3.96,IMU0,11.341463414634147,-0.1829268292682927,-5.487804878048781,-0.1796875,0.0693359375,1.0732421875
792,3.96,IMU1,0.9146341463414634,0.3658536585365854,0.06097560975609757,-0.21875,-0.0224609375,1.0712890625
793,3.97,IMU0,11.28048780487805,-0.12195121951219513,-5.548780487804878,-0.1796875,0.068359375,1.0732421875
794,3.97,IMU1,0.9146341463414634,0.30487804878048785,0.0,-0.2197265625,-0.0224609375,1.0712890625
795,3.98,IMU0,11.341463414634147,-0.1829268292682927,-5.487804878048781,-0.1796875,0.06640625,1.0732421875
796,3.98,IMU1,0.9146341463414634,0.24390243902439027,0.06097560975609757,-0.21875,-0.0224609375,1.0712890625
797,3.99,IMU0,11.341463414634147,-0.30487804878048785,-5.487804878048781,-0.1787109375,0.068359375,1.072265625
798,3.99,IMU1,0.9146341463414634,0.24390243902439027,0.06097560975609757,-0.2177734375,-0.0224609375,1.07421875
799,4.0,IMU0,11.463414634146343,-0.30487804878048785,-5.548780487804878,-0.1787109375,0.0693359375,1.0712890625
800,4.0,IMU1,0.9146341463414634,0.24390243902439027,0.0,-0.2177734375,-0.0224609375,1.072265625
801,4.01,IMU0,11.402439024390246,-0.24390243902439027,-5.609756097560976,-0.1796875,0.068359375,1.0732421875
802,4.01,IMU1,0.9146341463414634,0.1829268292682927,0.06097560975609757,-0.2197265625,-0.0224609375,1.07421875
803,4.02,IMU0,11.158536585365855,-0.3658536585365854,-5.670731707317073,-0.1796875,0.0693359375,1.0751953125
804,4.02,IMU1,0.7926829268292683,0.0,0.0,-0.2197265625,-0.021484375,1.0751953125
805,4.03,IMU0,11.036585365853659,-0.5487804878048781,-5.670731707317073,-0.1796875,0.0703125,1.076171875
806,4.03,IMU1,0.7317073170731708,-0.06097560975609757,0.0,-0.2197265625,-0.021484375,1.0751953125
807,4.04,IMU0,10.914634146341465,-0.6097560975609757,-5.670731707317073,-0.1796875,0.0703125,1.0771484375
808,4.04,IMU1,0.6707317073170732,-0.1829268292682927,0.0,-0.21875,-0.021484375,1.076171875
809,4.05,IMU0,10.914634146341465,-0.5487804878048781,-5.670731707317073,-0.1787109375,0.068359375,1.076171875
810,4.05,IMU1,0.48780487804878053,-0.24390243902439027,-0.06097560975609757,-0.2197265625,-0.021484375,1.078125
811,4.06,IMU0,10.792682926829269,-0.7317073170731708,-5.670731707317073,-0.181640625,0.0693359375,1.080078125
812,4.06,IMU1,0.3658536585365854,-0.30487804878048785,-0.12195121951219513,-0.220703125,-0.021484375,1.08203125
813,4.07,IMU0,10.548780487804878,-1.2195121951219514,-5.670731707317073,-0.18359375,0.068359375,1.0830078125
814,4.07,IMU1,0.1829268292682927,-0.7926829268292683,-0.12195121951219513,-0.22265625,-0.0205078125,1.087890625
815,4.08,IMU0,10.426829268292684,-1.707317073170732,-5.7926829268292686,-0.18359375,0.0703125,1.0869140625
816,4.08,IMU1,-0.06097560975609757,-1.2804878048780488,-0.24390243902439027,-0.22265625,-0.01953125,1.0908203125
817,4.09,IMU0,10.0,-2.0121951219512195,-5.670731707317073,-0.1806640625,0.0703125,1.0859375
818,4.09,IMU1,-0.3658536585365854,-1.524390243902439,-0.24390243902439027,-0.22265625,-0.0205078125,1.0888671875
819,4.1,IMU0,9.878048780487806,-1.829268292682927,-5.7926829268292686,-0.1796875,0.0693359375,1.0859375
820,4.1,IMU1,-0.5487804878048781,-1.3414634146341464,-0.30487804878048785,-0.220703125,-0.0205078125,1.0849609375
821,4.11,IMU0,9.939024390243903,-1.0975609756097562,-5.853658536585367,-0.171875,0.0673828125,1.0712890625
822,4.11,IMU1,-0.5487804878048781,-0.426829268292683,-0.30487804878048785,-0.2119140625,-0.0234375,1.0703125
823,4.12,IMU0,10.0,0.6707317073170732,-5.731707317073171,-0.162109375,0.0625,1.0537109375
824,4.12,IMU1,-0.3658536585365854,1.3414634146341464,-0.24390243902439027,-0.19921875,-0.02734375,1.05078125
825,4.13,IMU0,10.548780487804878,2.987804878048781,-5.670731707317073,-0.154296875,0.060546875,1.029296875
826,4.13,IMU1,0.1829268292682927,3.8414634146341466,-0.06097560975609757,-0.1923828125,-0.0283203125,1.0283203125
827,4.14,IMU0,11.097560975609756,5.0,-5.609756097560976,-0.16015625,0.05859375,1.0263671875
828,4.14,IMU1,0.853658536585366,5.548780487804878,0.12195121951219513,-0.2001953125,-0.02734375,1.0263671875
829,4.15,IMU0,11.707317073170733,4.2682926829268295,-5.548780487804878,-0.1796875,0.0615234375,1.048828125
830,4.15,IMU1,1.2804878048780488,4.390243902439025,0.24390243902439027,-0.220703125,-0.0263671875,1.0537109375
831,4.16,IMU0,11.585365853658537,0.12195121951219513,-5.487804878048781,-0.19921875,0.064453125,1.083984375
832,4.16,IMU1,1.2195121951219514,0.0,0.12195121951219513,-0.240234375,-0.025390625,1.087890625
833,4.17,IMU0,11.219512195121952,-4.817073170731708,-5.548780487804878,-0.201171875,0.068359375,1.1015625
834,4.17,IMU1,0.853658536585366,-4.878048780487806,-0.12195121951219513,-0.240234375,-0.0244140625,1.103515625
835,4.18,IMU0,10.853658536585368,-7.439024390243903,-5.731707317073171,-0.185546875,0.0693359375,1.08984375
836,4.18,IMU1,0.48780487804878053,-7.195121951219513,-0.24390243902439027,-0.224609375,-0.0234375,1.0908203125
837,4.19,IMU0,10.853658536585368,-6.097560975609756,-5.670731707317073,-0.1640625,0.0673828125,1.0625
838,4.19,IMU1,0.426829268292683,-5.426829268292684,-0.1829268292682927,-0.201171875,-0.0234375,1.0634765625
839,4.2,IMU0,11.036585365853659,-2.1951219512195124,-5.609756097560976,-0.1533203125,0.064453125,1.044921875
840,4.2,IMU1,0.7317073170731708,-1.402439024390244,-0.06097560975609757,-0.1904296875,-0.0244140625,1.0458984375
841,4.21,IMU0,11.341463414634147,1.1585365853658538,-5.609756097560976,-0.1591796875,0.0634765625,1.0458984375
842,4.21,IMU1,1.0975609756097562,1.6463414634146343,0.06097560975609757,-0.2001953125,-0.0263671875,1.05078125
843,4.22,IMU0,11.707317073170733,1.0365853658536586,-5.548780487804878,-0.17578125,0.064453125,1.0712890625
844,4.22,IMU1,1.2804878048780488,1.2195121951219514,0.12195121951219513,-0.21875,-0.02734375,1.0751953125
845,4.23,IMU0,11.585365853658537,-1.7682926829268295,-5.487804878048781,-0.1875,0.06640625,1.0908203125
846,4.23,IMU1,1.1585365853658538,-1.6463414634146343,0.0,-0.228515625,-0.025390625,1.09375
847,4.24,IMU0,11.158536585365855,-4.451219512195122,-5.548780487804878,-0.1865234375,0.0654296875,1.091796875
848,4.24,IMU1,0.7926829268292683,-4.329268292682928,-0.12195121951219513,-0.2255859375,-0.0234375,1.0927734375
849,4.25,IMU0,11.097560975609756,-4.695121951219512,-5.731707317073171,-0.1708984375,0.0654296875,1.078125
850,4.25,IMU1,0.5487804878048781,-4.146341463414634,-0.12195121951219513,-0.2109375,-0.0244140625,1.0732421875
851,4.26,IMU0,11.158536585365855,-1.524390243902439,-5.7926829268292686,-0.158203125,0.0673828125,1.0576171875
852,4.26,IMU1,0.6707317073170732,-1.0365853658536586,0.0,-0.1962890625,-0.0234375,1.0537109375
853,4.27,IMU0,11.402439024390246,2.073170731707317,-5.670731707317073,-0.1552734375,0.0673828125,1.05078125
854,4.27,IMU1,1.0365853658536586,2.5,0.12195121951219513,-0.1943359375,-0.0244140625,1.0517578125
855,4.28,IMU0,11.585365853658537,3.5975609756097566,-5.670731707317073,-0.1650390625,0.0654296875,1.0625
856,4.28,IMU1,1.2195121951219514,4.024390243902439,0.12195121951219513,-0.2060546875,-0.025390625,1.0673828125
857,4.29,IMU0,11.585365853658537,1.829268292682927,-5.548780487804878,-0.1826171875,0.0673828125,1.08203125
858,4.29,IMU1,1.2195121951219514,2.25609756097561,0.12195121951219513,-0.22265625,-0.0244140625,1.0869140625
859,4.3,IMU0,11.219512195121952,-1.3414634146341464,-5.609756097560976,-0.1884765625,0.0693359375,1.0908203125
860,4.3,IMU1,0.9756097560975611,-0.9756097560975611,0.0,-0.2275390625,-0.0224609375,1.0947265625
861,4.31,IMU0,11.097560975609756,-3.231707317073171,-5.609756097560976,-0.1806640625,0.0693359375,1.08203125
862,4.31,IMU1,0.6707317073170732,-2.8658536585365857,-0.12195121951219513,-0.21875,-0.0234375,1.08203125
863,4.32,IMU0,11.158536585365855,-2.439024390243903,-5.609756097560976,-0.16796875,0.068359375,1.0625
864,4.32,IMU1,0.6097560975609757,-2.073170731707317,-0.06097560975609757,-0.205078125,-0.0244140625,1.0654296875
865,4.33,IMU0,11.097560975609756,0.1829268292682927,-5.609756097560976,-0.1572265625,0.06640625,1.0546875
866,4.33,IMU1,0.7926829268292683,0.48780487804878053,0.0,-0.197265625,-0.025390625,1.0546875
867,4.34,IMU0,11.463414634146343,2.1341463414634148,-5.609756097560976,-0.162109375,0.064453125,1.060546875
868,4.34,IMU1,1.0365853658536586,2.5609756097560976,0.06097560975609757,-0.2021484375,-0.02734375,1.060546875
869,4.35,IMU0,11.52439024390244,1.7682926829268295,-5.487804878048781,-0.1728515625,0.0634765625,1.0751953125
870,4.35,IMU1,1.1585365853658538,2.25609756097561,0.12195121951219513,-0.212890625,-0.02734375,1.078125
871,4.36,IMU0,11.402439024390246,-0.30487804878048785,-5.487804878048781,-0.181640625,0.06640625,1.0869140625
872,4.36,IMU1,0.9756097560975611,0.06097560975609757,0.0,-0.2216796875,-0.025390625,1.087890625
873,4.37,IMU0,11.097560975609756,-2.439024390243903,-5.426829268292684,-0.1806640625,0.068359375,1.0859375
874,4.37,IMU1,0.7926829268292683,-1.9512195121951221,-0.06097560975609757,-0.2197265625,-0.0234375,1.0859375
875,4.38,IMU0,11.036585365853659,-2.439024390243903,-5.548780487804878,-0.1689453125,0.068359375,1.072265625
876,4.38,IMU1,0.6707317073170732,-2.0121951219512195,-0.06097560975609757,-0.208984375,-0.0244140625,1.072265625
877,4.39,IMU0,11.219512195121952,-0.6097560975609757,-5.609756097560976,-0.1611328125,0.0693359375,1.05859375
878,4.39,IMU1,0.7926829268292683,-0.06097560975609757,0.0,-0.1982421875,-0.0234375,1.05859375
879,4.4,IMU0,11.463414634146343,1.6463414634146343,-5.548780487804878,-0.1591796875,0.06640625,1.0595703125
880,4.4,IMU1,0.9756097560975611,2.1341463414634148,0.12195121951219513,-0.1982421875,-0.025390625,1.05859375
881,4.41,IMU0,11.585365853658537,2.3170731707317076,-5.609756097560976,-0.1689453125,0.0654296875,1.06640625
882,4.41,IMU1,1.1585365853658538,2.682926829268293,0.12195121951219513,-0.20703125,-0.0244140625,1.0703125
883,4.42,IMU0,11.52439024390244,0.853658536585366,-5.609756097560976,-0.177734375,0.064453125,1.0810546875
884,4.42,IMU1,1.0975609756097562,1.2804878048780488,0.06097560975609757,-0.2158203125,-0.025390625,1.08203125
885,4.43,IMU0,11.28048780487805,-1.2195121951219514,-5.670731707317073,-0.181640625,0.064453125,1.083984375
886,4.43,IMU1,0.9146341463414634,-0.853658536585366,0.0,-0.2197265625,-0.0234375,1.0859375
887,4.44,IMU0,11.158536585365855,-2.1951219512195124,-5.487804878048781,-0.17578125,0.064453125,1.076171875
888,4.44,IMU1,0.7317073170731708,-1.8902439024390245,-0.06097560975609757,-0.212890625,-0.0234375,1.080078125
889,4.45,IMU0,11.219512195121952,-1.4634146341463417,-5.670731707317073,-0.16796875,0.064453125,1.064453125
890,4.45,IMU1,0.6097560975609757,-1.0365853658536586,-0.06097560975609757,-0.2060546875,-0.0244140625,1.06640625
891,4.46,IMU0,11.219512195121952,-0.6707317073170732,-5.609756097560976,-0.1650390625,0.064453125,1.0556640625
892,4.46,IMU1,0.6707317073170732,-0.1829268292682927,-0.06097560975609757,-0.205078125,-0.025390625,1.060546875
893,4.47,IMU0,11.158536585365855,-1.0365853658536586,-5.731707317073171,-0.1689453125,0.0654296875,1.0625
894,4.47,IMU1,0.853658536585366,-0.7317073170731708,-0.1829268292682927,-0.2099609375,-0.025390625,1.068359375
895,4.48,IMU0,10.975609756097562,-4.085365853658537,-6.036585365853659,-0.1806640625,0.0693359375,1.07421875
896,4.48,IMU1,0.6707317073170732,-3.780487804878049,-0.6097560975609757,-0.22265625,-0.0224609375,1.0771484375
897,4.49,IMU0,10.792682926829269,-11.585365853658537,-8.475609756097562,-0.203125,0.072265625,1.0830078125
898,4.49,IMU1,0.6707317073170732,-11.402439024390246,-3.414634146341464,-0.24609375,-0.0205078125,1.0849609375
899,4.5,IMU0,11.097560975609756,-22.80487804878049,-12.01219512195122,-0.224609375,0.06640625,1.0791015625
900,4.5,IMU1,0.9146341463414634,-22.865853658536587,-7.25609756097561,-0.2685546875,-0.0263671875,1.080078125
901,4.51,IMU0,11.52439024390244,-45.487804878048784,-20.670731707317074,-0.2109375,0.013671875,1.0771484375
902,4.51,IMU1,1.402439024390244,-45.97560975609756,-16.951219512195124,-0.2685546875,-0.078125,1.0732421875
903,4.52,IMU0,15.853658536585368,-80.3048780487805,-39.207317073170735,-0.19921875,0.0244140625,1.048828125
904,4.52,IMU1,6.219512195121951,-80.97560975609757,-36.463414634146346,-0.25390625,-0.0634765625,1.046875
905,4.53,IMU0,17.073170731707318,-102.43902439024392,-47.43902439024391,-0.18359375,0.0859375,1.0576171875
906,4.53,IMU1,7.500000000000001,-102.43902439024392,-44.93902439024391,-0.22265625,-0.0048828125,1.0615234375
907,4.54,IMU0,16.219512195121954,-102.6829268292683,-44.93902439024391,-0.1435546875,0.1044921875,1.0673828125
908,4.54,IMU1,6.585365853658537,-102.43902439024392,-42.25609756097561,-0.1767578125,0.013671875,1.0703125
909,4.55,IMU0,15.79268292682927,-86.89024390243904,-39.51219512195122,-0.109375,0.0888671875,1.0791015625
910,4.55,IMU1,5.853658536585367,-85.97560975609757,-36.58536585365854,-0.142578125,-0.0048828125,1.08203125
911,4.56,IMU0,14.146341463414636,-62.6829268292683,-35.97560975609756,-0.0595703125,0.076171875,1.083984375
912,4.56,IMU1,4.451219512195122,-61.40243902439025,-32.80487804878049,-0.095703125,-0.017578125,1.087890625
913,4.57,IMU0,13.78048780487805,-36.82926829268293,-34.51219512195122,-0.0234375,0.072265625,1.091796875
914,4.57,IMU1,4.085365853658537,-35.36585365853659,-30.426829268292686,-0.0595703125,-0.021484375,1.095703125
915,4.58,IMU0,13.29268292682927,-15.182926829268293,-31.52439024390244,-0.0048828125,0.0634765625,1.08203125
916,4.58,IMU1,3.658536585365854,-13.536585365853659,-27.012195121951223,-0.0400390625,-0.0302734375,1.0859375
917,4.59,IMU0,13.109756097560977,0.06097560975609757,-27.439024390243905,0.001953125,0.046875,1.083984375
918,4.59,IMU1,3.353658536585366,1.4634146341463417,-22.31707317073171,-0.03125,-0.046875,1.0888671875
919,4.6,IMU0,12.682926829268293,7.926829268292684,-21.76829268292683,-0.0029296875,-0.005859375,1.083984375
920,4.6,IMU1,2.804878048780488,9.146341463414634,-16.34146341463415,-0.0380859375,-0.1015625,1.0849609375
921,4.61,IMU0,12.865853658536587,13.841463414634148,-20.79268292682927,-0.005859375,-0.138671875,1.095703125
922,4.61,IMU1,2.987804878048781,15.121951219512196,-15.487804878048783,-0.052734375,-0.240234375,1.0908203125
923,4.62,IMU0,13.902439024390246,21.951219512195124,-32.987804878048784,0.017578125,-0.373046875,1.099609375
924,4.62,IMU1,4.51219512195122,23.84146341463415,-28.231707317073173,-0.0458984375,-0.4765625,1.0849609375
925,4.63,IMU0,21.463414634146343,26.09756097560976,-46.58536585365854,0.126953125,0.2373046875,1.15234375
926,4.63,IMU1,13.170731707317074,26.76829268292683,-41.09756097560976,0.09375,0.1484375,1.185546875
927,4.64,IMU0,10.426829268292684,32.86585365853659,-36.768292682926834,0.1884765625,0.1787109375,1.2216796875
928,4.64,IMU1,0.853658536585366,34.390243902439025,-30.121951219512198,0.181640625,0.0810546875,1.22265625
929,4.65,IMU0,1.3414634146341464,49.75609756097561,-9.817073170731708,0.115234375,0.1787109375,1.2333984375
930,4.65,IMU1,-9.756097560975611,51.15853658536586,-2.1951219512195124,0.0888671875,0.0830078125,1.2666015625
931,4.66,IMU0,-19.75609756097561,64.81707317073172,4.75609756097561,-0.0068359375,0.3857421875,1.2958984375
932,4.66,IMU1,-32.6829268292683,66.64634146341464,11.646341463414634,-0.060546875,0.275390625,1.3466796875
933,4.67,IMU0,-39.75609756097561,78.84146341463415,1.0365853658536586,-0.1201171875,0.05859375,1.173828125
934,4.67,IMU1,-52.926829268292686,80.79268292682927,7.987804878048781,-0.16796875,-0.0390625,1.1982421875
935,4.68,IMU0,-55.1829268292683,84.45121951219512,2.9268292682926833,-0.2373046875,-0.0517578125,1.2216796875
936,4.68,IMU1,-68.84146341463415,85.91463414634147,10.182926829268293,-0.2841796875,-0.1533203125,1.2412109375
937,4.69,IMU0,-71.95121951219512,77.8048780487805,3.536585365853659,-0.3671875,-0.1142578125,1.2666015625
938,4.69,IMU1,-86.09756097560977,78.65853658536587,10.487804878048781,-0.416015625,-0.2119140625,1.27734375
939,4.7,IMU0,-76.28048780487805,53.04878048780488,-2.1951219512195124,-0.41015625,-0.1083984375,1.3779296875
940,4.7,IMU1,-90.00000000000001,53.29268292682927,3.5975609756097566,-0.4716796875,-0.208984375,1.3740234375
941,4.71,IMU0,-70.73170731707317,34.268292682926834,-21.890243902439025,-0.3232421875,-0.087890625,1.51171875
942,4.71,IMU1,-83.41463414634147,35.487804878048784,-17.621951219512198,-0.3984375,-0.1923828125,1.5029296875
943,4.72,IMU0,-59.69512195121952,18.170731707317074,-45.73170731707317,-0.2080078125,-0.0810546875,1.7255859375
944,4.72,IMU1,-70.85365853658537,19.451219512195124,-42.19512195121951,-0.283203125,-0.1953125,1.720703125
945,4.73,IMU0,-48.35365853658537,-4.695121951219512,-57.6219512195122,-0.146484375,-0.115234375,1.9189453125
946,4.73,IMU1,-58.90243902439025,-3.7195121951219514,-54.268292682926834,-0.2099609375,-0.2412109375,1.9130859375
947,4.74,IMU0,-38.170731707317074,-36.463414634146346,-51.951219512195124,-0.19921875,-0.2021484375,2.076171875
948,4.74,IMU1,-49.085365853658544,-36.951219512195124,-48.35365853658537,-0.259765625,-0.3349609375,2.068359375
949,4.75,IMU0,-29.39024390243903,-82.31707317073172,-37.743902439024396,-0.3046875,-0.2138671875,2.1865234375
950,4.75,IMU1,-40.60975609756098,-84.39024390243902,-34.57317073170732,-0.3662109375,-0.34375,2.173828125
951,4.76,IMU0,-23.658536585365855,-123.41463414634147,-24.26829268292683,-0.330078125,-0.1171875,2.1875
952,4.76,IMU1,-35.487804878048784,-125.67073170731709,-21.707317073170735,-0.388671875,-0.244140625,2.1767578125
953,4.77,IMU0,-17.5,-151.76829268292684,-11.52439024390244,-0.2802734375,-0.029296875,2.06640625
954,4.77,IMU1,-29.26829268292683,-154.26829268292684,-9.207317073170733,-0.33203125,-0.1552734375,2.052734375
955,4.78,IMU0,-8.414634146341465,-166.82926829268294,1.8902439024390245,-0.2919921875,-0.00390625,1.86328125
956,4.78,IMU1,-20.0609756097561,-168.90243902439025,4.2682926829268295,-0.34375,-0.125,1.8310546875
957,4.79,IMU0,8.353658536585366,-160.7926829268293,11.52439024390244,-0.3994140625,-0.046875,1.50390625
958,4.79,IMU1,-1.8902439024390245,-161.70731707317074,13.841463414634148,-0.4521484375,-0.1572265625,1.4443359375
959,4.8,IMU0,36.34146341463415,-130.7926829268293,12.621951219512196,-0.4970703125,-0.1298828125,1.1494140625
960,4.8,IMU1,27.621951219512198,-130.609756097561,15.54878048780488,-0.54296875,-0.2255859375,1.0830078125
961,4.81,IMU0,66.64634146341464,-96.09756097560977,10.426829268292684,-0.4443359375,-0.19140625,0.9033203125
962,4.81,IMU1,59.32926829268293,-95.67073170731709,14.329268292682928,-0.47265625,-0.2744140625,0.8427734375
963,4.82,IMU0,92.7439024390244,-67.37804878048782,8.841463414634147,-0.294921875,-0.232421875,0.7841796875
964,4.82,IMU1,85.79268292682927,-67.43902439024392,13.658536585365855,-0.31640625,-0.310546875,0.75
965,4.83,IMU0,104.51219512195122,-57.743902439024396,7.560975609756098,-0.107421875,-0.2001953125,0.8154296875
966,4.83,IMU1,97.19512195121952,-59.146341463414636,12.74390243902439,-0.126953125,-0.2744140625,0.81640625
967,4.84,IMU0,98.04878048780489,-70.54878048780489,8.109756097560977,0.0595703125,-0.1015625,0.947265625
968,4.84,IMU1,89.02439024390245,-73.23170731707317,12.987804878048781,0.0341796875,-0.185546875,0.982421875
969,4.85,IMU0,74.08536585365854,-97.92682926829269,7.987804878048781,0.1982421875,-0.0517578125,1.1435546875
970,4.85,IMU1,63.23170731707317,-101.95121951219512,11.76829268292683,0.162109375,-0.150390625,1.197265625
971,4.86,IMU0,47.743902439024396,-146.09756097560978,0.30487804878048785,0.287109375,-0.1240234375,1.31640625
972,4.86,IMU1,35.91463414634147,-151.52439024390245,2.439024390243903,0.232421875,-0.234375,1.3544921875
973,4.87,IMU0,23.963414634146343,-199.08536585365854,-4.390243902439025,0.2373046875,-0.197265625,1.3173828125
974,4.87,IMU1,11.28048780487805,-204.81707317073173,-3.353658536585366,0.18359375,-0.3046875,1.33984375
975,4.88,IMU0,6.2804878048780495,-249.20731707317074,-7.621951219512196,0.1943359375,-0.185546875,1.2275390625
976,4.88,IMU1,-6.402439024390245,-254.81707317073173,-8.048780487804878,0.1416015625,-0.27734375,1.2373046875
977,4.89,IMU0,-2.3170731707317076,-284.9390243902439,-10.731707317073171,0.1552734375,0.015625,1.0771484375
978,4.89,IMU1,-14.939024390243905,-288.5975609756098,-11.829268292682928,0.1103515625,-0.0595703125,1.076171875
979,4.9,IMU0,-1.0975609756097562,-292.13414634146346,-10.487804878048781,0.033203125,0.25,0.87890625
980,4.9,IMU1,-13.109756097560977,-294.32926829268297,-11.52439024390244,-0.0078125,0.1806640625,0.8623046875
981,4.91,IMU0,13.04878048780488,-272.19512195121956,-8.231707317073171,-0.1279296875,0.38671875,0.677734375
982,4.91,IMU1,2.6219512195121952,-272.6219512195122,-8.597560975609756,-0.158203125,0.3193359375,0.650390625
983,4.92,IMU0,38.41463414634147,-233.90243902439028,-6.341463414634147,-0.1826171875,0.416015625,0.54296875
984,4.92,IMU1,29.634146341463417,-233.2926829268293,-5.609756097560976,-0.19921875,0.345703125,0.509765625
985,4.93,IMU0,68.84146341463415,-184.69512195121953,-8.658536585365855,-0.0927734375,0.3525390625,0.4697265625
986,4.93,IMU1,61.82926829268293,-183.2317073170732,-7.134146341463415,-0.107421875,0.28125,0.4423828125
987,4.94,IMU0,96.40243902439025,-134.69512195121953,-15.487804878048783,0.044921875,0.2421875,0.5126953125
988,4.94,IMU1,90.54878048780489,-132.8658536585366,-12.926829268292684,0.0283203125,0.1650390625,0.501953125
989,4.95,IMU0,112.92682926829269,-95.85365853658537,-20.975609756097562,0.1884765625,0.1474609375,0.6259765625
990,4.95,IMU1,106.95121951219514,-94.75609756097562,-17.25609756097561,0.1748046875,0.0703125,0.6357421875
991,4.96,IMU0,112.01219512195122,-75.85365853658537,-19.146341463414636,0.3369140625,0.0986328125,0.7080078125
992,4.96,IMU1,104.81707317073172,-75.42682926829269,-14.207317073170733,0.328125,0.013671875,0.7353515625
993,4.97,IMU0,105.73170731707317,-62.31707317073171,-13.414634146341465,0.4677734375,0.0283203125,0.81640625
994,4.97,IMU1,98.10975609756099,-62.560975609756106,-8.170731707317074,0.44921875,-0.0625,0.84375
995,4.98,IMU0,96.28048780487806,-57.6829268292683,-8.78048780487805,0.533203125,-0.015625,0.8203125
996,4.98,IMU1,87.8658536585366,-58.35365853658537,-3.414634146341464,0.5107421875,-0.1044921875,0.8447265625
997,4.99,IMU0,85.1829268292683,-55.0609756097561,-4.634146341463415,0.55078125,-0.0146484375,0.7724609375
998,4.99,IMU1,76.58536585365854,-55.85365853658537,0.5487804878048781,0.5244140625,-0.09375,0.7939453125
999,5.0,IMU0,78.84146341463415,-55.60975609756098,-0.6097560975609757,0.53125,0.048828125,0.7138671875
1000,5.0,IMU1,70.2439024390244,-56.707317073170735,4.817073170731708,0.505859375,-0.0234375,0.7265625
1001,5.01,IMU0,76.21951219512196,-54.51219512195122,4.878048780487806,0.4443359375,0.1640625,0.6337890625
1002,5.01,IMU1,67.43902439024392,-55.00000000000001,10.30487804878049,0.41015625,0.0986328125,0.6484375
1003,5.02,IMU0,72.01219512195122,-40.36585365853659,4.878048780487806,0.2666015625,0.3056640625,0.548828125
1004,5.02,IMU1,63.17073170731708,-39.390243902439025,10.0,0.2265625,0.2431640625,0.55859375
1005,5.03,IMU0,70.3048780487805,-14.51219512195122,-1.5853658536585367,0.140625,0.361328125,0.427734375
1006,5.03,IMU1,62.13414634146342,-12.439024390243903,3.780487804878049,0.10546875,0.29296875,0.43359375
1007,5.04,IMU0,71.89024390243902,16.03658536585366,-9.573170731707318,0.1064453125,0.3037109375,0.3349609375
1008,5.04,IMU1,64.51219512195122,18.84146341463415,-3.780487804878049,0.0810546875,0.2333984375,0.3369140625
1009,5.05,IMU0,75.3048780487805,44.146341463414636,-16.402439024390244,0.1396484375,0.21484375,0.2744140625
1010,5.05,IMU1,68.23170731707317,47.07317073170732,-10.121951219512196,0.1181640625,0.146484375,0.2763671875
1011,5.06,IMU0,76.52439024390245,64.9390243902439,-20.182926829268293,0.171875,0.126953125,0.2509765625
1012,5.06,IMU1,69.45121951219512,67.25609756097562,-13.04878048780488,0.158203125,0.060546875,0.2607421875
1013,5.07,IMU0,72.8048780487805,73.47560975609757,-15.975609756097562,0.21484375,0.0947265625,0.2451171875
1014,5.07,IMU1,64.9390243902439,74.87804878048782,-7.743902439024391,0.2138671875,0.0361328125,0.2587890625
1015,5.08,IMU0,62.25609756097562,75.67073170731707,-5.0,0.2822265625,0.109375,0.1943359375
1016,5.08,IMU1,53.04878048780488,76.76829268292684,3.7195121951219514,0.2861328125,0.048828125,0.2138671875
1017,5.09,IMU0,46.89024390243903,77.6219512195122,5.548780487804878,0.3603515625,0.1005859375,0.126953125
1018,5.09,IMU1,36.40243902439025,78.47560975609757,14.26829268292683,0.36328125,0.0400390625,0.150390625
1019,5.1,IMU0,29.512195121951223,78.71951219512196,12.256097560975611,0.4462890625,0.0732421875,0.05859375
1020,5.1,IMU1,18.231707317073173,79.45121951219512,20.670731707317074,0.447265625,0.0166015625,0.0810546875
1021,5.11,IMU0,14.390243902439027,77.7439024390244,16.52439024390244,0.5244140625,0.0673828125,0.0078125
1022,5.11,IMU1,3.8414634146341466,78.41463414634147,24.512195121951223,0.5244140625,0.017578125,0.0244140625
1023,5.12,IMU0,6.646341463414635,80.3048780487805,19.451219512195124,0.5361328125,0.09375,-0.0810546875
1024,5.12,IMU1,-4.024390243902439,80.79268292682927,27.439024390243905,0.5263671875,0.0458984375,-0.07421875
1025,5.13,IMU0,1.0975609756097562,93.47560975609757,16.585365853658537,0.435546875,0.0810546875,-0.1953125
1026,5.13,IMU1,-9.756097560975611,94.26829268292684,24.75609756097561,0.4140625,0.029296875,-0.1943359375
1027,5.14,IMU0,-6.52439024390244,115.06097560975611,7.500000000000001,0.32421875,-0.0078125,-0.35546875
1028,5.14,IMU1,-17.25609756097561,116.34146341463416,16.158536585365855,0.3056640625,-0.05859375,-0.35546875
1029,5.15,IMU0,-18.04878048780488,141.40243902439025,-1.829268292682927,0.232421875,-0.1376953125,-0.50390625
1030,5.15,IMU1,-29.02439024390244,143.2317073170732,7.01219512195122,0.2314453125,-0.1708984375,-0.486328125
1031,5.16,IMU0,-35.79268292682927,169.63414634146343,-8.414634146341465,0.1474609375,-0.24609375,-0.5322265625
1032,5.16,IMU1,-47.07317073170732,172.07317073170734,0.6707317073170732,0.1513671875,-0.2783203125,-0.515625
1033,5.17,IMU0,-58.84146341463415,194.39024390243904,-11.219512195121952,0.052734375,-0.341796875,-0.4189453125
1034,5.17,IMU1,-70.85365853658537,197.37804878048783,-1.707317073170732,0.0576171875,-0.37890625,-0.40234375
1035,5.18,IMU0,-83.29268292682927,202.13414634146343,-10.24390243902439,-0.0556640625,-0.419921875,-0.2138671875
1036,5.18,IMU1,-96.34146341463415,205.4878048780488,-0.7317073170731708,-0.0595703125,-0.462890625,-0.203125
1037,5.19,IMU0,-101.15853658536587,225.3658536585366,-14.756097560975611,-0.1083984375,-0.412109375,0.0625
1038,5.19,IMU1,-114.81707317073172,229.14634146341464,-5.0,-0.125,-0.46484375,0.0634765625
1039,5.2,IMU0,-108.71951219512196,237.8048780487805,-22.5609756097561,-0.1689453125,-0.2998046875,0.5166015625
1040,5.2,IMU1,-122.62195121951221,242.19512195121953,-12.80487804878049,-0.19921875,-0.3671875,0.5107421875
1041,5.21,IMU0,-110.73170731707319,239.75609756097563,-31.09756097560976,-0.234375,-0.130859375,0.9833984375
1042,5.21,IMU1,-124.26829268292684,244.57317073170734,-21.585365853658537,-0.2724609375,-0.21484375,0.9765625
1043,5.22,IMU0,-107.50000000000001,230.4878048780488,-33.71951219512196,-0.2958984375,0.0537109375,1.466796875
1044,5.22,IMU1,-120.91463414634147,235.18292682926833,-24.390243902439025,-0.337890625,-0.0478515625,1.4619140625
1045,5.23,IMU0,-101.70731707317074,200.1829268292683,-28.231707317073173,-0.3662109375,0.2158203125,1.8525390625
1046,5.23,IMU1,-114.87804878048782,204.26829268292684,-19.573170731707318,-0.412109375,0.099609375,1.849609375
1047,5.24,IMU0,-92.98780487804879,158.47560975609758,-20.121951219512198,-0.44140625,0.3330078125,2.0830078125
1048,5.24,IMU1,-106.46341463414635,161.82926829268294,-11.951219512195124,-0.4931640625,0.208984375,2.0771484375
1049,5.25,IMU0,-81.95121951219512,132.9268292682927,-12.378048780487806,-0.5107421875,0.365234375,2.150390625
1050,5.25,IMU1,-95.1829268292683,135.6707317073171,-4.51219512195122,-0.5654296875,0.23828125,2.142578125
1051,5.26,IMU0,-68.17073170731707,110.3658536585366,-3.353658536585366,-0.556640625,0.3388671875,2.189453125
1052,5.26,IMU1,-81.09756097560977,112.43902439024392,4.2682926829268295,-0.609375,0.2119140625,2.173828125
1053,5.27,IMU0,-51.951219512195124,94.14634146341464,6.52439024390244,-0.5283203125,0.2919921875,2.185546875
1054,5.27,IMU1,-64.75609756097562,95.60975609756099,14.146341463414636,-0.583984375,0.1640625,2.1689453125
1055,5.28,IMU0,-33.90243902439025,83.23170731707317,13.414634146341465,-0.4638671875,0.2099609375,2.1689453125
1056,5.28,IMU1,-46.15853658536586,84.39024390243902,21.03658536585366,-0.5234375,0.080078125,2.1494140625
1057,5.29,IMU0,-15.731707317073171,75.3048780487805,16.646341463414636,-0.376953125,0.0986328125,2.1083984375
1058,5.29,IMU1,-27.5609756097561,76.09756097560977,24.390243902439025,-0.44140625,-0.029296875,2.08984375
1059,5.3,IMU0,0.426829268292683,68.29268292682927,16.76829268292683,-0.29296875,-0.0205078125,2.0703125
1060,5.3,IMU1,-10.792682926829269,68.90243902439025,24.390243902439025,-0.36328125,-0.1513671875,2.052734375
1061,5.31,IMU0,13.78048780487805,53.90243902439025,15.000000000000002,-0.21875,-0.12109375,2.0556640625
1062,5.31,IMU1,2.987804878048781,54.085365853658544,22.500000000000004,-0.2890625,-0.2509765625,2.0400390625
1063,5.32,IMU0,23.170731707317074,33.109756097560975,12.500000000000002,-0.1328125,-0.1826171875,2.0087890625
1064,5.32,IMU1,12.682926829268293,33.109756097560975,19.512195121951223,-0.2041015625,-0.310546875,1.998046875
1065,5.33,IMU0,28.292682926829272,16.03658536585366,8.719512195121952,-0.0517578125,-0.208984375,1.94921875
1066,5.33,IMU1,18.04878048780488,15.853658536585368,15.243902439024392,-0.1201171875,-0.3349609375,1.9453125
1067,5.34,IMU0,29.939024390243905,0.06097560975609757,6.036585365853659,-0.0361328125,-0.23046875,1.8662109375
1068,5.34,IMU1,19.573170731707318,-0.30487804878048785,12.256097560975611,-0.1005859375,-0.353515625,1.861328125
1069,5.35,IMU0,30.0609756097561,-16.402439024390244,6.585365853658537,-0.060546875,-0.2255859375,1.73046875
1070,5.35,IMU1,19.81707317073171,-16.890243902439025,12.378048780487806,-0.1171875,-0.3447265625,1.7255859375
1071,5.36,IMU0,30.243902439024392,-27.195121951219516,10.24390243902439,-0.08203125,-0.16796875,1.541015625
1072,5.36,IMU1,19.81707317073171,-27.80487804878049,15.914634146341465,-0.1318359375,-0.2802734375,1.5361328125
1073,5.37,IMU0,33.109756097560975,-29.81707317073171,13.719512195121952,-0.1318359375,-0.0927734375,1.3359375
1074,5.37,IMU1,22.80487804878049,-30.365853658536587,19.26829268292683,-0.1767578125,-0.1953125,1.3251953125
1075,5.38,IMU0,40.487804878048784,-22.926829268292686,14.817073170731708,-0.2119140625,-0.056640625,1.12109375
1076,5.38,IMU1,30.426829268292686,-23.414634146341466,20.54878048780488,-0.2568359375,-0.150390625,1.103515625
1077,5.39,IMU0,48.90243902439025,-8.292682926829269,13.902439024390246,-0.2578125,-0.04296875,0.9560546875
1078,5.39,IMU1,39.32926829268293,-8.353658536585366,20.0609756097561,-0.2958984375,-0.130859375,0.9375
1079,5.4,IMU0,56.82926829268293,15.121951219512196,13.841463414634148,-0.26953125,-0.048828125,0.8681640625
1080,5.4,IMU1,47.5609756097561,15.365853658536587,20.60975609756098,-0.3046875,-0.1328125,0.853515625
1081,5.41,IMU0,59.87804878048781,41.463414634146346,10.30487804878049,-0.25,-0.03515625,0.9130859375
1082,5.41,IMU1,51.03658536585366,42.13414634146342,17.439024390243905,-0.2919921875,-0.1181640625,0.90625
1083,5.42,IMU0,57.25609756097561,59.63414634146342,3.414634146341464,-0.16796875,-0.0087890625,1.041015625
1084,5.42,IMU1,48.53658536585366,60.304878048780495,10.914634146341465,-0.2138671875,-0.09765625,1.0458984375
1085,5.43,IMU0,49.085365853658544,59.93902439024391,-1.707317073170732,-0.064453125,0.0185546875,1.1962890625
1086,5.43,IMU1,39.87804878048781,60.426829268292686,5.670731707317073,-0.1103515625,-0.0771484375,1.21484375
1087,5.44,IMU0,34.75609756097561,45.73170731707317,-3.536585365853659,0.0068359375,0.0322265625,1.2919921875
1088,5.44,IMU1,24.695121951219516,45.97560975609756,3.353658536585366,-0.0390625,-0.0673828125,1.3173828125
1089,5.45,IMU0,18.170731707317074,27.134146341463417,-2.6219512195121952,0.0302734375,0.0400390625,1.2783203125
1090,5.45,IMU1,7.621951219512196,27.195121951219516,3.7195121951219514,-0.0146484375,-0.0595703125,1.30078125
1091,5.46,IMU0,5.2439024390243905,12.621951219512196,-2.5,0.001953125,0.0458984375,1.2041015625
1092,5.46,IMU1,-5.7926829268292686,12.80487804878049,3.414634146341464,-0.044921875,-0.05078125,1.2177734375
1093,5.47,IMU0,-2.804878048780488,4.817073170731708,-4.573170731707317,-0.03515625,0.0517578125,1.1259765625
1094,5.47,IMU1,-13.963414634146343,5.2439024390243905,0.9756097560975611,-0.0830078125,-0.041015625,1.1376953125
1095,5.48,IMU0,-6.829268292682928,2.682926829268293,-8.048780487804878,-0.06640625,0.0439453125,1.0771484375
1096,5.48,IMU1,-17.865853658536587,3.353658536585366,-2.5609756097560976,-0.111328125,-0.0478515625,1.0810546875
1097,5.49,IMU0,-8.597560975609756,3.780487804878049,-11.463414634146343,-0.0791015625,0.02734375,1.0576171875
1098,5.49,IMU1,-19.573170731707318,4.390243902439025,-6.219512195121951,-0.1220703125,-0.064453125,1.0595703125
1099,5.5,IMU0,-10.426829268292684,4.75609756097561,-14.878048780487806,-0.0732421875,0.0146484375,1.0615234375
1100,5.5,IMU1,-21.463414634146343,5.487804878048781,-9.695121951219512,-0.1162109375,-0.07421875,1.064453125
1101,5.51,IMU0,-5.365853658536586,-8.841463414634147,-15.30487804878049,-0.18359375,0.01171875,1.41796875
1102,5.51,IMU1,-15.487804878048783,-10.0,-10.121951219512196,-0.224609375,-0.09375,1.375
1103,5.52,IMU0,5.853658536585367,-32.743902439024396,-17.5609756097561,-0.1142578125,0.056640625,1.2236328125
1104,5.52,IMU1,-4.51219512195122,-32.80487804878049,-13.04878048780488,-0.15625,-0.0380859375,1.2119140625
1105,5.53,IMU0,10.792682926829269,-36.82926829268293,-16.34146341463415,-0.1005859375,0.1103515625,1.1533203125
1106,5.53,IMU1,0.5487804878048781,-36.40243902439025,-11.585365853658537,-0.1357421875,0.0146484375,1.1533203125
1107,5.54,IMU0,12.865853658536587,-30.30487804878049,-13.109756097560977,-0.111328125,0.0830078125,1.123046875
1108,5.54,IMU1,2.7439024390243905,-29.75609756097561,-8.170731707317074,-0.1484375,-0.009765625,1.1240234375
1109,5.55,IMU0,13.841463414634148,-19.81707317073171,-10.975609756097562,-0.1025390625,0.07421875,1.1064453125
1110,5.55,IMU1,3.4756097560975614,-19.146341463414636,-5.670731707317073,-0.1396484375,-0.0185546875,1.1103515625
1111,5.56,IMU0,13.841463414634148,-9.390243902439025,-9.26829268292683,-0.115234375,0.05859375,1.095703125
1112,5.56,IMU1,3.7195121951219514,-8.78048780487805,-3.9024390243902443,-0.1533203125,-0.033203125,1.1005859375
1113,5.57,IMU0,12.987804878048781,-3.414634146341464,-8.597560975609756,-0.1298828125,0.0634765625,1.0947265625
1114,5.57,IMU1,2.6219512195121952,-2.9268292682926833,-2.9268292682926833,-0.1669921875,-0.0283203125,1.0986328125
1115,5.58,IMU0,12.256097560975611,0.48780487804878053,-6.707317073170732,-0.1357421875,0.0693359375,1.07421875
1116,5.58,IMU1,1.9512195121951221,1.1585365853658538,-0.9756097560975611,-0.171875,-0.0234375,1.0732421875
1117,5.59,IMU0,14.634146341463415,4.329268292682928,-7.378048780487806,-0.1337890625,0.0576171875,1.0458984375
1118,5.59,IMU1,4.573170731707317,5.060975609756098,-1.707317073170732,-0.1748046875,-0.0341796875,1.0419921875
1119,5.6,IMU0,19.939024390243905,7.560975609756098,-10.182926829268293,-0.1357421875,0.0498046875,1.03125
1120,5.6,IMU1,10.0,8.292682926829269,-4.451219512195122,-0.1767578125,-0.041015625,1.025390625
1121,5.61,IMU0,26.03658536585366,8.414634146341465,-12.80487804878049,-0.146484375,0.0458984375,1.029296875
1122,5.61,IMU1,16.402439024390244,9.207317073170733,-7.073170731707318,-0.185546875,-0.044921875,1.025390625
1123,5.62,IMU0,31.34146341463415,5.670731707317073,-14.573170731707318,-0.1494140625,0.0556640625,1.033203125
1124,5.62,IMU1,22.073170731707318,6.158536585365854,-8.841463414634147,-0.1865234375,-0.0341796875,1.0283203125
1125,5.63,IMU0,37.01219512195122,0.06097560975609757,-14.817073170731708,-0.1484375,0.0654296875,1.0224609375
1126,5.63,IMU1,28.04878048780488,0.426829268292683,-9.146341463414634,-0.1845703125,-0.0244140625,1.015625
1127,5.64,IMU0,44.69512195121952,-6.52439024390244,-15.000000000000002,-0.16015625,0.056640625,1.0107421875
1128,5.64,IMU1,35.97560975609756,-6.463414634146342,-9.51219512195122,-0.1982421875,-0.03515625,1.0048828125
1129,5.65,IMU0,51.09756097560976,-18.475609756097562,-17.134146341463417,-0.2158203125,0.056640625,1.2548828125
1130,5.65,IMU1,41.646341463414636,-20.670731707317074,-12.073170731707318,-0.271484375,-0.037109375,1.3203125
