,ts,id,Gx,Gy,Gz,Ax,Ay,Az
0,-0.014,IMU0,7.195121951219513,2.5609756097560976,12.073170731707318,4.0595703125,-0.1552734375,-1.6220703125
1,-0.014,IMU1,8.536585365853659,1.829268292682927,12.500000000000002,4.033203125,-0.078125,-1.6826171875
2,-0.014,IMU2,7.865853658536586,2.8658536585365857,11.951219512195124,4.0478515625,-0.1357421875,-1.6669921875
3,-0.004,IMU0,6.7682926829268295,0.9146341463414634,11.76829268292683,4.181640625,-0.1875,-1.65625
4,-0.004,IMU1,8.536585365853659,-0.06097560975609757,11.707317073170733,4.1474609375,-0.1318359375,-1.673828125
5,-0.004,IMU2,7.8048780487804885,1.1585365853658538,11.097560975609756,4.1572265625,-0.1796875,-1.6875
6,0.006,IMU0,5.670731707317073,-1.402439024390244,9.207317073170733,4.2333984375,-0.1728515625,-1.7197265625
7,0.006,IMU1,7.987804878048781,-2.8658536585365857,9.085365853658537,4.201171875,-0.1357421875,-1.6640625
8,0.006,IMU2,6.585365853658537,-1.2804878048780488,8.536585365853659,4.2099609375,-0.1943359375,-1.65625
9,0.016,IMU0,5.3048780487804885,-2.439024390243903,7.317073170731708,4.27734375,-0.166015625,-1.73828125
10,0.016,IMU1,7.682926829268293,-3.658536585365854,7.560975609756098,4.25,-0.1171875,-1.68359375
11,0.016,IMU2,6.7682926829268295,-2.25609756097561,7.134146341463415,4.2646484375,-0.18359375,-1.6591796875
12,0.026,IMU0,6.036585365853659,-1.707317073170732,6.951219512195123,4.375,-0.197265625,-1.7802734375
13,0.026,IMU1,8.292682926829269,-2.682926829268293,7.134146341463415,4.35546875,-0.1337890625,-1.77734375
14,0.026,IMU2,7.317073170731708,-1.3414634146341464,6.585365853658537,4.3642578125,-0.1982421875,-1.73828125
15,0.036,IMU0,3.536585365853659,-0.5487804878048781,5.975609756097562,4.4521484375,-0.1865234375,-1.7724609375
16,0.036,IMU1,5.731707317073171,-1.5853658536585367,6.097560975609756,4.427734375,-0.1171875,-1.7861328125
17,0.036,IMU2,4.51219512195122,-0.12195121951219513,5.670731707317073,4.43359375,-0.1787109375,-1.75390625
18,0.046,IMU0,2.682926829268293,1.7682926829268295,6.7682926829268295,4.5498046875,-0.18359375,-1.8359375
19,0.046,IMU1,5.060975609756098,0.9756097560975611,6.951219512195123,4.509765625,-0.119140625,-1.8212890625
20,0.046,IMU2,3.5975609756097566,2.1951219512195124,6.463414634146342,4.5224609375,-0.1806640625,-1.80078125
21,0.056,IMU0,1.4634146341463417,0.853658536585366,6.646341463414635,4.5546875,-0.203125,-1.7900390625
22,0.056,IMU1,4.085365853658537,-0.30487804878048785,6.890243902439025,4.537109375,-0.14453125,-1.7998046875
23,0.056,IMU2,2.1951219512195124,0.7317073170731708,6.2804878048780495,4.53515625,-0.1982421875,-1.7822265625
24,0.066,IMU0,-0.3658536585365854,-1.0975609756097562,4.878048780487806,4.595703125,-0.2138671875,-1.7880859375
25,0.066,IMU1,2.0121951219512195,-2.3170731707317076,5.060975609756098,4.552734375,-0.1494140625,-1.7734375
26,0.066,IMU2,0.3658536585365854,-1.1585365853658538,4.51219512195122,4.5703125,-0.208984375,-1.7646484375
27,0.076,IMU0,-1.524390243902439,-2.378048780487805,3.048780487804878,4.58203125,-0.2109375,-1.822265625
28,0.076,IMU1,0.48780487804878053,-3.4756097560975614,3.231707317073171,4.5390625,-0.1455078125,-1.8056640625
29,0.076,IMU2,-0.426829268292683,-2.1951219512195124,2.5609756097560976,4.552734375,-0.203125,-1.810546875
30,0.086,IMU0,-1.524390243902439,-3.536585365853659,5.060975609756098,4.474609375,-0.1513671875,-1.8125
31,0.086,IMU1,0.9756097560975611,-4.817073170731708,5.182926829268293,4.4384765625,-0.087890625,-1.802734375
32,0.086,IMU2,-0.7926829268292683,-3.414634146341464,4.878048780487806,4.4716796875,-0.1533203125,-1.822265625
33,0.096,IMU0,-0.48780487804878053,-0.426829268292683,8.353658536585366,4.4677734375,-0.138671875,-1.8193359375
34,0.096,IMU1,2.1341463414634148,-1.2804878048780488,8.414634146341465,4.427734375,-0.07421875,-1.82421875
35,0.096,IMU2,0.30487804878048785,0.24390243902439027,7.743902439024391,4.4560546875,-0.142578125,-1.818359375
36,0.106,IMU0,1.0365853658536586,-0.5487804878048781,9.146341463414634,4.5205078125,-0.1748046875,-1.818359375
37,0.106,IMU1,3.5975609756097566,-1.402439024390244,9.26829268292683,4.4775390625,-0.109375,-1.826171875
38,0.106,IMU2,2.073170731707317,-0.06097560975609757,8.719512195121952,4.4892578125,-0.1826171875,-1.7998046875
39,0.116,IMU0,-0.853658536585366,-4.817073170731708,5.914634146341464,4.5185546875,-0.0791015625,-1.845703125
40,0.116,IMU1,2.073170731707317,-5.975609756097562,5.975609756097562,4.4794921875,-0.015625,-1.845703125
41,0.116,IMU2,0.7926829268292683,-4.451219512195122,5.609756097560976,4.4970703125,-0.1005859375,-1.8056640625
42,0.126,IMU0,2.5,-7.317073170731708,10.975609756097562,4.3828125,-0.025390625,-1.8017578125
43,0.126,IMU1,4.939024390243903,-8.658536585365855,11.036585365853659,4.3486328125,0.033203125,-1.7998046875
44,0.126,IMU2,4.085365853658537,-7.317073170731708,10.792682926829269,4.3740234375,-0.037109375,-1.76171875
45,0.136,IMU0,3.5975609756097566,-6.52439024390244,12.256097560975611,4.330078125,-0.0078125,-1.8046875
46,0.136,IMU1,5.853658536585367,-7.621951219512196,12.317073170731708,4.2900390625,0.048828125,-1.7900390625
47,0.136,IMU2,4.817073170731708,-6.219512195121951,11.890243902439025,4.3173828125,-0.0126953125,-1.76171875
48,0.146,IMU0,5.2439024390243905,1.0975609756097562,10.365853658536587,4.2578125,-0.06640625,-1.7392578125
49,0.146,IMU1,7.134146341463415,0.1829268292682927,10.609756097560977,4.2138671875,-0.0107421875,-1.734375
50,0.146,IMU2,6.158536585365854,1.524390243902439,10.365853658536587,4.228515625,-0.0732421875,-1.7119140625
51,0.156,IMU0,2.804878048780488,3.1097560975609757,5.670731707317073,4.1962890625,-0.033203125,-1.7333984375
52,0.156,IMU1,5.3048780487804885,2.1341463414634148,5.975609756097562,4.15625,0.0224609375,-1.7333984375
53,0.156,IMU2,3.658536585365854,3.1707317073170733,5.670731707317073,4.1767578125,-0.0361328125,-1.7021484375
54,0.166,IMU0,2.3170731707317076,4.024390243902439,4.451219512195122,4.2138671875,-0.0087890625,-1.7109375
55,0.166,IMU1,5.3048780487804885,2.7439024390243905,4.634146341463415,4.177734375,0.046875,-1.708984375
56,0.166,IMU2,3.414634146341464,4.329268292682928,4.085365853658537,4.2041015625,-0.0087890625,-1.685546875
57,0.176,IMU0,2.682926829268293,-1.1585365853658538,6.158536585365854,4.177734375,0.0078125,-1.6962890625
58,0.176,IMU1,5.914634146341464,-2.378048780487805,6.2804878048780495,4.1416015625,0.0625,-1.6943359375
59,0.176,IMU2,4.451219512195122,-0.9756097560975611,5.731707317073171,4.162109375,0.0107421875,-1.654296875
60,0.186,IMU0,-0.06097560975609757,-1.707317073170732,3.1097560975609757,4.1083984375,-0.048828125,-1.6904296875
61,0.186,IMU1,2.5609756097560976,-2.9268292682926833,3.353658536585366,4.0673828125,0.0048828125,-1.6796875
62,0.186,IMU2,1.3414634146341464,-1.707317073170732,2.9268292682926833,4.0830078125,-0.048828125,-1.6396484375
63,0.196,IMU0,1.3414634146341464,1.7682926829268295,1.707317073170732,4.0595703125,-0.025390625,-1.7041015625
64,0.196,IMU1,3.7195121951219514,0.24390243902439027,1.8902439024390245,4.0185546875,0.0283203125,-1.68359375
65,0.196,IMU2,2.5609756097560976,1.4634146341463417,1.4634146341463417,4.0283203125,-0.02734375,-1.646484375
66,0.206,IMU0,1.2804878048780488,3.536585365853659,2.682926829268293,4.0517578125,-0.005859375,-1.7041015625
67,0.206,IMU1,3.353658536585366,2.073170731707317,2.7439024390243905,4.021484375,0.0517578125,-1.6875
68,0.206,IMU2,2.0121951219512195,3.231707317073171,2.0121951219512195,4.0400390625,0.001953125,-1.6591796875
69,0.216,IMU0,0.06097560975609757,1.5853658536585367,2.8658536585365857,4.04296875,-0.0478515625,-1.6728515625
70,0.216,IMU1,2.682926829268293,0.30487804878048785,2.987804878048781,4.0078125,0.0068359375,-1.6474609375
71,0.216,IMU2,0.9756097560975611,2.5609756097560976,2.5,4.0234375,-0.0400390625,-1.6142578125
72,0.226,IMU0,0.0,2.5609756097560976,-0.24390243902439027,4.0771484375,-0.0595703125,-1.703125
73,0.226,IMU1,1.829268292682927,1.6463414634146343,0.06097560975609757,4.0380859375,-0.0048828125,-1.673828125
74,0.226,IMU2,0.6707317073170732,3.1707317073170733,-0.3658536585365854,4.044921875,-0.056640625,-1.654296875
75,0.236,IMU0,0.12195121951219513,-1.1585365853658538,-0.426829268292683,4.013671875,-0.0185546875,-1.65625
76,0.236,IMU1,1.9512195121951221,-2.3170731707317076,-0.1829268292682927,3.978515625,0.03515625,-1.6328125
77,0.236,IMU2,0.7926829268292683,-0.6097560975609757,-0.7317073170731708,3.9892578125,-0.0146484375,-1.626953125
78,0.246,IMU0,-0.1829268292682927,-2.1951219512195124,1.524390243902439,3.9287109375,-0.0712890625,-1.626953125
79,0.246,IMU1,2.0121951219512195,-3.414634146341464,1.707317073170732,3.8935546875,-0.0166015625,-1.615234375
80,0.246,IMU2,0.853658536585366,-1.829268292682927,1.2195121951219514,3.90625,-0.0595703125,-1.62109375
81,0.256,IMU0,-0.6707317073170732,1.7682926829268295,2.1951219512195124,3.8193359375,-0.0625,-1.6220703125
82,0.256,IMU1,1.707317073170732,0.48780487804878053,2.3170731707317076,3.78515625,-0.0068359375,-1.611328125
83,0.256,IMU2,0.48780487804878053,1.8902439024390245,1.829268292682927,3.7978515625,-0.0498046875,-1.5966796875
84,0.266,IMU0,-0.7926829268292683,1.524390243902439,3.353658536585366,3.759765625,-0.048828125,-1.57421875
85,0.266,IMU1,1.0975609756097562,0.3658536585365854,3.536585365853659,3.7255859375,0.005859375,-1.5654296875
86,0.266,IMU2,0.30487804878048785,1.7682926829268295,2.987804878048781,3.73828125,-0.0400390625,-1.548828125
87,0.276,IMU0,-1.707317073170732,2.439024390243903,4.207317073170732,3.7099609375,-0.0654296875,-1.537109375
88,0.276,IMU1,-0.3658536585365854,1.2804878048780488,4.451219512195122,3.6796875,-0.009765625,-1.5283203125
89,0.276,IMU2,-1.1585365853658538,2.25609756097561,3.8414634146341466,3.6923828125,-0.056640625,-1.5087890625
90,0.286,IMU0,-0.9146341463414634,3.536585365853659,2.5,3.7236328125,-0.08203125,-1.5361328125
91,0.286,IMU1,0.1829268292682927,2.7439024390243905,2.8658536585365857,3.6875,-0.0283203125,-1.5185546875
92,0.286,IMU2,0.06097560975609757,3.536585365853659,2.25609756097561,3.6943359375,-0.0791015625,-1.4951171875
93,0.296,IMU0,-2.7439024390243905,8.353658536585366,-1.6463414634146343,3.66796875,-0.0625,-1.5458984375
94,0.296,IMU1,-1.7682926829268295,7.317073170731708,-1.2804878048780488,3.638671875,-0.01171875,-1.529296875
95,0.296,IMU2,-2.073170731707317,8.597560975609756,-1.9512195121951221,3.650390625,-0.0634765625,-1.5078125
96,0.306,IMU0,-0.853658536585366,1.707317073170732,2.073170731707317,3.572265625,-0.0654296875,-1.5166015625
97,0.306,IMU1,1.2804878048780488,0.5487804878048781,2.25609756097561,3.5400390625,-0.0166015625,-1.5
98,0.306,IMU2,0.12195121951219513,2.1341463414634148,1.7682926829268295,3.5517578125,-0.068359375,-1.48046875
99,0.316,IMU0,-0.9756097560975611,4.634146341463415,1.402439024390244,3.54296875,-0.07421875,-1.5087890625
100,0.316,IMU1,1.0975609756097562,3.353658536585366,1.5853658536585367,3.5068359375,-0.0244140625,-1.4892578125
101,0.316,IMU2,0.48780487804878053,4.695121951219512,1.0975609756097562,3.513671875,-0.07421875,-1.47265625
102,0.326,IMU0,-1.9512195121951221,5.487804878048781,-0.30487804878048785,3.4677734375,-0.0986328125,-1.548828125
103,0.326,IMU1,-0.30487804878048785,4.207317073170732,0.0,3.427734375,-0.048828125,-1.5322265625
104,0.326,IMU2,-0.1829268292682927,5.853658536585367,-0.6707317073170732,3.431640625,-0.0966796875,-1.5185546875
105,0.336,IMU0,-1.707317073170732,13.231707317073171,-4.146341463414634,3.4619140625,-0.103515625,-1.5830078125
106,0.336,IMU1,0.426829268292683,11.829268292682928,-3.9024390243902443,3.4208984375,-0.0546875,-1.5615234375
107,0.336,IMU2,-0.3658536585365854,13.475609756097562,-4.390243902439025,3.4228515625,-0.103515625,-1.544921875
108,0.346,IMU0,-2.3170731707317076,16.76829268292683,-5.670731707317073,3.4375,-0.0537109375,-1.544921875
109,0.346,IMU1,-0.3658536585365854,15.182926829268293,-5.426829268292684,3.408203125,-0.00390625,-1.533203125
110,0.346,IMU2,-1.0365853658536586,17.195121951219512,-5.975609756097562,3.421875,-0.052734375,-1.525390625
111,0.356,IMU0,-0.6097560975609757,21.646341463414636,-4.085365853658537,3.44921875,-0.0830078125,-1.5595703125
112,0.356,IMU1,1.4634146341463417,20.48780487804878,-3.780487804878049,3.41796875,-0.0322265625,-1.548828125
113,0.356,IMU2,0.853658536585366,22.378048780487806,-4.2682926829268295,3.4267578125,-0.0810546875,-1.5361328125
114,0.366,IMU0,-0.7317073170731708,23.10975609756098,-3.1707317073170733,3.376953125,-0.037109375,-1.5390625
115,0.366,IMU1,1.0365853658536586,21.76829268292683,-2.987804878048781,3.353515625,0.0126953125,-1.541015625
116,0.366,IMU2,0.12195121951219513,23.902439024390247,-3.414634146341464,3.3671875,-0.037109375,-1.5322265625
117,0.376,IMU0,0.12195121951219513,29.32926829268293,-1.8902439024390245,3.3388671875,-0.0908203125,-1.55859375
118,0.376,IMU1,2.1951219512195124,28.292682926829272,-1.524390243902439,3.3046875,-0.044921875,-1.5546875
119,0.376,IMU2,1.402439024390244,30.182926829268297,-2.073170731707317,3.30859375,-0.091796875,-1.5361328125
120,0.386,IMU0,1.2804878048780488,33.47560975609756,-1.1585365853658538,3.2939453125,-0.05859375,-1.51171875
121,0.386,IMU1,2.7439024390243905,31.951219512195124,-0.7926829268292683,3.263671875,-0.0126953125,-1.5068359375
122,0.386,IMU2,2.25609756097561,33.84146341463415,-1.2804878048780488,3.2763671875,-0.05859375,-1.5
123,0.396,IMU0,1.2804878048780488,30.853658536585368,-0.426829268292683,3.31640625,-0.0517578125,-1.5830078125
124,0.396,IMU1,2.8658536585365857,29.939024390243905,0.0,3.283203125,-0.0078125,-1.5634765625
125,0.396,IMU2,1.7682926829268295,31.951219512195124,-0.48780487804878053,3.29296875,-0.0517578125,-1.5576171875
126,0.406,IMU0,2.073170731707317,30.60975609756098,1.2195121951219514,3.25390625,-0.0556640625,-1.52734375
127,0.406,IMU1,3.5975609756097566,29.39024390243903,1.524390243902439,3.2236328125,-0.013671875,-1.51171875
128,0.406,IMU2,2.5,31.158536585365855,1.1585365853658538,3.234375,-0.0537109375,-1.515625
129,0.416,IMU0,1.2804878048780488,30.365853658536587,0.24390243902439027,3.2275390625,-0.083984375,-1.603515625
130,0.416,IMU1,2.073170731707317,29.08536585365854,0.6707317073170732,3.19140625,-0.0380859375,-1.587890625
131,0.416,IMU2,1.9512195121951221,31.219512195121954,0.06097560975609757,3.1953125,-0.08203125,-1.580078125
132,0.426,IMU0,0.1829268292682927,30.0609756097561,-1.8902439024390245,3.2177734375,-0.0595703125,-1.5478515625
133,0.426,IMU1,0.853658536585366,29.02439024390244,-1.4634146341463417,3.1845703125,-0.013671875,-1.5380859375
134,0.426,IMU2,0.24390243902439027,30.60975609756098,-2.0121951219512195,3.1943359375,-0.0595703125,-1.53515625
135,0.436,IMU0,-0.853658536585366,29.81707317073171,-1.3414634146341464,3.1982421875,-0.0859375,-1.548828125
136,0.436,IMU1,0.7317073170731708,28.84146341463415,-0.9756097560975611,3.166015625,-0.0390625,-1.5498046875
137,0.436,IMU2,-0.5487804878048781,30.121951219512198,-1.402439024390244,3.169921875,-0.0869140625,-1.517578125
138,0.446,IMU0,-0.9146341463414634,29.207317073170735,-1.2804878048780488,3.1748046875,-0.04296875,-1.5244140625
139,0.446,IMU1,0.06097560975609757,28.53658536585366,-0.853658536585366,3.146484375,0.00390625,-1.5263671875
140,0.446,IMU2,-0.6097560975609757,29.75609756097561,-1.2195121951219514,3.1533203125,-0.0419921875,-1.51171875
141,0.456,IMU0,-1.1585365853658538,26.34146341463415,0.0,3.1728515625,-0.083984375,-1.5224609375
142,0.456,IMU1,0.30487804878048785,25.30487804878049,0.426829268292683,3.140625,-0.0390625,-1.50390625
143,0.456,IMU2,-0.48780487804878053,26.76829268292683,-0.1829268292682927,3.140625,-0.083984375,-1.525390625
144,0.466,IMU0,-2.25609756097561,28.231707317073173,-2.8658536585365857,3.080078125,-0.0546875,-1.5234375
145,0.466,IMU1,-1.3414634146341464,27.25609756097561,-2.5,3.0537109375,-0.01171875,-1.505859375
146,0.466,IMU2,-1.4634146341463417,28.475609756097562,-3.048780487804878,3.05859375,-0.0537109375,-1.505859375
147,0.476,IMU0,-1.3414634146341464,29.146341463414636,-1.1585365853658538,3.0625,-0.0537109375,-1.505859375
148,0.476,IMU1,-0.853658536585366,28.292682926829272,-0.7926829268292683,3.0390625,-0.01171875,-1.5048828125
149,0.476,IMU2,0.06097560975609757,29.512195121951223,-1.402439024390244,3.041015625,-0.0576171875,-1.478515625
150,0.486,IMU0,-2.1951219512195124,30.243902439024392,-1.0975609756097562,3.056640625,-0.07421875,-1.45703125
151,0.486,IMU1,-1.3414634146341464,28.719512195121954,-0.6707317073170732,3.0283203125,-0.0302734375,-1.4599609375
152,0.486,IMU2,-0.7317073170731708,30.670731707317074,-1.3414634146341464,3.0400390625,-0.072265625,-1.453125
153,0.496,IMU0,-2.0121951219512195,25.975609756097562,-0.48780487804878053,3.0546875,-0.0390625,-1.4775390625
154,0.496,IMU1,-1.0975609756097562,24.26829268292683,0.1829268292682927,3.029296875,0.0029296875,-1.474609375
155,0.496,IMU2,-1.2804878048780488,26.34146341463415,-0.6097560975609757,3.044921875,-0.0380859375,-1.4716796875
156,0.506,IMU0,-0.9146341463414634,20.426829268292686,0.9756097560975611,3.0166015625,-0.0263671875,-1.4873046875
157,0.506,IMU1,0.7317073170731708,18.902439024390244,1.7682926829268295,2.9912109375,-0.0068359375,-1.47265625
158,0.506,IMU2,0.5487804878048781,20.182926829268293,0.7926829268292683,3.005859375,-0.0400390625,-1.4736328125
159,0.516,IMU0,0.5487804878048781,21.585365853658537,1.8902439024390245,3.0009765625,-0.060546875,-1.48828125
160,0.516,IMU1,1.829268292682927,20.243902439024392,2.1951219512195124,2.96875,-0.0302734375,-1.45703125
161,0.516,IMU2,1.829268292682927,21.158536585365855,1.6463414634146343,2.9833984375,-0.0673828125,-1.4501953125
162,0.526,IMU0,0.6097560975609757,19.451219512195124,1.0975609756097562,2.966796875,-0.0703125,-1.4814453125
163,0.526,IMU1,2.073170731707317,18.353658536585368,1.4634146341463417,2.919921875,-0.0283203125,-1.4716796875
164,0.526,IMU2,1.9512195121951221,19.146341463414636,0.9146341463414634,2.9384765625,-0.0791015625,-1.4423828125
165,0.536,IMU0,0.1829268292682927,17.98780487804878,1.1585365853658538,2.9482421875,-0.0595703125,-1.494140625
166,0.536,IMU1,2.25609756097561,17.25609756097561,1.3414634146341464,2.900390625,0.005859375,-1.4794921875
167,0.536,IMU2,1.5853658536585367,18.53658536585366,0.9146341463414634,2.9267578125,-0.0537109375,-1.482421875
168,0.546,IMU0,0.853658536585366,18.170731707317074,4.451219512195122,2.9111328125,-0.025390625,-1.4873046875
169,0.546,IMU1,3.8414634146341466,17.5,4.573170731707317,2.85546875,0.0322265625,-1.4814453125
170,0.546,IMU2,2.3170731707317076,18.658536585365855,4.207317073170732,2.87890625,-0.021484375,-1.466796875
171,0.556,IMU0,-0.1829268292682927,11.097560975609756,5.3048780487804885,2.8916015625,-0.037109375,-1.4560546875
172,0.556,IMU1,3.1097560975609757,8.963414634146343,5.365853658536586,2.8359375,0.0,-1.4404296875
173,0.556,IMU2,1.0975609756097562,10.731707317073171,5.060975609756098,2.8515625,-0.037109375,-1.4384765625
174,0.566,IMU0,-0.426829268292683,5.182926829268293,3.536585365853659,2.7890625,-0.0517578125,-1.4560546875
175,0.566,IMU1,2.439024390243903,3.658536585365854,3.4756097560975614,2.744140625,-0.00390625,-1.4599609375
176,0.566,IMU2,0.6097560975609757,5.670731707317073,3.1707317073170733,2.7529296875,-0.048828125,-1.48046875
177,0.576,IMU0,-1.707317073170732,3.353658536585366,0.7926829268292683,2.7529296875,-0.0263671875,-1.4677734375
178,0.576,IMU1,0.7926829268292683,1.9512195121951221,0.6707317073170732,2.720703125,0.0146484375,-1.4599609375
179,0.576,IMU2,-0.9146341463414634,3.9024390243902443,0.3658536585365854,2.72265625,-0.0263671875,-1.4384765625
180,0.586,IMU0,0.9756097560975611,5.060975609756098,1.8902439024390245,2.6982421875,-0.0498046875,-1.462890625
181,0.586,IMU1,4.2682926829268295,3.780487804878049,2.0121951219512195,2.6826171875,-0.033203125,-1.416015625
182,0.586,IMU2,2.0121951219512195,6.2804878048780495,1.6463414634146343,2.6796875,-0.05859375,-1.419921875
183,0.596,IMU0,1.9512195121951221,2.682926829268293,3.5975609756097566,2.6611328125,-0.0478515625,-1.3994140625
184,0.596,IMU1,4.51219512195122,1.402439024390244,3.780487804878049,2.642578125,-0.0400390625,-1.3818359375
185,0.596,IMU2,1.829268292682927,3.5975609756097566,3.231707317073171,2.650390625,-0.06640625,-1.400390625
186,0.606,IMU0,1.9512195121951221,4.75609756097561,1.8902439024390245,2.640625,-0.10546875,-1.435546875
187,0.606,IMU1,4.329268292682928,3.658536585365854,2.1951219512195124,2.611328125,-0.0693359375,-1.4287109375
188,0.606,IMU2,2.7439024390243905,5.426829268292684,1.829268292682927,2.6162109375,-0.1201171875,-1.37890625
189,0.616,IMU0,2.3170731707317076,8.963414634146343,2.1341463414634148,2.6572265625,-0.0966796875,-1.421875
190,0.616,IMU1,4.024390243902439,8.170731707317074,2.3170731707317076,2.62109375,-0.052734375,-1.41796875
191,0.616,IMU2,3.1707317073170733,9.146341463414634,1.707317073170732,2.630859375,-0.0986328125,-1.3896484375
192,0.626,IMU0,1.402439024390244,-0.48780487804878053,2.5,2.640625,-0.1083984375,-1.4072265625
193,0.626,IMU1,3.414634146341464,-1.7682926829268295,2.7439024390243905,2.6123046875,-0.0703125,-1.4033203125
194,0.626,IMU2,1.8902439024390245,0.1829268292682927,2.3170731707317076,2.615234375,-0.109375,-1.3994140625
195,0.636,IMU0,1.2804878048780488,0.5487804878048781,0.9146341463414634,2.58203125,-0.0810546875,-1.4365234375
196,0.636,IMU1,3.231707317073171,-0.9756097560975611,1.0975609756097562,2.552734375,-0.0478515625,-1.4130859375
197,0.636,IMU2,1.5853658536585367,0.6707317073170732,0.6707317073170732,2.55078125,-0.0947265625,-1.3955078125
198,0.646,IMU0,1.0975609756097562,1.7682926829268295,1.524390243902439,2.572265625,-0.09765625,-1.4541015625
199,0.646,IMU1,2.7439024390243905,0.30487804878048785,1.707317073170732,2.5458984375,-0.056640625,-1.4521484375
200,0.646,IMU2,1.2195121951219514,1.5853658536585367,1.2804878048780488,2.5478515625,-0.0927734375,-1.4375
201,0.656,IMU0,-0.48780487804878053,3.4756097560975614,-0.7317073170731708,2.5791015625,-0.1220703125,-1.40625
202,0.656,IMU1,0.9756097560975611,2.3170731707317076,-0.6097560975609757,2.5498046875,-0.08203125,-1.4013671875
203,0.656,IMU2,0.6707317073170732,3.9024390243902443,-1.0975609756097562,2.548828125,-0.1083984375,-1.412109375
204,0.666,IMU0,-2.439024390243903,0.9146341463414634,-2.5609756097560976,2.5029296875,-0.072265625,-1.4150390625
205,0.666,IMU1,0.24390243902439027,-0.24390243902439027,-2.5,2.4794921875,-0.0390625,-1.4150390625
206,0.666,IMU2,-1.2195121951219514,0.6097560975609757,-2.987804878048781,2.490234375,-0.0771484375,-1.423828125
207,0.676,IMU0,-1.0975609756097562,0.5487804878048781,0.0,2.431640625,-0.0732421875,-1.34375
208,0.676,IMU1,2.5609756097560976,-0.9146341463414634,0.0,2.4052734375,-0.0419921875,-1.32421875
209,0.676,IMU2,0.6097560975609757,1.0975609756097562,-0.426829268292683,2.4072265625,-0.083984375,-1.296875
210,0.686,IMU0,0.7317073170731708,0.1829268292682927,3.1097560975609757,2.3662109375,-0.1123046875,-1.3369140625
211,0.686,IMU1,3.5975609756097566,-0.6707317073170732,3.1707317073170733,2.337890625,-0.076171875,-1.3408203125
212,0.686,IMU2,2.5609756097560976,0.7926829268292683,2.5609756097560976,2.33984375,-0.1064453125,-1.341796875
213,0.696,IMU0,-0.1829268292682927,-0.853658536585366,1.2195121951219514,2.3056640625,-0.103515625,-1.359375
214,0.696,IMU1,2.25609756097561,-2.5,1.3414634146341464,2.28125,-0.072265625,-1.3427734375
215,0.696,IMU2,0.7926829268292683,-0.6707317073170732,0.7926829268292683,2.2802734375,-0.10546875,-1.3310546875
216,0.706,IMU0,-1.3414634146341464,0.6097560975609757,0.6707317073170732,2.2880859375,-0.111328125,-1.3056640625
217,0.706,IMU1,0.9146341463414634,-1.524390243902439,0.9756097560975611,2.26171875,-0.080078125,-1.283203125
218,0.706,IMU2,-0.6097560975609757,0.1829268292682927,0.426829268292683,2.26171875,-0.1142578125,-1.267578125
219,0.716,IMU0,-0.7926829268292683,1.7682926829268295,1.2195121951219514,2.2431640625,-0.1025390625,-1.3447265625
220,0.716,IMU1,1.707317073170732,-0.30487804878048785,1.402439024390244,2.220703125,-0.0703125,-1.341796875
221,0.716,IMU2,-0.24390243902439027,1.0975609756097562,0.9146341463414634,2.228515625,-0.103515625,-1.328125
222,0.726,IMU0,-1.3414634146341464,3.780487804878049,2.8658536585365857,2.2265625,-0.1044921875,-1.26953125
223,0.726,IMU1,1.7682926829268295,1.1585365853658538,2.9268292682926833,2.2041015625,-0.0751953125,-1.2548828125
224,0.726,IMU2,0.0,2.804878048780488,2.5609756097560976,2.2060546875,-0.1103515625,-1.2578125
225,0.736,IMU0,-0.9756097560975611,0.5487804878048781,3.780487804878049,2.1650390625,-0.0712890625,-1.35546875
226,0.736,IMU1,0.7926829268292683,-1.8902439024390245,3.963414634146342,2.1435546875,-0.0390625,-1.3486328125
227,0.736,IMU2,0.0,-0.48780487804878053,3.414634146341464,2.146484375,-0.072265625,-1.3427734375
228,0.746,IMU0,-3.2926829268292686,2.1341463414634148,-0.3658536585365854,2.1875,-0.0458984375,-1.337890625
229,0.746,IMU1,-0.1829268292682927,0.0,-0.1829268292682927,2.16015625,-0.0126953125,-1.3271484375
230,0.746,IMU2,-2.25609756097561,1.829268292682927,-0.6707317073170732,2.158203125,-0.0478515625,-1.3173828125
231,0.756,IMU0,-2.5,2.1341463414634148,0.0,2.1142578125,-0.0126953125,-1.291015625
232,0.756,IMU1,-0.3658536585365854,0.7317073170731708,0.1829268292682927,2.09375,0.0185546875,-1.283203125
233,0.756,IMU2,-1.0975609756097562,1.8902439024390245,-0.426829268292683,2.0986328125,-0.0166015625,-1.279296875
234,0.766,IMU0,-2.8658536585365857,2.6219512195121952,1.7682926829268295,2.10546875,-0.0244140625,-1.3408203125
235,0.766,IMU1,-1.402439024390244,0.7317073170731708,1.9512195121951221,2.078125,0.0048828125,-1.322265625
236,0.766,IMU2,-2.5,2.1951219512195124,1.402439024390244,2.080078125,-0.02734375,-1.314453125
237,0.776,IMU0,-0.9146341463414634,7.8048780487804885,2.073170731707317,2.0859375,-0.06640625,-1.33203125
238,0.776,IMU1,-0.48780487804878053,6.097560975609756,2.439024390243903,2.056640625,-0.0380859375,-1.3212890625
239,0.776,IMU2,-0.1829268292682927,7.195121951219513,1.707317073170732,2.0537109375,-0.0703125,-1.310546875
240,0.786,IMU0,-2.25609756097561,10.426829268292684,-0.7926829268292683,2.0888671875,-0.009765625,-1.3828125
241,0.786,IMU1,-0.06097560975609757,8.841463414634147,-0.5487804878048781,2.0654296875,0.017578125,-1.3701171875
242,0.786,IMU2,-0.7926829268292683,10.426829268292684,-1.2195121951219514,2.0693359375,-0.009765625,-1.3779296875
243,0.796,IMU0,-2.1341463414634148,10.975609756097562,1.0975609756097562,2.1005859375,-0.01953125,-1.322265625
244,0.796,IMU1,-0.1829268292682927,9.878048780487806,1.3414634146341464,2.0771484375,0.0087890625,-1.3173828125
245,0.796,IMU2,-0.6707317073170732,11.036585365853659,0.7317073170731708,2.080078125,-0.0224609375,-1.3056640625
246,0.806,IMU0,-1.402439024390244,10.0,1.524390243902439,2.0390625,-0.0029296875,-1.3701171875
247,0.806,IMU1,-0.24390243902439027,8.719512195121952,1.7682926829268295,2.0185546875,0.0283203125,-1.357421875
248,0.806,IMU2,0.853658536585366,10.365853658536587,1.0975609756097562,2.0146484375,-0.0068359375,-1.345703125
249,0.816,IMU0,-0.6097560975609757,17.134146341463417,3.231707317073171,1.9013671875,0.0166015625,-1.357421875
250,0.816,IMU1,1.2195121951219514,15.54878048780488,3.414634146341464,1.8837890625,0.0458984375,-1.353515625
251,0.816,IMU2,1.0975609756097562,17.804878048780488,2.8658536585365857,1.8876953125,0.0126953125,-1.3427734375
252,0.826,IMU0,-1.0365853658536586,29.451219512195124,1.402439024390244,1.9296875,-0.0439453125,-1.3603515625
253,0.826,IMU1,-0.3658536585365854,27.743902439024392,1.829268292682927,1.8994140625,-0.01953125,-1.349609375
254,0.826,IMU2,0.06097560975609757,29.26829268292683,1.0365853658536586,1.892578125,-0.044921875,-1.33203125
255,0.836,IMU0,-1.524390243902439,32.13414634146342,0.3658536585365854,1.9423828125,-0.0166015625,-1.291015625
256,0.836,IMU1,0.3658536585365854,30.975609756097565,0.6097560975609757,1.9169921875,0.0126953125,-1.279296875
257,0.836,IMU2,-0.30487804878048785,32.07317073170732,0.06097560975609757,1.927734375,-0.0185546875,-1.2900390625
258,0.846,IMU0,-2.378048780487805,25.975609756097562,1.2195121951219514,1.9521484375,0.029296875,-1.2412109375
259,0.846,IMU1,-0.1829268292682927,24.634146341463417,1.402439024390244,1.9306640625,0.0576171875,-1.232421875
260,0.846,IMU2,-1.4634146341463417,25.48780487804878,1.0975609756097562,1.9443359375,0.02734375,-1.23828125
261,0.856,IMU0,-1.2195121951219514,26.34146341463415,0.3658536585365854,1.9833984375,-0.03515625,-1.365234375
262,0.856,IMU1,0.12195121951219513,25.670731707317074,0.6707317073170732,1.953125,-0.0048828125,-1.349609375
263,0.856,IMU2,-0.426829268292683,26.52439024390244,0.0,1.9482421875,-0.037109375,-1.314453125
264,0.866,IMU0,-1.6463414634146343,28.719512195121954,-3.1097560975609757,1.9443359375,-0.013671875,-1.3251953125
265,0.866,IMU1,-0.3658536585365854,27.31707317073171,-2.7439024390243905,1.91796875,0.01171875,-1.30859375
266,0.866,IMU2,-1.4634146341463417,28.475609756097562,-3.2926829268292686,1.921875,-0.01171875,-1.3388671875
267,0.876,IMU0,1.0975609756097562,28.719512195121954,-0.9146341463414634,1.978515625,-0.0009765625,-1.3310546875
268,0.876,IMU1,3.414634146341464,27.31707317073171,-0.6097560975609757,1.955078125,0.0244140625,-1.33203125
269,0.876,IMU2,2.073170731707317,28.353658536585368,-1.0975609756097562,1.9560546875,-0.001953125,-1.294921875
270,0.886,IMU0,1.829268292682927,25.243902439024392,0.3658536585365854,2.01953125,-0.0009765625,-1.234375
271,0.886,IMU1,3.231707317073171,24.02439024390244,0.6707317073170732,2.0009765625,0.0283203125,-1.220703125
272,0.886,IMU2,2.987804878048781,24.75609756097561,0.1829268292682927,2.0107421875,-0.01171875,-1.23828125
273,0.896,IMU0,2.5609756097560976,19.939024390243905,-0.48780487804878053,2.0537109375,-0.0712890625,-1.2978515625
274,0.896,IMU1,3.5975609756097566,18.29268292682927,-0.06097560975609757,2.025390625,-0.037109375,-1.294921875
275,0.896,IMU2,4.146341463414634,19.085365853658537,-0.853658536585366,2.0244140625,-0.08203125,-1.259765625
276,0.906,IMU0,0.7926829268292683,14.573170731707318,-1.6463414634146343,1.9853515625,-0.001953125,-1.2744140625
277,0.906,IMU1,2.6219512195121952,12.439024390243903,-1.3414634146341464,1.96484375,0.0224609375,-1.25390625
278,0.906,IMU2,2.25609756097561,13.841463414634148,-1.829268292682927,1.970703125,-0.0009765625,-1.2783203125
279,0.916,IMU0,-0.1829268292682927,15.79268292682927,0.7926829268292683,1.9423828125,-0.017578125,-1.3134765625
280,0.916,IMU1,1.2804878048780488,14.451219512195124,1.0975609756097562,1.921875,0.009765625,-1.298828125
281,0.916,IMU2,0.853658536585366,16.03658536585366,0.426829268292683,1.91015625,-0.01953125,-1.2861328125
282,0.926,IMU0,1.707317073170732,18.963414634146343,2.5,1.9580078125,-0.041015625,-1.2587890625
283,0.926,IMU1,3.8414634146341466,17.682926829268293,2.804878048780488,1.9345703125,-0.01953125,-1.2451171875
284,0.926,IMU2,3.048780487804878,18.719512195121954,2.073170731707317,1.9375,-0.02734375,-1.283203125
285,0.936,IMU0,-1.524390243902439,14.695121951219514,0.12195121951219513,1.9453125,-0.025390625,-1.345703125
286,0.936,IMU1,1.4634146341463417,13.475609756097562,0.1829268292682927,1.9248046875,0.0048828125,-1.353515625
287,0.936,IMU2,0.6707317073170732,14.817073170731708,-0.30487804878048785,1.9296875,-0.029296875,-1.3046875
288,0.946,IMU0,-1.7682926829268295,13.04878048780488,0.853658536585366,2.0048828125,-0.046875,-1.2880859375
289,0.946,IMU1,1.1585365853658538,11.707317073170733,1.0365853658536586,1.9765625,-0.01953125,-1.2666015625
290,0.946,IMU2,-0.7317073170731708,11.951219512195124,0.48780487804878053,1.9873046875,-0.048828125,-1.27734375
291,0.956,IMU0,-1.1585365853658538,11.76829268292683,-0.7926829268292683,1.9677734375,-0.04296875,-1.2724609375
292,0.956,IMU1,1.9512195121951221,10.0,-0.7317073170731708,1.943359375,-0.0107421875,-1.265625
293,0.956,IMU2,-0.48780487804878053,11.463414634146343,-0.9146341463414634,1.953125,-0.0458984375,-1.2333984375
294,0.966,IMU0,-1.2195121951219514,7.439024390243903,-0.06097560975609757,1.9658203125,-0.013671875,-1.2841796875
295,0.966,IMU1,2.439024390243903,5.060975609756098,0.06097560975609757,1.9423828125,0.013671875,-1.2705078125
296,0.966,IMU2,-0.7926829268292683,5.853658536585367,-0.1829268292682927,1.947265625,-0.01171875,-1.302734375
297,0.976,IMU0,-1.2804878048780488,7.439024390243903,-0.30487804878048785,1.9345703125,0.0234375,-1.3232421875
298,0.976,IMU1,1.1585365853658538,5.365853658536586,-0.12195121951219513,1.9140625,0.046875,-1.3017578125
299,0.976,IMU2,-0.7926829268292683,6.707317073170732,-0.426829268292683,1.9208984375,0.03515625,-1.306640625
300,0.986,IMU0,-1.829268292682927,7.073170731707318,0.6707317073170732,1.9052734375,0.06640625,-1.32421875
301,0.986,IMU1,0.7926829268292683,5.182926829268293,0.7317073170731708,1.884765625,0.09375,-1.3203125
302,0.986,IMU2,-1.0975609756097562,7.01219512195122,0.48780487804878053,1.8974609375,0.06640625,-1.3369140625
303,0.996,IMU0,-2.682926829268293,7.8048780487804885,2.6219512195121952,1.935546875,0.0361328125,-1.248046875
304,0.996,IMU1,-0.06097560975609757,6.2804878048780495,2.7439024390243905,1.9169921875,0.0673828125,-1.2470703125
305,0.996,IMU2,-2.6219512195121952,7.8048780487804885,2.5,1.9169921875,0.0205078125,-1.18359375
306,1.006,IMU0,-0.9146341463414634,4.695121951219512,4.024390243902439,1.9580078125,-0.0078125,-1.236328125
307,1.006,IMU1,1.402439024390244,3.231707317073171,4.207317073170732,1.9345703125,0.021484375,-1.2177734375
308,1.006,IMU2,-0.426829268292683,4.817073170731708,3.5975609756097566,1.931640625,0.0,-1.2109375
309,1.016,IMU0,-2.7439024390243905,-1.6463414634146343,2.5,1.9501953125,-0.03125,-1.1943359375
310,1.016,IMU1,-0.426829268292683,-3.048780487804878,2.682926829268293,1.9296875,0.0009765625,-1.1884765625
311,1.016,IMU2,-2.25609756097561,-1.0365853658536586,2.0121951219512195,1.919921875,-0.0283203125,-1.193359375
312,1.026,IMU0,-3.1707317073170733,-2.378048780487805,2.378048780487805,1.9501953125,-0.0322265625,-1.228515625
313,1.026,IMU1,-0.9146341463414634,-3.5975609756097566,2.5609756097560976,1.9248046875,-0.005859375,-1.21484375
314,1.026,IMU2,-2.7439024390243905,-1.1585365853658538,1.829268292682927,1.9267578125,-0.0185546875,-1.240234375
315,1.036,IMU0,-3.1097560975609757,2.3170731707317076,0.48780487804878053,1.939453125,-0.017578125,-1.25
316,1.036,IMU1,-0.853658536585366,1.2195121951219514,0.6707317073170732,1.912109375,0.01171875,-1.23828125
317,1.036,IMU2,-2.682926829268293,3.414634146341464,0.0,1.9169921875,-0.0029296875,-1.2587890625
318,1.046,IMU0,-2.378048780487805,0.853658536585366,-1.0365853658536586,1.9482421875,0.0048828125,-1.2119140625
319,1.046,IMU1,-0.12195121951219513,0.30487804878048785,-0.7926829268292683,1.92578125,0.03125,-1.197265625
320,1.046,IMU2,-0.853658536585366,1.9512195121951221,-1.3414634146341464,1.9423828125,-0.013671875,-1.1728515625
321,1.056,IMU0,-2.5,-0.30487804878048785,-0.7926829268292683,1.9580078125,0.0576171875,-1.2080078125
322,1.056,IMU1,0.426829268292683,-1.5853658536585367,-0.5487804878048781,1.9365234375,0.0908203125,-1.2099609375
323,1.056,IMU2,-1.524390243902439,-0.48780487804878053,-1.1585365853658538,1.9384765625,0.041015625,-1.1943359375
324,1.066,IMU0,0.06097560975609757,0.06097560975609757,2.1951219512195124,1.92578125,0.033203125,-1.2216796875
325,1.066,IMU1,2.439024390243903,-0.9756097560975611,2.439024390243903,1.9140625,0.0693359375,-1.2412109375
326,1.066,IMU2,1.4634146341463417,-0.1829268292682927,1.8902439024390245,1.9189453125,0.0419921875,-1.2236328125
327,1.076,IMU0,0.06097560975609757,0.6707317073170732,2.5,1.904296875,-0.017578125,-1.1875
328,1.076,IMU1,1.9512195121951221,0.1829268292682927,2.3170731707317076,1.8779296875,0.0078125,-1.1767578125
329,1.076,IMU2,1.2804878048780488,1.0365853658536586,1.829268292682927,1.8818359375,-0.0078125,-1.1865234375
330,1.086,IMU0,0.853658536585366,-1.7682926829268295,2.1951219512195124,1.884765625,0.0146484375,-1.134765625
331,1.086,IMU1,2.439024390243903,-2.8658536585365857,2.5609756097560976,1.859375,0.033203125,-1.1376953125
332,1.086,IMU2,1.829268292682927,-1.8902439024390245,1.8902439024390245,1.865234375,0.0078125,-1.1435546875
333,1.096,IMU0,0.7317073170731708,-1.3414634146341464,1.4634146341463417,1.84375,-0.0244140625,-1.1728515625
334,1.096,IMU1,1.9512195121951221,-0.9756097560975611,1.402439024390244,1.818359375,-0.00390625,-1.130859375
335,1.096,IMU2,1.3414634146341464,-1.0365853658536586,0.9146341463414634,1.8212890625,-0.0341796875,-1.1123046875
336,1.106,IMU0,0.7317073170731708,-1.3414634146341464,1.4634146341463417,1.84375,-0.0244140625,-1.1728515625
337,1.106,IMU1,0.9756097560975611,-1.0365853658536586,1.524390243902439,1.8115234375,0.0,-1.1484375
338,1.106,IMU2,-0.426829268292683,-0.6707317073170732,1.0365853658536586,1.81640625,-0.0302734375,-1.162109375
339,1.116,IMU0,-1.6463414634146343,1.4634146341463417,2.8658536585365857,1.86328125,-0.005859375,-1.140625
340,1.116,IMU1,2.1341463414634148,0.06097560975609757,3.048780487804878,1.83984375,0.0380859375,-1.1513671875
341,1.116,IMU2,-0.9756097560975611,0.9756097560975611,2.682926829268293,1.84375,0.005859375,-1.1416015625
342,1.126,IMU0,-1.402439024390244,3.9024390243902443,2.1951219512195124,1.828125,-0.0341796875,-1.150390625
343,1.126,IMU1,-0.06097560975609757,3.8414634146341466,2.1341463414634148,1.8017578125,0.005859375,-1.1875
344,1.126,IMU2,-2.0121951219512195,4.75609756097561,1.7682926829268295,1.80078125,-0.0283203125,-1.1787109375
345,1.136,IMU0,-2.0121951219512195,11.951219512195124,0.7317073170731708,1.771484375,0.0048828125,-1.2099609375
346,1.136,IMU1,-0.1829268292682927,12.256097560975611,0.7926829268292683,1.7529296875,0.0390625,-1.216796875
347,1.136,IMU2,-1.829268292682927,13.109756097560977,0.426829268292683,1.75390625,0.0107421875,-1.2138671875
348,1.146,IMU0,-2.3170731707317076,20.914634146341466,0.5487804878048781,1.771484375,0.0166015625,-1.224609375
349,1.146,IMU1,-1.0975609756097562,19.573170731707318,0.7926829268292683,1.75,0.0419921875,-1.1845703125
350,1.146,IMU2,-1.8902439024390245,20.243902439024392,0.3658536585365854,1.751953125,0.01171875,-1.17578125
351,1.156,IMU0,-2.1341463414634148,39.024390243902445,0.1829268292682927,1.7578125,0.0087890625,-1.2783203125
352,1.156,IMU1,-2.073170731707317,38.35365853658537,0.5487804878048781,1.74609375,0.0224609375,-1.244140625
353,1.156,IMU2,-1.8902439024390245,39.207317073170735,0.12195121951219513,1.748046875,-0.0068359375,-1.2373046875
354,1.166,IMU0,-1.829268292682927,50.670731707317074,-1.8902439024390245,1.8212890625,-0.0234375,-1.2392578125
355,1.166,IMU1,-1.6463414634146343,48.90243902439025,-1.4634146341463417,1.7998046875,0.00390625,-1.224609375
356,1.166,IMU2,-2.1951219512195124,50.243902439024396,-1.829268292682927,1.798828125,-0.0263671875,-1.22265625
357,1.176,IMU0,-1.4634146341463417,60.60975609756098,-4.207317073170732,1.8876953125,0.0009765625,-1.2509765625
358,1.176,IMU1,-1.0365853658536586,59.085365853658544,-3.7195121951219514,1.8564453125,0.033203125,-1.271484375
359,1.176,IMU2,-1.2195121951219514,59.63414634146342,-4.207317073170732,1.857421875,0.0048828125,-1.2685546875
360,1.186,IMU0,-0.3658536585365854,70.1829268292683,-3.963414634146342,1.880859375,0.0224609375,-1.2734375
361,1.186,IMU1,0.48780487804878053,68.65853658536587,-3.536585365853659,1.859375,0.05078125,-1.263671875
362,1.186,IMU2,0.0,69.63414634146342,-3.8414634146341466,1.865234375,0.01953125,-1.26171875
363,1.196,IMU0,1.2195121951219514,71.64634146341464,-2.682926829268293,1.962890625,0.021484375,-1.2783203125
364,1.196,IMU1,1.8902439024390245,70.60975609756098,-2.1951219512195124,1.935546875,0.05078125,-1.2763671875
365,1.196,IMU2,2.6219512195121952,72.01219512195122,-2.682926829268293,1.9384765625,0.0185546875,-1.265625
366,1.206,IMU0,0.853658536585366,70.85365853658537,-5.0,1.94921875,-0.052734375,-1.2099609375
367,1.206,IMU1,2.25609756097561,69.75609756097562,-4.51219512195122,1.9208984375,-0.0234375,-1.19921875
368,1.206,IMU2,2.5,71.52439024390245,-5.182926829268293,1.912109375,-0.05859375,-1.17578125
369,1.216,IMU0,-0.12195121951219513,71.64634146341464,-10.0,1.833984375,-0.04296875,-1.2919921875
370,1.216,IMU1,0.1829268292682927,70.42682926829269,-9.26829268292683,1.806640625,-0.0166015625,-1.2685546875
371,1.216,IMU2,0.0,72.7439024390244,-9.817073170731708,1.80078125,-0.0478515625,-1.2607421875
372,1.226,IMU0,1.707317073170732,84.51219512195122,-9.146341463414634,1.7783203125,0.001953125,-1.306640625
373,1.226,IMU1,1.0365853658536586,83.78048780487805,-8.536585365853659,1.7626953125,0.02734375,-1.283203125
374,1.226,IMU2,1.402439024390244,84.93902439024392,-8.841463414634147,1.7666015625,0.0009765625,-1.2890625
375,1.236,IMU0,3.7195121951219514,90.85365853658537,-5.060975609756098,1.8125,0.0107421875,-1.2353515625
376,1.236,IMU1,3.780487804878049,90.1829268292683,-4.451219512195122,1.7978515625,0.03515625,-1.228515625
377,1.236,IMU2,3.963414634146342,91.09756097560977,-4.817073170731708,1.8046875,0.01171875,-1.236328125
378,1.246,IMU0,3.048780487804878,91.21951219512196,-0.7317073170731708,1.8623046875,0.04296875,-1.236328125
379,1.246,IMU1,4.695121951219512,90.48780487804879,-0.426829268292683,1.849609375,0.0712890625,-1.2353515625
380,1.246,IMU2,3.963414634146342,91.03658536585367,-0.48780487804878053,1.8623046875,0.0390625,-1.23046875
381,1.256,IMU0,4.390243902439025,77.8048780487805,4.634146341463415,1.888671875,-0.029296875,-1.2412109375
382,1.256,IMU1,6.097560975609756,77.13414634146342,5.0,1.8681640625,0.0009765625,-1.2431640625
383,1.256,IMU2,5.487804878048781,77.7439024390244,4.817073170731708,1.8720703125,-0.0341796875,-1.212890625
384,1.266,IMU0,2.7439024390243905,67.19512195121952,2.439024390243903,1.8642578125,-0.0947265625,-1.3125
385,1.266,IMU1,4.024390243902439,66.03658536585367,2.9268292682926833,1.830078125,-0.06640625,-1.298828125
386,1.266,IMU2,3.353658536585366,67.07317073170732,2.3170731707317076,1.814453125,-0.111328125,-1.2861328125
387,1.276,IMU0,0.7317073170731708,63.10975609756098,-4.451219512195122,1.818359375,-0.1064453125,-1.2998046875
388,1.276,IMU1,1.7682926829268295,62.6219512195122,-4.024390243902439,1.7900390625,-0.0791015625,-1.28515625
389,1.276,IMU2,0.9146341463414634,63.47560975609757,-4.573170731707317,1.78125,-0.1103515625,-1.2666015625
390,1.286,IMU0,0.12195121951219513,62.43902439024391,-4.451219512195122,1.7216796875,-0.041015625,-1.3720703125
391,1.286,IMU1,1.4634146341463417,61.28048780487806,-4.085365853658537,1.7060546875,-0.0166015625,-1.373046875
392,1.286,IMU2,0.6097560975609757,62.926829268292686,-4.390243902439025,1.7109375,-0.046875,-1.384765625
393,1.296,IMU0,0.24390243902439027,56.34146341463415,2.0121951219512195,1.748046875,-0.009765625,-1.3837890625
394,1.296,IMU1,1.3414634146341464,55.426829268292686,2.3170731707317076,1.734375,0.009765625,-1.3720703125
395,1.296,IMU2,0.853658536585366,56.28048780487806,2.073170731707317,1.7373046875,-0.00390625,-1.369140625
396,1.306,IMU0,3.231707317073171,54.69512195121952,6.036585365853659,1.7646484375,-0.0556640625,-1.3134765625
397,1.306,IMU1,3.9024390243902443,53.53658536585366,6.402439024390245,1.740234375,-0.0302734375,-1.3115234375
398,1.306,IMU2,3.4756097560975614,54.207317073170735,5.853658536585367,1.7373046875,-0.060546875,-1.3193359375
399,1.316,IMU0,-1.524390243902439,46.21951219512196,-0.9146341463414634,1.7392578125,-0.0478515625,-1.4599609375
400,1.316,IMU1,-0.7926829268292683,45.670731707317074,-0.5487804878048781,1.7138671875,-0.01953125,-1.44921875
401,1.316,IMU2,-1.3414634146341464,46.646341463414636,-1.2195121951219514,1.701171875,-0.056640625,-1.3828125
402,1.326,IMU0,-0.06097560975609757,40.79268292682927,-0.24390243902439027,1.689453125,-0.0361328125,-1.326171875
403,1.326,IMU1,0.6097560975609757,40.304878048780495,0.1829268292682927,1.669921875,-0.0107421875,-1.322265625
404,1.326,IMU2,0.9146341463414634,40.73170731707317,-0.3658536585365854,1.6689453125,-0.0458984375,-1.3388671875
405,1.336,IMU0,-1.4634146341463417,38.59756097560976,-1.6463414634146343,1.677734375,-0.0380859375,-1.3583984375
406,1.336,IMU1,0.12195121951219513,37.5609756097561,-1.2804878048780488,1.658203125,-0.01171875,-1.3486328125
407,1.336,IMU2,0.426829268292683,39.268292682926834,-1.9512195121951221,1.6552734375,-0.05859375,-1.35546875
408,1.346,IMU0,-2.9268292682926833,29.695121951219516,0.12195121951219513,1.533203125,0.0087890625,-1.3330078125
409,1.346,IMU1,-0.7317073170731708,28.475609756097562,0.3658536585365854,1.5205078125,0.033203125,-1.3330078125
410,1.346,IMU2,-1.2195121951219514,29.39024390243903,0.1829268292682927,1.525390625,0.0087890625,-1.3310546875
411,1.356,IMU0,-0.06097560975609757,27.987804878048784,3.4756097560975614,1.3271484375,0.046875,-1.3798828125
412,1.356,IMU1,2.3170731707317076,26.402439024390247,3.658536585365854,1.310546875,0.0654296875,-1.3720703125
413,1.356,IMU2,2.0121951219512195,28.292682926829272,3.414634146341464,1.3115234375,0.0478515625,-1.361328125
414,1.366,IMU0,1.3414634146341464,33.84146341463415,4.451219512195122,1.3408203125,0.03125,-1.4189453125
415,1.366,IMU1,3.2926829268292686,32.6219512195122,4.75609756097561,1.310546875,0.048828125,-1.4091796875
416,1.366,IMU2,2.1341463414634148,33.963414634146346,3.963414634146342,1.3193359375,0.0234375,-1.3828125
417,1.376,IMU0,0.426829268292683,20.731707317073173,3.414634146341464,1.275390625,0.0703125,-1.3291015625
418,1.376,IMU1,2.682926829268293,20.365853658536587,3.536585365853659,1.2578125,0.091796875,-1.3212890625
419,1.376,IMU2,1.4634146341463417,21.097560975609756,3.1707317073170733,1.2490234375,0.0634765625,-1.3095703125
420,1.386,IMU0,-2.073170731707317,15.975609756097562,0.12195121951219513,1.2451171875,-0.01171875,-1.3818359375
421,1.386,IMU1,-0.426829268292683,15.060975609756099,0.3658536585365854,1.2138671875,0.005859375,-1.3701171875
422,1.386,IMU2,-2.073170731707317,16.890243902439025,-0.7317073170731708,1.2001953125,-0.0107421875,-1.3447265625
423,1.396,IMU0,-4.634146341463415,11.76829268292683,-5.853658536585367,1.201171875,0.0673828125,-1.3798828125
424,1.396,IMU1,-3.414634146341464,11.158536585365855,-5.670731707317073,1.1796875,0.0830078125,-1.369140625
425,1.396,IMU2,-3.963414634146342,12.560975609756099,-6.341463414634147,1.173828125,0.064453125,-1.37890625
426,1.406,IMU0,-4.390243902439025,8.902439024390244,-5.060975609756098,1.234375,0.1611328125,-1.37109375
427,1.406,IMU1,-2.6219512195121952,8.048780487804878,-5.0,1.22265625,0.177734375,-1.3720703125
428,1.406,IMU2,-3.536585365853659,8.78048780487805,-5.0,1.2255859375,0.1513671875,-1.3193359375
429,1.416,IMU0,2.8658536585365857,8.048780487804878,3.231707317073171,1.2890625,0.08203125,-1.3154296875
430,1.416,IMU1,4.2682926829268295,6.951219512195123,3.4756097560975614,1.2705078125,0.1015625,-1.294921875
431,1.416,IMU2,4.878048780487806,7.560975609756098,2.987804878048781,1.279296875,0.0634765625,-1.3046875
432,1.426,IMU0,1.2804878048780488,0.1829268292682927,1.2195121951219514,1.3125,-0.009765625,-1.328125
433,1.426,IMU1,3.414634146341464,-0.853658536585366,1.402439024390244,1.2939453125,0.0126953125,-1.337890625
434,1.426,IMU2,2.8658536585365857,0.06097560975609757,0.853658536585366,1.26953125,-0.01953125,-1.349609375
435,1.436,IMU0,-0.7926829268292683,3.7195121951219514,-5.2439024390243905,1.3037109375,-0.0693359375,-1.3798828125
436,1.436,IMU1,1.707317073170732,2.378048780487805,-5.0,1.27734375,-0.048828125,-1.36328125
437,1.436,IMU2,-0.06097560975609757,4.207317073170732,-5.914634146341464,1.2890625,-0.064453125,-1.337890625
438,1.446,IMU0,-1.3414634146341464,2.5609756097560976,-5.060975609756098,1.26171875,0.005859375,-1.275390625
439,1.446,IMU1,1.0975609756097562,1.3414634146341464,-4.878048780487806,1.2509765625,0.0283203125,-1.2783203125
440,1.446,IMU2,-0.48780487804878053,1.5853658536585367,-4.75609756097561,1.2685546875,0.001953125,-1.30078125
441,1.456,IMU0,0.7926829268292683,0.6097560975609757,1.2804878048780488,1.345703125,0.0146484375,-1.3046875
442,1.456,IMU1,3.1707317073170733,-0.5487804878048781,1.3414634146341464,1.3388671875,0.0361328125,-1.3017578125
443,1.456,IMU2,1.829268292682927,0.9756097560975611,1.6463414634146343,1.33984375,0.0009765625,-1.3251953125
444,1.466,IMU0,1.8902439024390245,4.024390243902439,1.9512195121951221,1.4189453125,-0.12109375,-1.423828125
445,1.466,IMU1,3.658536585365854,2.439024390243903,2.25609756097561,1.3955078125,-0.099609375,-1.4091796875
446,1.466,IMU2,2.3170731707317076,4.024390243902439,1.1585365853658538,1.3828125,-0.111328125,-1.408203125
447,1.476,IMU0,-3.048780487804878,0.6707317073170732,-5.182926829268293,1.361328125,-0.15625,-1.3349609375
448,1.476,IMU1,-0.7926829268292683,-0.6097560975609757,-5.0,1.341796875,-0.138671875,-1.326171875
449,1.476,IMU2,-1.6463414634146343,1.3414634146341464,-5.7926829268292686,1.3232421875,-0.15625,-1.3291015625
450,1.486,IMU0,-2.5609756097560976,3.414634146341464,-4.634146341463415,1.23828125,0.0068359375,-1.3388671875
451,1.486,IMU1,-0.48780487804878053,1.524390243902439,-4.451219512195122,1.2314453125,0.021484375,-1.333984375
452,1.486,IMU2,-1.0975609756097562,3.1097560975609757,-4.085365853658537,1.2421875,-0.0009765625,-1.2900390625
453,1.496,IMU0,1.0975609756097562,0.48780487804878053,6.097560975609756,1.2216796875,0.021484375,-1.38671875
454,1.496,IMU1,3.2926829268292686,-1.0365853658536586,6.219512195121951,1.2080078125,0.041015625,-1.3955078125
455,1.496,IMU2,1.8902439024390245,0.7317073170731708,6.219512195121951,1.2216796875,0.0166015625,-1.38671875
456,1.506,IMU0,1.0365853658536586,4.024390243902439,11.463414634146343,1.224609375,0.033203125,-1.322265625
457,1.506,IMU1,2.987804878048781,2.6219512195121952,11.646341463414634,1.20703125,0.0498046875,-1.298828125
458,1.506,IMU2,1.0365853658536586,4.75609756097561,11.097560975609756,1.201171875,0.0234375,-1.2880859375
459,1.516,IMU0,-1.707317073170732,-1.0365853658536586,6.2804878048780495,1.1611328125,-0.0966796875,-1.240234375
460,1.516,IMU1,-0.1829268292682927,-2.1951219512195124,6.585365853658537,1.134765625,-0.0810546875,-1.2333984375
461,1.516,IMU2,-1.8902439024390245,-0.7317073170731708,4.939024390243903,1.115234375,-0.0888671875,-1.2109375
462,1.526,IMU0,-5.121951219512195,-6.463414634146342,-0.9146341463414634,1.0498046875,0.0078125,-1.259765625
463,1.526,IMU1,-2.9268292682926833,-8.109756097560977,-0.7317073170731708,1.0302734375,0.0234375,-1.263671875
464,1.526,IMU2,-3.9024390243902443,-6.219512195121951,-1.7682926829268295,1.015625,0.0166015625,-1.216796875
465,1.536,IMU0,-6.585365853658537,-6.402439024390245,-2.5609756097560976,0.904296875,0.1533203125,-1.1728515625
466,1.536,IMU1,-4.207317073170732,-8.170731707317074,-2.5,0.8876953125,0.1640625,-1.154296875
467,1.536,IMU2,-5.060975609756098,-5.975609756097562,-3.048780487804878,0.888671875,0.140625,-1.134765625
468,1.546,IMU0,-5.914634146341464,3.1097560975609757,-3.8414634146341466,0.701171875,0.0966796875,-1.064453125
469,1.546,IMU1,-3.231707317073171,1.7682926829268295,-3.780487804878049,0.6845703125,0.109375,-1.0576171875
470,1.546,IMU2,-5.670731707317073,3.353658536585366,-4.390243902439025,0.669921875,0.0966796875,-1.046875
471,1.556,IMU0,-5.365853658536586,11.52439024390244,-4.878048780487806,0.673828125,0.1123046875,-1.052734375
472,1.556,IMU1,-1.9512195121951221,10.24390243902439,-4.878048780487806,0.6611328125,0.1240234375,-1.0595703125
473,1.556,IMU2,-3.5975609756097566,12.865853658536587,-5.182926829268293,0.66015625,0.1103515625,-1.0615234375
474,1.566,IMU0,-2.5,12.01219512195122,-2.0121951219512195,0.7861328125,0.125,-1.0068359375
475,1.566,IMU1,-0.853658536585366,10.731707317073171,-1.829268292682927,0.7734375,0.1396484375,-1.0009765625
476,1.566,IMU2,-1.524390243902439,10.731707317073171,-2.3170731707317076,0.7763671875,0.1279296875,-0.9814453125
477,1.576,IMU0,-2.8658536585365857,6.158536585365854,0.0,0.8671875,0.171875,-1.0224609375
478,1.576,IMU1,-0.853658536585366,5.060975609756098,0.06097560975609757,0.853515625,0.1865234375,-1.0166015625
479,1.576,IMU2,-1.6463414634146343,6.036585365853659,-0.1829268292682927,0.8544921875,0.16796875,-1.013671875
480,1.586,IMU0,-2.25609756097561,-0.6097560975609757,-1.2804878048780488,0.796875,0.1630859375,-1.021484375
481,1.586,IMU1,0.3658536585365854,-2.073170731707317,-1.1585365853658538,0.78515625,0.17578125,-1.0078125
482,1.586,IMU2,-0.12195121951219513,0.9756097560975611,-1.4634146341463417,0.7861328125,0.158203125,-1.0166015625
483,1.596,IMU0,-2.804878048780488,-2.9268292682926833,-1.524390243902439,0.859375,0.14453125,-1.1171875
484,1.596,IMU1,-0.6097560975609757,-4.085365853658537,-1.2804878048780488,0.837890625,0.15234375,-1.1025390625
485,1.596,IMU2,-1.5853658536585367,-1.7682926829268295,-1.9512195121951221,0.8330078125,0.138671875,-1.107421875
486,1.606,IMU0,-3.8414634146341466,-2.5,-2.8658536585365857,0.931640625,0.0947265625,-1.0009765625
487,1.606,IMU1,-1.4634146341463417,-6.2804878048780495,-2.9268292682926833,0.9111328125,0.1103515625,-0.9931640625
488,1.606,IMU2,-3.2926829268292686,-4.2682926829268295,-3.536585365853659,0.9072265625,0.091796875,-0.978515625
489,1.616,IMU0,-4.146341463414634,-2.25609756097561,-3.7195121951219514,0.939453125,0.0986328125,-1.0361328125
490,1.616,IMU1,-1.4634146341463417,-3.8414634146341466,-3.658536585365854,0.921875,0.115234375,-1.0419921875
491,1.616,IMU2,-2.1951219512195124,-1.7682926829268295,-4.329268292682928,0.919921875,0.0927734375,-1.015625
492,1.626,IMU0,-0.7317073170731708,2.1951219512195124,-1.707317073170732,1.0009765625,0.0869140625,-0.9892578125
493,1.626,IMU1,1.4634146341463417,0.0,-1.6463414634146343,0.9853515625,0.107421875,-0.9912109375
494,1.626,IMU2,0.6707317073170732,1.0365853658536586,-2.3170731707317076,0.974609375,0.08203125,-0.9697265625
495,1.636,IMU0,-0.30487804878048785,0.7317073170731708,-1.829268292682927,1.044921875,0.1181640625,-1.0732421875
496,1.636,IMU1,1.9512195121951221,-0.48780487804878053,-1.1585365853658538,1.033203125,0.1337890625,-1.0625
497,1.636,IMU2,1.1585365853658538,1.2195121951219514,-2.1951219512195124,1.0400390625,0.1171875,-1.072265625
498,1.646,IMU0,2.0121951219512195,0.24390243902439027,-0.30487804878048785,0.990234375,0.080078125,-1.03125
499,1.646,IMU1,4.878048780487806,-2.25609756097561,-0.1829268292682927,0.982421875,0.0869140625,-1.0322265625
500,1.646,IMU2,3.5975609756097566,0.9756097560975611,-0.6707317073170732,0.9697265625,0.076171875,-1.029296875
501,1.656,IMU0,1.524390243902439,3.2926829268292686,-2.8658536585365857,0.8271484375,0.0419921875,-0.953125
502,1.656,IMU1,4.634146341463415,2.378048780487805,-3.231707317073171,0.810546875,0.072265625,-0.9580078125
503,1.656,IMU2,2.7439024390243905,4.024390243902439,-3.231707317073171,0.7978515625,0.0419921875,-0.9287109375
504,1.666,IMU0,0.5487804878048781,2.7439024390243905,-3.414634146341464,0.76953125,0.1064453125,-0.966796875
505,1.666,IMU1,4.024390243902439,1.402439024390244,-3.414634146341464,0.7568359375,0.1259765625,-0.958984375
506,1.666,IMU2,2.0121951219512195,3.1707317073170733,-3.780487804878049,0.75,0.103515625,-0.951171875
507,1.676,IMU0,1.3414634146341464,2.682926829268293,-2.0121951219512195,0.6640625,0.1552734375,-0.9111328125
508,1.676,IMU1,3.5975609756097566,0.9756097560975611,-1.1585365853658538,0.625,0.162109375,-0.9560546875
509,1.676,IMU2,2.073170731707317,2.682926829268293,-2.25609756097561,0.654296875,0.140625,-0.9052734375
510,1.686,IMU0,2.9268292682926833,7.317073170731708,1.829268292682927,0.5146484375,0.09765625,-0.93359375
511,1.686,IMU1,5.121951219512195,5.365853658536586,2.1951219512195124,0.5087890625,0.119140625,-0.97265625
512,1.686,IMU2,3.536585365853659,6.219512195121951,1.707317073170732,0.498046875,0.10546875,-0.9521484375
513,1.696,IMU0,0.06097560975609757,5.609756097560976,1.0975609756097562,0.4775390625,0.1220703125,-0.8740234375
514,1.696,IMU1,3.1097560975609757,3.5975609756097566,1.4634146341463417,0.4736328125,0.1025390625,-0.8642578125
515,1.696,IMU2,2.25609756097561,5.548780487804878,0.7926829268292683,0.46875,0.115234375,-0.8779296875
516,1.706,IMU0,0.426829268292683,3.9024390243902443,0.5487804878048781,0.5859375,0.1259765625,-0.8603515625
517,1.706,IMU1,2.9268292682926833,2.682926829268293,0.6707317073170732,0.5751953125,0.138671875,-0.8466796875
518,1.706,IMU2,1.8902439024390245,5.060975609756098,-0.1829268292682927,0.57421875,0.1103515625,-0.8173828125
519,1.716,IMU0,-0.426829268292683,0.7926829268292683,3.658536585365854,0.5537109375,0.1845703125,-0.8818359375
520,1.716,IMU1,2.5,-1.1585365853658538,3.7195121951219514,0.5244140625,0.1962890625,-0.8916015625
521,1.716,IMU2,0.853658536585366,0.0,2.9268292682926833,0.5361328125,0.177734375,-0.8837890625
522,1.726,IMU0,0.6707317073170732,2.682926829268293,7.01219512195122,0.4951171875,0.1923828125,-0.8876953125
523,1.726,IMU1,1.8902439024390245,0.6097560975609757,7.195121951219513,0.4892578125,0.2001953125,-0.8583984375
524,1.726,IMU2,0.9146341463414634,2.25609756097561,6.158536585365854,0.4892578125,0.2119140625,-0.8955078125
525,1.736,IMU0,2.682926829268293,-2.25609756097561,10.609756097560977,0.447265625,0.154296875,-0.7626953125
526,1.736,IMU1,4.51219512195122,-3.536585365853659,10.792682926829269,0.4375,0.16015625,-0.7451171875
527,1.736,IMU2,4.390243902439025,-1.2195121951219514,10.182926829268293,0.4462890625,0.142578125,-0.7568359375
528,1.746,IMU0,0.426829268292683,1.707317073170732,9.329268292682928,0.3330078125,0.1796875,-0.7998046875
529,1.746,IMU1,2.1951219512195124,0.9146341463414634,9.573170731707318,0.322265625,0.185546875,-0.7900390625
530,1.746,IMU2,2.804878048780488,1.6463414634146343,9.146341463414634,0.3203125,0.1640625,-0.7998046875
531,1.756,IMU0,2.7439024390243905,3.7195121951219514,12.80487804878049,0.2177734375,0.205078125,-0.7578125
532,1.756,IMU1,2.987804878048781,3.2926829268292686,13.04878048780488,0.2099609375,0.212890625,-0.765625
533,1.756,IMU2,4.085365853658537,3.231707317073171,12.256097560975611,0.2041015625,0.1953125,-0.7705078125
534,1.766,IMU0,0.30487804878048785,3.536585365853659,12.80487804878049,0.1865234375,0.24609375,-0.703125
535,1.766,IMU1,2.378048780487805,3.353658536585366,12.987804878048781,0.1728515625,0.251953125,-0.7060546875
536,1.766,IMU2,2.25609756097561,4.695121951219512,12.500000000000002,0.1689453125,0.23046875,-0.6826171875
537,1.776,IMU0,5.487804878048781,2.1341463414634148,22.865853658536587,0.177734375,0.3203125,-0.6181640625
538,1.776,IMU1,8.719512195121952,1.707317073170732,22.80487804878049,0.1767578125,0.3251953125,-0.6044921875
539,1.776,IMU2,7.134146341463415,3.2926829268292686,21.585365853658537,0.1787109375,0.3125,-0.595703125
540,1.786,IMU0,8.841463414634147,-2.9268292682926833,30.914634146341466,0.265625,0.3447265625,-0.6416015625
541,1.786,IMU1,11.890243902439025,-3.8414634146341466,30.914634146341466,0.2578125,0.3525390625,-0.634765625
542,1.786,IMU2,11.402439024390246,-3.2926829268292686,30.243902439024392,0.2548828125,0.328125,-0.6337890625
543,1.796,IMU0,9.207317073170733,-14.51219512195122,32.25609756097561,0.41015625,0.322265625,-0.673828125
544,1.796,IMU1,12.560975609756099,-15.121951219512196,32.19512195121951,0.392578125,0.3330078125,-0.6630859375
545,1.796,IMU2,11.036585365853659,-12.987804878048781,31.76829268292683,0.373046875,0.3125,-0.6396484375
546,1.806,IMU0,8.963414634146343,-16.402439024390244,27.31707317073171,0.3837890625,0.3232421875,-0.6611328125
547,1.806,IMU1,11.646341463414634,-16.951219512195124,27.378048780487806,0.359375,0.3291015625,-0.650390625
548,1.806,IMU2,10.609756097560977,-15.30487804878049,27.25609756097561,0.3544921875,0.29296875,-0.6201171875
549,1.816,IMU0,7.743902439024391,-14.26829268292683,29.32926829268293,0.369140625,0.5419921875,-0.6416015625
550,1.816,IMU1,11.341463414634147,-15.060975609756099,29.146341463414636,0.3662109375,0.548828125,-0.654296875
551,1.816,IMU2,8.658536585365855,-13.658536585365855,28.353658536585368,0.380859375,0.525390625,-0.65234375
552,1.826,IMU0,15.060975609756099,-16.52439024390244,45.1829268292683,0.4912109375,0.513671875,-0.6005859375
553,1.826,IMU1,17.682926829268293,-16.951219512195124,45.0609756097561,0.4833984375,0.5263671875,-0.6025390625
554,1.826,IMU2,15.365853658536587,-14.756097560975611,44.32926829268293,0.4853515625,0.5234375,-0.6142578125
555,1.836,IMU0,17.134146341463417,-17.5,46.646341463414636,0.6064453125,0.451171875,-0.5859375
556,1.836,IMU1,19.085365853658537,-18.658536585365855,46.768292682926834,0.5859375,0.462890625,-0.583984375
557,1.836,IMU2,17.926829268292686,-16.402439024390244,46.34146341463415,0.578125,0.4375,-0.55078125
558,1.846,IMU0,19.207317073170735,-18.53658536585366,46.15853658536586,0.61328125,0.4384765625,-0.6337890625
559,1.846,IMU1,22.073170731707318,-19.634146341463417,46.21951219512196,0.5927734375,0.4501953125,-0.615234375
560,1.846,IMU2,19.75609756097561,-18.597560975609756,45.91463414634147,0.5830078125,0.42578125,-0.59375
561,1.856,IMU0,17.743902439024392,-23.10975609756098,45.97560975609756,0.6884765625,0.4921875,-0.6142578125
562,1.856,IMU1,21.28048780487805,-24.451219512195124,45.97560975609756,0.6708984375,0.505859375,-0.595703125
563,1.856,IMU2,19.695121951219512,-21.890243902439025,45.487804878048784,0.6669921875,0.4833984375,-0.5791015625
564,1.866,IMU0,19.878048780487806,-18.170731707317074,46.951219512195124,0.7548828125,0.466796875,-0.65234375
565,1.866,IMU1,22.926829268292686,-19.695121951219512,47.01219512195122,0.73046875,0.478515625,-0.6416015625
566,1.866,IMU2,21.28048780487805,-18.475609756097562,46.707317073170735,0.724609375,0.4619140625,-0.6767578125
567,1.876,IMU0,19.878048780487806,-18.170731707317074,46.951219512195124,0.7548828125,0.466796875,-0.65234375
568,1.876,IMU1,20.54878048780488,-23.353658536585368,38.59756097560976,0.7880859375,0.328125,-0.666015625
569,1.876,IMU2,18.10975609756098,-22.012195121951223,38.65853658536586,0.7666015625,0.3125,-0.6611328125
570,1.886,IMU0,13.109756097560977,-24.085365853658537,33.35365853658537,0.7158203125,0.4541015625,-0.6533203125
571,1.886,IMU1,15.243902439024392,-25.670731707317074,33.41463414634146,0.708984375,0.4697265625,-0.6376953125
572,1.886,IMU2,13.109756097560977,-24.26829268292683,32.743902439024396,0.724609375,0.451171875,-0.625
573,1.896,IMU0,15.000000000000002,-27.439024390243905,38.29268292682927,0.76953125,0.28515625,-0.724609375
574,1.896,IMU1,16.28048780487805,-28.963414634146343,38.59756097560976,0.740234375,0.30078125,-0.716796875
575,1.896,IMU2,15.731707317073171,-28.10975609756098,38.170731707317074,0.72265625,0.279296875,-0.703125
576,1.906,IMU0,7.865853658536586,-25.731707317073173,24.939024390243905,0.765625,0.255859375,-0.7421875
577,1.906,IMU1,9.573170731707318,-26.58536585365854,25.243902439024392,0.736328125,0.2724609375,-0.73046875
578,1.906,IMU2,9.939024390243903,-26.09756097560976,24.75609756097561,0.720703125,0.251953125,-0.7021484375
579,1.916,IMU0,2.7439024390243905,-21.28048780487805,10.853658536585368,0.76953125,0.244140625,-0.654296875
580,1.916,IMU1,4.75609756097561,-22.5609756097561,11.097560975609756,0.7392578125,0.2578125,-0.630859375
581,1.916,IMU2,4.634146341463415,-21.707317073170735,10.670731707317074,0.72265625,0.2412109375,-0.66015625
582,1.926,IMU0,-2.6219512195121952,-20.48780487804878,2.804878048780488,0.6669921875,0.3955078125,-0.623046875
583,1.926,IMU1,0.24390243902439027,-21.890243902439025,2.804878048780488,0.65625,0.4072265625,-0.6025390625
584,1.926,IMU2,-0.7317073170731708,-20.121951219512198,2.1951219512195124,0.6611328125,0.3837890625,-0.5859375
585,1.936,IMU0,-0.12195121951219513,-17.98780487804878,6.402439024390245,0.7158203125,0.349609375,-0.603515625
586,1.936,IMU1,2.804878048780488,-19.32926829268293,6.463414634146342,0.6923828125,0.3623046875,-0.591796875
587,1.936,IMU2,1.1585365853658538,-17.378048780487806,6.036585365853659,0.6826171875,0.33984375,-0.595703125
588,1.946,IMU0,-1.8902439024390245,-19.32926829268293,4.695121951219512,0.7177734375,0.4072265625,-0.5498046875
589,1.946,IMU1,0.426829268292683,-20.121951219512198,4.695121951219512,0.7041015625,0.42578125,-0.560546875
590,1.946,IMU2,-1.1585365853658538,-18.597560975609756,4.146341463414634,0.7080078125,0.41015625,-0.58984375
591,1.956,IMU0,-1.6463414634146343,-19.390243902439025,7.682926829268293,0.833984375,0.37890625,-0.5947265625
592,1.956,IMU1,1.6463414634146343,-20.670731707317074,7.682926829268293,0.81640625,0.3955078125,-0.5751953125
593,1.956,IMU2,-0.48780487804878053,-18.658536585365855,7.195121951219513,0.8154296875,0.37109375,-0.5625
594,1.966,IMU0,-2.987804878048781,-18.84146341463415,5.853658536585367,0.806640625,0.3623046875,-0.5234375
595,1.966,IMU1,0.0,-20.30487804878049,5.853658536585367,0.7919921875,0.3779296875,-0.52734375
596,1.966,IMU2,-1.8902439024390245,-18.414634146341466,5.3048780487804885,0.79296875,0.3603515625,-0.55078125
597,1.976,IMU0,-2.5,-20.365853658536587,0.7926829268292683,0.822265625,0.3466796875,-0.630859375
598,1.976,IMU1,0.06097560975609757,-22.134146341463417,0.9146341463414634,0.796875,0.3623046875,-0.6298828125
599,1.976,IMU2,-1.9512195121951221,-20.182926829268293,0.426829268292683,0.7861328125,0.3466796875,-0.62890625
600,1.986,IMU0,-3.536585365853659,-17.682926829268293,-3.1707317073170733,0.80078125,0.3779296875,-0.541015625
601,1.986,IMU1,0.0,-18.963414634146343,-3.231707317073171,0.787109375,0.390625,-0.5107421875
602,1.986,IMU2,-2.8658536585365857,-17.5609756097561,-3.658536585365854,0.7861328125,0.37109375,-0.5029296875
603,1.996,IMU0,-2.8658536585365857,-21.890243902439025,-0.30487804878048785,0.744140625,0.4560546875,-0.521484375
604,1.996,IMU1,0.0,-23.353658536585368,-0.30487804878048785,0.734375,0.4716796875,-0.525390625
605,1.996,IMU2,-1.524390243902439,-21.82926829268293,-0.7926829268292683,0.73828125,0.4521484375,-0.52734375
606,2.006,IMU0,-3.5975609756097566,-17.743902439024392,-0.06097560975609757,0.7197265625,0.427734375,-0.5380859375
607,2.006,IMU1,-0.6097560975609757,-19.146341463414636,-0.06097560975609757,0.703125,0.4423828125,-0.513671875
608,2.006,IMU2,-2.5609756097560976,-17.98780487804878,-0.6097560975609757,0.7021484375,0.4228515625,-0.5107421875
609,2.016,IMU0,-6.52439024390244,-18.353658536585368,-1.8902439024390245,0.7783203125,0.44140625,-0.5322265625
610,2.016,IMU1,-2.7439024390243905,-19.451219512195124,-1.9512195121951221,0.7607421875,0.4560546875,-0.51953125
611,2.016,IMU2,-4.695121951219512,-18.231707317073173,-2.5,0.759765625,0.4365234375,-0.505859375
612,2.026,IMU0,-7.01219512195122,-13.109756097560977,-1.6463414634146343,0.7919921875,0.419921875,-0.478515625
613,2.026,IMU1,-3.658536585365854,-14.207317073170733,-1.707317073170732,0.7841796875,0.4365234375,-0.4716796875
614,2.026,IMU2,-5.731707317073171,-12.926829268292684,-2.1951219512195124,0.79296875,0.4169921875,-0.4775390625
615,2.036,IMU0,-4.146341463414634,-4.451219512195122,10.182926829268293,0.7841796875,0.689453125,-0.53515625
616,2.036,IMU1,-1.829268292682927,-5.060975609756098,10.060975609756099,0.7841796875,0.7041015625,-0.5361328125
617,2.036,IMU2,-2.987804878048781,-3.963414634146342,9.756097560975611,0.806640625,0.685546875,-0.5595703125
618,2.046,IMU0,4.75609756097561,-5.975609756097562,19.634146341463417,0.8828125,0.53515625,-0.6650390625
619,2.046,IMU1,7.743902439024391,-7.25609756097561,19.573170731707318,0.8583984375,0.5517578125,-0.65234375
620,2.046,IMU2,6.036585365853659,-5.7926829268292686,19.146341463414636,0.8603515625,0.529296875,-0.662109375
621,2.056,IMU0,-0.24390243902439027,-10.914634146341465,10.060975609756099,0.93359375,0.48828125,-0.734375
622,2.056,IMU1,1.402439024390244,-12.378048780487806,10.182926829268293,0.9033203125,0.5,-0.716796875
623,2.056,IMU2,-0.6097560975609757,-10.548780487804878,9.51219512195122,0.892578125,0.490234375,-0.7412109375
624,2.066,IMU0,-0.30487804878048785,-6.219512195121951,1.7682926829268295,0.9189453125,0.5087890625,-0.787109375
625,2.066,IMU1,0.9756097560975611,-7.926829268292684,2.0121951219512195,0.88671875,0.5224609375,-0.7724609375
626,2.066,IMU2,0.7317073170731708,-6.2804878048780495,1.1585365853658538,0.8818359375,0.509765625,-0.771484375
627,2.076,IMU0,-4.451219512195122,-4.390243902439025,-5.670731707317073,0.9228515625,0.580078125,-0.798828125
628,2.076,IMU1,-2.5,-5.975609756097562,-5.548780487804878,0.90625,0.59765625,-0.787109375
629,2.076,IMU2,-3.4756097560975614,-4.085365853658537,-6.036585365853659,0.9189453125,0.580078125,-0.7900390625
630,2.086,IMU0,-4.817073170731708,-5.487804878048781,-4.939024390243903,1.01171875,0.548828125,-0.7998046875
631,2.086,IMU1,-1.524390243902439,-6.52439024390244,-5.0,0.9873046875,0.564453125,-0.79296875
632,2.086,IMU2,-3.2926829268292686,-3.9024390243902443,-5.426829268292684,0.9990234375,0.54296875,-0.7998046875
633,2.096,IMU0,-5.3048780487804885,-11.890243902439025,-1.6463414634146343,0.9833984375,0.5244140625,-0.69921875
634,2.096,IMU1,-3.353658536585366,-13.170731707317074,-1.6463414634146343,0.970703125,0.5419921875,-0.6962890625
635,2.096,IMU2,-3.536585365853659,-10.853658536585368,-2.1341463414634148,0.9775390625,0.5244140625,-0.669921875
636,2.106,IMU0,-1.4634146341463417,-9.451219512195122,3.8414634146341466,0.9736328125,0.5126953125,-0.6787109375
637,2.106,IMU1,0.5487804878048781,-9.878048780487806,3.8414634146341466,0.9541015625,0.529296875,-0.6728515625
638,2.106,IMU2,-0.24390243902439027,-7.865853658536586,3.353658536585366,0.958984375,0.509765625,-0.66796875
639,2.116,IMU0,-0.06097560975609757,-3.1707317073170733,4.2682926829268295,1.0390625,0.53515625,-0.7763671875
640,2.116,IMU1,2.5,-3.7195121951219514,4.2682926829268295,1.015625,0.5478515625,-0.7587890625
641,2.116,IMU2,0.9756097560975611,-1.829268292682927,3.7195121951219514,1.025390625,0.54296875,-0.7998046875
642,2.126,IMU0,2.073170731707317,3.2926829268292686,6.097560975609756,1.16015625,0.54296875,-0.7763671875
643,2.126,IMU1,4.75609756097561,2.1341463414634148,6.158536585365854,1.1357421875,0.5625,-0.7744140625
644,2.126,IMU2,3.231707317073171,3.5975609756097566,5.670731707317073,1.1416015625,0.5419921875,-0.7734375
645,2.136,IMU0,3.536585365853659,5.914634146341464,5.121951219512195,1.1845703125,0.5205078125,-0.7568359375
646,2.136,IMU1,5.609756097560976,4.451219512195122,5.2439024390243905,1.16015625,0.5400390625,-0.763671875
647,2.136,IMU2,4.51219512195122,6.341463414634147,4.817073170731708,1.1630859375,0.517578125,-0.7236328125
648,2.146,IMU0,5.426829268292684,6.707317073170732,6.097560975609756,1.2177734375,0.5703125,-0.8193359375
649,2.146,IMU1,8.536585365853659,5.3048780487804885,6.219512195121951,1.1962890625,0.5927734375,-0.8173828125
650,2.146,IMU2,7.073170731707318,6.52439024390244,5.914634146341464,1.1982421875,0.5478515625,-0.8017578125
651,2.156,IMU0,2.5,1.829268292682927,1.0975609756097562,1.310546875,0.5693359375,-0.8837890625
652,2.156,IMU1,4.878048780487806,0.426829268292683,1.2804878048780488,1.2841796875,0.58984375,-0.8623046875
653,2.156,IMU2,3.658536585365854,1.524390243902439,0.7317073170731708,1.28515625,0.5751953125,-0.865234375
654,2.166,IMU0,2.7439024390243905,-3.2926829268292686,1.1585365853658538,1.349609375,0.57421875,-0.7626953125
655,2.166,IMU1,5.060975609756098,-4.390243902439025,1.3414634146341464,1.333984375,0.5966796875,-0.7646484375
656,2.166,IMU2,4.329268292682928,-4.2682926829268295,1.0365853658536586,1.3447265625,0.578125,-0.78125
657,2.176,IMU0,2.987804878048781,-6.219512195121951,3.048780487804878,1.2021484375,0.447265625,-0.837890625
658,2.176,IMU1,5.487804878048781,-7.25609756097561,3.2926829268292686,1.1787109375,0.46875,-0.8291015625
659,2.176,IMU2,3.9024390243902443,-5.121951219512195,2.6219512195121952,1.1669921875,0.4423828125,-0.7958984375
660,2.186,IMU0,-0.30487804878048785,-7.682926829268293,-1.7682926829268295,1.0810546875,0.4169921875,-0.845703125
661,2.186,IMU1,1.6463414634146343,-7.987804878048781,-2.0121951219512195,1.056640625,0.435546875,-0.841796875
662,2.186,IMU2,1.0975609756097562,-6.463414634146342,-2.5,1.0537109375,0.412109375,-0.8037109375
663,2.196,IMU0,-2.3170731707317076,1.5853658536585367,-5.0,0.9482421875,0.390625,-0.7548828125
664,2.196,IMU1,-0.9756097560975611,0.12195121951219513,-4.878048780487806,0.927734375,0.4072265625,-0.751953125
665,2.196,IMU2,-1.524390243902439,1.707317073170732,-5.487804878048781,0.9326171875,0.3818359375,-0.6796875
666,2.206,IMU0,-1.3414634146341464,1.4634146341463417,-1.6463414634146343,0.9326171875,0.4072265625,-0.7412109375
667,2.206,IMU1,0.1829268292682927,0.6707317073170732,-1.1585365853658538,0.916015625,0.4150390625,-0.6806640625
668,2.206,IMU2,-0.5487804878048781,1.7682926829268295,-1.7682926829268295,0.9228515625,0.4033203125,-0.6435546875
669,2.216,IMU0,-1.0365853658536586,-1.829268292682927,0.7926829268292683,0.8837890625,0.34765625,-0.6650390625
670,2.216,IMU1,0.853658536585366,-2.5609756097560976,0.6097560975609757,0.857421875,0.353515625,-0.6181640625
671,2.216,IMU2,0.7317073170731708,-0.7317073170731708,0.1829268292682927,0.8525390625,0.3232421875,-0.603515625
672,2.226,IMU0,-2.6219512195121952,0.9756097560975611,-1.7682926829268295,0.79296875,0.4599609375,-0.693359375
673,2.226,IMU1,-0.3658536585365854,-0.3658536585365854,-1.1585365853658538,0.7744140625,0.4453125,-0.67578125
674,2.226,IMU2,-1.2195121951219514,1.402439024390244,-1.9512195121951221,0.77734375,0.4287109375,-0.666015625
675,2.236,IMU0,-2.5609756097560976,4.634146341463415,-1.402439024390244,0.787109375,0.4609375,-0.671875
676,2.236,IMU1,-0.6097560975609757,2.804878048780488,-1.402439024390244,0.7529296875,0.46484375,-0.623046875
677,2.236,IMU2,-1.5853658536585367,4.634146341463415,-1.8902439024390245,0.7587890625,0.4560546875,-0.662109375
678,2.246,IMU0,-2.8658536585365857,7.195121951219513,-3.658536585365854,0.71875,0.4130859375,-0.6484375
679,2.246,IMU1,-0.853658536585366,5.0,-3.536585365853659,0.705078125,0.40625,-0.59765625
680,2.246,IMU2,-2.3170731707317076,6.646341463414635,-4.024390243902439,0.708984375,0.404296875,-0.626953125
681,2.256,IMU0,-5.182926829268293,-1.0365853658536586,-7.865853658536586,0.666015625,0.3408203125,-0.6298828125
682,2.256,IMU1,-3.4756097560975614,-2.1951219512195124,-8.353658536585366,0.638671875,0.34765625,-0.611328125
683,2.256,IMU2,-4.024390243902439,-0.5487804878048781,-8.719512195121952,0.6357421875,0.3388671875,-0.6376953125
684,2.266,IMU0,-6.097560975609756,-4.939024390243903,-11.158536585365855,0.525390625,0.369140625,-0.556640625
685,2.266,IMU1,-3.658536585365854,-5.670731707317073,-11.036585365853659,0.5205078125,0.3916015625,-0.560546875
686,2.266,IMU2,-4.878048780487806,-3.658536585365854,-11.646341463414634,0.5224609375,0.359375,-0.5205078125
687,2.276,IMU0,-4.634146341463415,-7.743902439024391,-6.890243902439025,0.4697265625,0.41015625,-0.5224609375
688,2.276,IMU1,-2.1341463414634148,-8.475609756097562,-6.890243902439025,0.4521484375,0.4267578125,-0.50390625
689,2.276,IMU2,-3.536585365853659,-6.2804878048780495,-7.560975609756098,0.4609375,0.4130859375,-0.50390625
690,2.286,IMU0,-4.2682926829268295,-7.682926829268293,-3.231707317073171,0.3623046875,0.455078125,-0.45703125
691,2.286,IMU1,-1.402439024390244,-8.902439024390244,-3.1707317073170733,0.3525390625,0.466796875,-0.4580078125
692,2.286,IMU2,-3.1097560975609757,-6.829268292682928,-3.780487804878049,0.3662109375,0.462890625,-0.5283203125
693,2.296,IMU0,-2.682926829268293,-5.121951219512195,-0.426829268292683,0.240234375,0.466796875,-0.443359375
694,2.296,IMU1,-0.12195121951219513,-6.219512195121951,-0.3658536585365854,0.2275390625,0.4736328125,-0.44140625
695,2.296,IMU2,-1.707317073170732,-4.573170731707317,-0.853658536585366,0.2333984375,0.45703125,-0.458984375
696,2.306,IMU0,-3.048780487804878,-3.048780487804878,-1.707317073170732,0.1396484375,0.4345703125,-0.306640625
697,2.306,IMU1,-0.7317073170731708,-4.207317073170732,-1.524390243902439,0.123046875,0.4443359375,-0.28515625
698,2.306,IMU2,-1.9512195121951221,-2.804878048780488,-2.073170731707317,0.1162109375,0.4375,-0.30078125
699,2.316,IMU0,-3.1707317073170733,-1.402439024390244,-4.573170731707317,0.0322265625,0.44140625,-0.2724609375
700,2.316,IMU1,-0.7317073170731708,-2.7439024390243905,-4.390243902439025,0.0205078125,0.44921875,-0.251953125
701,2.316,IMU2,-2.25609756097561,-1.2804878048780488,-4.878048780487806,0.01171875,0.4365234375,-0.26171875
702,2.326,IMU0,-4.2682926829268295,-1.1585365853658538,-5.2439024390243905,0.0869140625,0.5048828125,-0.279296875
703,2.326,IMU1,-1.829268292682927,-2.1951219512195124,-5.060975609756098,0.0771484375,0.5126953125,-0.263671875
704,2.326,IMU2,-3.231707317073171,-0.7926829268292683,-5.548780487804878,0.0791015625,0.50390625,-0.28125
705,2.336,IMU0,-0.9146341463414634,2.7439024390243905,-0.06097560975609757,0.091796875,0.509765625,-0.22265625
706,2.336,IMU1,1.1585365853658538,1.829268292682927,0.24390243902439027,0.0859375,0.515625,-0.1962890625
707,2.336,IMU2,-0.24390243902439027,3.231707317073171,-0.3658536585365854,0.0859375,0.5,-0.173828125
708,2.346,IMU0,1.524390243902439,0.1829268292682927,3.1707317073170733,0.1015625,0.486328125,-0.28125
709,2.346,IMU1,3.353658536585366,-1.1585365853658538,3.414634146341464,0.09375,0.49609375,-0.27734375
710,2.346,IMU2,2.3170731707317076,0.48780487804878053,2.9268292682926833,0.08984375,0.48828125,-0.283203125
711,2.356,IMU0,1.707317073170732,-2.073170731707317,-0.3658536585365854,0.142578125,0.4111328125,-0.30859375
712,2.356,IMU1,3.5975609756097566,-3.1097560975609757,-0.12195121951219513,0.1240234375,0.4189453125,-0.3056640625
713,2.356,IMU2,2.682926829268293,-1.402439024390244,-0.5487804878048781,0.1142578125,0.4072265625,-0.3017578125
714,2.366,IMU0,2.25609756097561,-1.5853658536585367,-3.2926829268292686,0.205078125,0.435546875,-0.2294921875
715,2.366,IMU1,3.5975609756097566,-2.5,-3.048780487804878,0.1962890625,0.4462890625,-0.2373046875
716,2.366,IMU2,3.658536585365854,-0.7926829268292683,-3.658536585365854,0.197265625,0.435546875,-0.2509765625
717,2.376,IMU0,5.7926829268292686,-0.7926829268292683,1.3414634146341464,0.1767578125,0.3994140625,-0.2197265625
718,2.376,IMU1,7.8048780487804885,-2.073170731707317,1.524390243902439,0.16796875,0.412109375,-0.212890625
719,2.376,IMU2,6.402439024390245,-0.48780487804878053,0.9756097560975611,0.1669921875,0.4033203125,-0.224609375
720,2.386,IMU0,5.2439024390243905,-0.6707317073170732,1.0975609756097562,0.1611328125,0.390625,-0.25390625
721,2.386,IMU1,7.8048780487804885,-2.5,1.2195121951219514,0.1474609375,0.400390625,-0.248046875
722,2.386,IMU2,5.731707317073171,-0.6707317073170732,0.7926829268292683,0.1396484375,0.390625,-0.2529296875
723,2.396,IMU0,2.8658536585365857,0.853658536585366,-2.8658536585365857,0.15234375,0.3642578125,-0.2666015625
724,2.396,IMU1,5.731707317073171,-0.3658536585365854,-2.6219512195121952,0.1376953125,0.3740234375,-0.26171875
725,2.396,IMU2,4.451219512195122,1.0975609756097562,-3.1097560975609757,0.1298828125,0.3623046875,-0.267578125
726,2.406,IMU0,2.25609756097561,1.829268292682927,-6.707317073170732,0.072265625,0.3525390625,-0.2060546875
727,2.406,IMU1,4.207317073170732,0.12195121951219513,-6.402439024390245,0.056640625,0.36328125,-0.1923828125
728,2.406,IMU2,3.048780487804878,1.0365853658536586,-6.951219512195123,0.048828125,0.3505859375,-0.1943359375
729,2.416,IMU0,3.048780487804878,2.682926829268293,-5.0,0.001953125,0.4130859375,-0.1826171875
730,2.416,IMU1,6.036585365853659,0.426829268292683,-4.817073170731708,0.0,0.421875,-0.1796875
731,2.416,IMU2,3.8414634146341466,1.829268292682927,-5.182926829268293,0.00390625,0.4091796875,-0.181640625
732,2.426,IMU0,3.536585365853659,2.3170731707317076,-1.1585365853658538,-0.0146484375,0.35546875,-0.2763671875
733,2.426,IMU1,6.219512195121951,0.30487804878048785,-0.9756097560975611,-0.021484375,0.3623046875,-0.2822265625
734,2.426,IMU2,5.2439024390243905,1.829268292682927,-1.524390243902439,-0.0244140625,0.3564453125,-0.283203125
735,2.436,IMU0,3.048780487804878,0.7926829268292683,-0.853658536585366,-0.0732421875,0.33203125,-0.216796875
736,2.436,IMU1,5.548780487804878,-1.1585365853658538,-0.7317073170731708,-0.0810546875,0.3369140625,-0.2041015625
737,2.436,IMU2,4.146341463414634,-0.06097560975609757,-1.2195121951219514,-0.0849609375,0.330078125,-0.203125
738,2.446,IMU0,2.7439024390243905,1.402439024390244,1.7682926829268295,-0.1142578125,0.3359375,-0.2041015625
739,2.446,IMU1,5.0,-0.06097560975609757,2.0121951219512195,-0.1181640625,0.341796875,-0.1875
740,2.446,IMU2,3.536585365853659,1.2804878048780488,1.5853658536585367,-0.1201171875,0.3359375,-0.1962890625
741,2.456,IMU0,6.036585365853659,0.9146341463414634,6.341463414634147,-0.0615234375,0.2744140625,-0.1298828125
742,2.456,IMU1,7.865853658536586,-0.5487804878048781,6.402439024390245,-0.072265625,0.28125,-0.1318359375
743,2.456,IMU2,6.951219512195123,1.1585365853658538,5.914634146341464,-0.0791015625,0.2685546875,-0.1318359375
744,2.466,IMU0,4.695121951219512,-1.3414634146341464,1.0975609756097562,-0.01953125,0.2548828125,-0.2255859375
745,2.466,IMU1,6.7682926829268295,-2.7439024390243905,1.2804878048780488,-0.03515625,0.2646484375,-0.2255859375
746,2.466,IMU2,5.914634146341464,-0.7926829268292683,0.6097560975609757,-0.0517578125,0.25,-0.1923828125
747,2.476,IMU0,2.682926829268293,0.5487804878048781,-5.609756097560976,-0.0712890625,0.2294921875,-0.1953125
748,2.476,IMU1,4.75609756097561,-0.7926829268292683,-5.426829268292684,-0.0849609375,0.2373046875,-0.173828125
749,2.476,IMU2,3.536585365853659,1.2195121951219514,-6.036585365853659,-0.10546875,0.224609375,-0.1923828125
750,2.486,IMU0,0.5487804878048781,-0.7317073170731708,-10.487804878048781,-0.19140625,0.30078125,-0.1162109375
751,2.486,IMU1,3.231707317073171,-2.1341463414634148,-10.426829268292684,-0.1953125,0.3056640625,-0.1181640625
752,2.486,IMU2,1.6463414634146343,-0.12195121951219513,-10.853658536585368,-0.19921875,0.2939453125,-0.109375
753,2.496,IMU0,2.9268292682926833,-0.48780487804878053,-9.451219512195122,-0.2099609375,0.3017578125,-0.0146484375
754,2.496,IMU1,5.0,-2.0121951219512195,-9.329268292682928,-0.2109375,0.306640625,-0.0048828125
755,2.496,IMU2,3.536585365853659,-0.426829268292683,-9.695121951219512,-0.21875,0.29296875,-0.04296875
756,2.506,IMU0,6.707317073170732,5.731707317073171,-4.634146341463415,-0.2841796875,0.28515625,-0.0537109375
757,2.506,IMU1,9.085365853658537,3.963414634146342,-4.329268292682928,-0.287109375,0.2861328125,-0.0458984375
758,2.506,IMU2,7.317073170731708,5.548780487804878,-4.695121951219512,-0.2890625,0.2939453125,-0.0283203125
759,2.516,IMU0,8.292682926829269,3.414634146341464,-1.707317073170732,-0.25390625,0.279296875,-0.0185546875
760,2.516,IMU1,10.548780487804878,2.073170731707317,-1.4634146341463417,-0.2548828125,0.2841796875,-0.0107421875
761,2.516,IMU2,8.963414634146343,3.8414634146341466,-1.829268292682927,-0.2578125,0.2685546875,-0.0263671875
762,2.526,IMU0,10.487804878048781,-0.48780487804878053,2.0121951219512195,-0.2490234375,0.25,0.009765625
763,2.526,IMU1,12.74390243902439,-1.829268292682927,2.25609756097561,-0.2578125,0.2529296875,0.009765625
764,2.526,IMU2,11.402439024390246,-0.48780487804878053,1.7682926829268295,-0.259765625,0.2431640625,0.0126953125
765,2.536,IMU0,11.402439024390246,-3.048780487804878,0.6707317073170732,-0.3037109375,0.2021484375,0.0478515625
766,2.536,IMU1,13.536585365853659,-4.2682926829268295,0.853658536585366,-0.3076171875,0.2060546875,0.0595703125
767,2.536,IMU2,12.256097560975611,-2.9268292682926833,0.3658536585365854,-0.3232421875,0.1943359375,0.0498046875
768,2.546,IMU0,11.28048780487805,-3.1097560975609757,-3.048780487804878,-0.3828125,0.1748046875,-0.01953125
769,2.546,IMU1,13.231707317073171,-4.390243902439025,-2.7439024390243905,-0.388671875,0.177734375,0.001953125
770,2.546,IMU2,12.378048780487806,-2.804878048780488,-3.4756097560975614,-0.4189453125,0.173828125,-0.0400390625
771,2.556,IMU0,10.914634146341465,-0.9756097560975611,-7.25609756097561,-0.4267578125,0.20703125,-0.0498046875
772,2.556,IMU1,12.865853658536587,-2.1951219512195124,-7.01219512195122,-0.4326171875,0.2080078125,-0.0517578125
773,2.556,IMU2,11.829268292682928,-0.7317073170731708,-7.560975609756098,-0.4365234375,0.205078125,-0.0361328125
774,2.566,IMU0,10.792682926829269,1.2195121951219514,-10.121951219512196,-0.3828125,0.193359375,-0.064453125
775,2.566,IMU1,12.682926829268293,0.1829268292682927,-9.756097560975611,-0.39453125,0.1953125,-0.04296875
776,2.566,IMU2,11.402439024390246,1.2195121951219514,-10.487804878048781,-0.3955078125,0.2080078125,-0.0458984375
777,2.576,IMU0,10.670731707317074,1.9512195121951221,-11.707317073170733,-0.3759765625,0.21484375,-0.025390625
778,2.576,IMU1,12.682926829268293,0.6707317073170732,-11.402439024390246,-0.3828125,0.21484375,-0.0166015625
779,2.576,IMU2,10.914634146341465,2.0121951219512195,-11.829268292682928,-0.380859375,0.208984375,0.021484375
780,2.586,IMU0,11.585365853658537,0.7317073170731708,-11.097560975609756,-0.2998046875,0.234375,0.01171875
781,2.586,IMU1,13.597560975609758,-0.6097560975609757,-10.792682926829269,-0.3037109375,0.2392578125,0.0185546875
782,2.586,IMU2,11.707317073170733,1.0365853658536586,-11.219512195121952,-0.298828125,0.2177734375,0.017578125
783,2.596,IMU0,13.536585365853659,-1.0975609756097562,-8.414634146341465,-0.263671875,0.2314453125,-0.0068359375
784,2.596,IMU1,15.54878048780488,-2.439024390243903,-8.109756097560977,-0.2666015625,0.2353515625,0.009765625
785,2.596,IMU2,14.085365853658537,-1.0975609756097562,-8.414634146341465,-0.2763671875,0.2216796875,-0.0419921875
786,2.606,IMU0,15.54878048780488,-4.695121951219512,-6.52439024390244,-0.388671875,0.2158203125,-0.0322265625
787,2.606,IMU1,17.682926829268293,-5.975609756097562,-6.097560975609756,-0.39453125,0.21875,-0.015625
788,2.606,IMU2,16.219512195121954,-4.817073170731708,-6.646341463414635,-0.4150390625,0.21875,-0.037109375
789,2.616,IMU0,17.31707317073171,-2.7439024390243905,-9.085365853658537,-0.5966796875,0.2734375,-0.0078125
790,2.616,IMU1,19.390243902439025,-3.780487804878049,-8.658536585365855,-0.6044921875,0.2734375,0.0
791,2.616,IMU2,18.29268292682927,-1.9512195121951221,-9.329268292682928,-0.6220703125,0.2763671875,-0.0283203125
792,2.626,IMU0,21.03658536585366,-0.48780487804878053,-14.329268292682928,-0.7412109375,0.28515625,0.052734375
793,2.626,IMU1,23.10975609756098,-1.524390243902439,-13.78048780487805,-0.7509765625,0.2822265625,0.0400390625
794,2.626,IMU2,22.195121951219512,-0.3658536585365854,-14.634146341463415,-0.771484375,0.2578125,0.0595703125
795,2.636,IMU0,23.902439024390247,2.25609756097561,-19.573170731707318,-0.8310546875,0.26953125,0.05859375
796,2.636,IMU1,25.792682926829272,1.2195121951219514,-19.02439024390244,-0.8349609375,0.26953125,0.0810546875
797,2.636,IMU2,25.000000000000004,2.378048780487805,-19.695121951219512,-0.8505859375,0.2890625,0.0361328125
798,2.646,IMU0,26.707317073170735,3.1707317073170733,-21.34146341463415,-0.8681640625,0.28515625,0.0244140625
799,2.646,IMU1,28.475609756097562,2.073170731707317,-20.853658536585368,-0.869140625,0.279296875,0.0400390625
800,2.646,IMU2,27.5609756097561,3.231707317073171,-21.34146341463415,-0.8876953125,0.2998046875,0.0380859375
801,2.656,IMU0,26.219512195121954,3.353658536585366,-22.682926829268293,-0.9755859375,0.2607421875,0.068359375
802,2.656,IMU1,28.10975609756098,2.3170731707317076,-22.195121951219512,-0.9755859375,0.2529296875,0.0888671875
803,2.656,IMU2,26.951219512195124,3.7195121951219514,-22.743902439024392,-1.0009765625,0.2626953125,0.078125
804,2.666,IMU0,23.59756097560976,6.2804878048780495,-21.707317073170735,-1.09375,0.2646484375,0.2060546875
805,2.666,IMU1,25.0609756097561,5.2439024390243905,-21.219512195121954,-1.08984375,0.2568359375,0.2275390625
806,2.666,IMU2,24.02439024390244,6.036585365853659,-21.52439024390244,-1.10546875,0.28125,0.185546875
807,2.676,IMU0,21.82926829268293,3.048780487804878,-20.0609756097561,-1.162109375,0.2353515625,0.203125
808,2.676,IMU1,23.53658536585366,2.073170731707317,-19.634146341463417,-1.1572265625,0.2294921875,0.2119140625
809,2.676,IMU2,22.682926829268293,3.1097560975609757,-20.121951219512198,-1.18359375,0.2333984375,0.1904296875
810,2.686,IMU0,19.81707317073171,1.0975609756097562,-19.085365853658537,-1.2041015625,0.23828125,0.2119140625
811,2.686,IMU1,21.585365853658537,0.06097560975609757,-18.597560975609756,-1.201171875,0.23046875,0.2158203125
812,2.686,IMU2,20.670731707317074,1.0975609756097562,-19.085365853658537,-1.2255859375,0.240234375,0.205078125
813,2.696,IMU0,19.207317073170735,1.3414634146341464,-17.25609756097561,-1.251953125,0.2265625,0.2763671875
814,2.696,IMU1,20.853658536585368,0.30487804878048785,-16.890243902439025,-1.25,0.2177734375,0.2783203125
815,2.696,IMU2,20.0609756097561,0.9756097560975611,-17.378048780487806,-1.263671875,0.232421875,0.24609375
816,2.706,IMU0,20.914634146341466,-0.12195121951219513,-15.609756097560977,-1.21875,0.23046875,0.2587890625
817,2.706,IMU1,22.682926829268293,-1.2804878048780488,-15.182926829268293,-1.2158203125,0.22265625,0.263671875
818,2.706,IMU2,21.646341463414636,0.06097560975609757,-15.609756097560977,-1.2294921875,0.2353515625,0.2490234375
819,2.716,IMU0,22.500000000000004,0.9756097560975611,-14.51219512195122,-1.2578125,0.21484375,0.2197265625
820,2.716,IMU1,24.451219512195124,-0.06097560975609757,-14.02439024390244,-1.25390625,0.205078125,0.22265625
821,2.716,IMU2,23.414634146341466,1.2195121951219514,-14.51219512195122,-1.2568359375,0.21484375,0.2236328125
822,2.726,IMU0,24.085365853658537,0.06097560975609757,-12.560975609756099,-1.2353515625,0.21875,0.26171875
823,2.726,IMU1,25.914634146341466,-0.9146341463414634,-12.195121951219512,-1.2353515625,0.2080078125,0.2724609375
824,2.726,IMU2,25.000000000000004,0.06097560975609757,-12.80487804878049,-1.2509765625,0.2353515625,0.21875
825,2.736,IMU0,24.390243902439025,-0.5487804878048781,-12.621951219512196,-1.2216796875,0.1650390625,0.2705078125
826,2.736,IMU1,26.219512195121954,-1.5853658536585367,-12.256097560975611,-1.21875,0.1572265625,0.2880859375
827,2.736,IMU2,24.939024390243905,-0.7317073170731708,-12.80487804878049,-1.23828125,0.173828125,0.2509765625
828,2.746,IMU0,24.085365853658537,-2.378048780487805,-14.878048780487806,-1.1953125,0.140625,0.25
829,2.746,IMU1,25.60975609756098,-2.5,-14.451219512195124,-1.193359375,0.1328125,0.26171875
830,2.746,IMU2,24.573170731707318,-1.4634146341463417,-14.878048780487806,-1.228515625,0.1240234375,0.248046875
831,2.756,IMU0,22.195121951219512,-6.585365853658537,-20.54878048780488,-1.173828125,0.1435546875,0.20703125
832,2.756,IMU1,23.84146341463415,-6.463414634146342,-20.54878048780488,-1.17578125,0.13671875,0.220703125
833,2.756,IMU2,22.682926829268293,-5.426829268292684,-21.03658536585366,-1.18359375,0.1142578125,0.2431640625
834,2.766,IMU0,20.182926829268293,-5.609756097560976,-28.902439024390247,-1.162109375,0.0595703125,0.228515625
835,2.766,IMU1,21.951219512195124,-7.865853658536586,-29.75609756097561,-1.1552734375,0.0703125,0.2470703125
836,2.766,IMU2,20.853658536585368,-6.463414634146342,-30.0609756097561,-1.1845703125,0.0703125,0.23828125
837,2.776,IMU0,18.170731707317074,-10.30487804878049,-40.54878048780488,-1.07421875,0.0595703125,0.2822265625
838,2.776,IMU1,19.939024390243905,-11.707317073170733,-40.91463414634147,-1.103515625,0.0576171875,0.2392578125
839,2.776,IMU2,18.84146341463415,-10.30487804878049,-41.28048780487805,-1.1259765625,0.056640625,0.232421875
840,2.786,IMU0,19.451219512195124,-11.585365853658537,-45.85365853658537,-1.037109375,0.134765625,0.2275390625
841,2.786,IMU1,21.463414634146343,-12.439024390243903,-45.36585365853659,-1.0322265625,0.1298828125,0.2373046875
842,2.786,IMU2,20.30487804878049,-11.158536585365855,-45.91463414634147,-1.046875,0.130859375,0.22265625
843,2.796,IMU0,24.390243902439025,-12.987804878048781,-41.03658536585366,-1.001953125,0.1748046875,0.1611328125
844,2.796,IMU1,26.707317073170735,-13.902439024390246,-39.207317073170735,-0.9990234375,0.1748046875,0.197265625
845,2.796,IMU2,25.48780487804878,-12.621951219512196,-39.75609756097561,-0.9990234375,0.1748046875,0.1845703125
846,2.806,IMU0,31.52439024390244,-11.402439024390246,-27.25609756097561,-1.015625,0.181640625,0.146484375
847,2.806,IMU1,33.78048780487805,-12.134146341463415,-24.939024390243905,-1.0068359375,0.1689453125,0.2041015625
848,2.806,IMU2,32.5,-11.036585365853659,-25.426829268292686,-1.00390625,0.1689453125,0.197265625
849,2.816,IMU0,39.024390243902445,-13.597560975609758,-12.134146341463415,-0.986328125,0.1865234375,0.1640625
850,2.816,IMU1,41.768292682926834,-13.170731707317074,-9.878048780487806,-0.990234375,0.1689453125,0.1787109375
851,2.816,IMU2,40.54878048780488,-12.073170731707318,-10.30487804878049,-0.9873046875,0.171875,0.162109375
852,2.826,IMU0,47.31707317073171,-8.78048780487805,3.5975609756097566,-0.9482421875,0.173828125,0.1796875
853,2.826,IMU1,49.451219512195124,-9.573170731707318,4.024390243902439,-0.9462890625,0.1455078125,0.2041015625
854,2.826,IMU2,48.170731707317074,-8.658536585365855,3.658536585365854,-0.947265625,0.1435546875,0.1884765625
855,2.836,IMU0,51.768292682926834,-8.963414634146343,15.060975609756099,-0.9462890625,0.1552734375,0.1884765625
856,2.836,IMU1,53.78048780487806,-9.573170731707318,15.54878048780488,-0.9296875,0.1396484375,0.208984375
857,2.836,IMU2,52.6219512195122,-8.658536585365855,15.182926829268293,-0.9326171875,0.1357421875,0.1962890625
858,2.846,IMU0,56.28048780487806,-6.158536585365854,24.02439024390244,-0.951171875,0.1328125,0.1865234375
859,2.846,IMU1,58.41463414634147,-6.585365853658537,24.512195121951223,-0.943359375,0.1298828125,0.1904296875
860,2.846,IMU2,57.13414634146342,-5.914634146341464,24.146341463414636,-0.9443359375,0.130859375,0.1787109375
861,2.856,IMU0,58.29268292682927,-3.5975609756097566,28.414634146341466,-0.9765625,0.056640625,0.189453125
862,2.856,IMU1,60.487804878048784,-4.085365853658537,28.963414634146343,-0.970703125,0.0537109375,0.1982421875
863,2.856,IMU2,59.268292682926834,-3.4756097560975614,28.53658536585366,-0.984375,0.056640625,0.1875
864,2.866,IMU0,59.93902439024391,-2.682926829268293,29.02439024390244,-0.9013671875,0.0693359375,0.154296875
865,2.866,IMU1,62.07317073170732,-3.2926829268292686,29.573170731707318,-0.8974609375,0.0693359375,0.1669921875
866,2.866,IMU2,60.79268292682927,-2.439024390243903,29.207317073170735,-0.9091796875,0.0654296875,0.1650390625
867,2.876,IMU0,62.07317073170732,0.0,27.743902439024392,-0.9208984375,0.0966796875,0.1435546875
868,2.876,IMU1,64.20731707317074,-0.426829268292683,28.353658536585368,-0.921875,0.0927734375,0.1484375
869,2.876,IMU2,63.10975609756098,0.12195121951219513,27.926829268292686,-0.9306640625,0.095703125,0.138671875
870,2.886,IMU0,63.78048780487806,2.073170731707317,27.134146341463417,-0.87890625,0.0517578125,0.17578125
871,2.886,IMU1,65.97560975609757,1.5853658536585367,27.743902439024392,-0.880859375,0.0498046875,0.1806640625
872,2.886,IMU2,64.87804878048782,2.439024390243903,27.31707317073171,-0.9033203125,0.0478515625,0.1728515625
873,2.896,IMU0,64.51219512195122,-1.8902439024390245,23.353658536585368,-0.8125,0.111328125,0.1279296875
874,2.896,IMU1,66.52439024390245,-2.25609756097561,23.963414634146343,-0.818359375,0.1103515625,0.138671875
875,2.896,IMU2,65.3658536585366,-1.402439024390244,23.53658536585366,-0.8271484375,0.1083984375,0.1279296875
876,2.906,IMU0,64.26829268292684,4.695121951219512,21.158536585365855,-0.859375,0.0986328125,0.154296875
877,2.906,IMU1,66.28048780487805,4.329268292682928,21.76829268292683,-0.857421875,0.0947265625,0.162109375
878,2.906,IMU2,65.2439024390244,4.75609756097561,21.463414634146343,-0.8720703125,0.103515625,0.1455078125
879,2.916,IMU0,68.17073170731707,5.0,22.926829268292686,-0.7998046875,0.1298828125,0.162109375
880,2.916,IMU1,70.1829268292683,4.573170731707317,23.475609756097562,-0.794921875,0.1279296875,0.169921875
881,2.916,IMU2,68.96341463414635,5.426829268292684,23.29268292682927,-0.8125,0.125,0.1640625
882,2.926,IMU0,72.6829268292683,5.487804878048781,24.75609756097561,-0.7587890625,0.181640625,0.0986328125
883,2.926,IMU1,74.63414634146342,5.182926829268293,25.365853658536587,-0.751953125,0.1806640625,0.109375
884,2.926,IMU2,73.59756097560977,5.853658536585367,25.243902439024392,-0.75,0.1796875,0.095703125
885,2.936,IMU0,76.76829268292684,9.390243902439025,30.792682926829272,-0.736328125,0.212890625,0.1416015625
886,2.936,IMU1,78.71951219512196,9.207317073170733,31.402439024390247,-0.7314453125,0.2119140625,0.1396484375
887,2.936,IMU2,77.8658536585366,9.329268292682928,31.402439024390247,-0.724609375,0.216796875,0.111328125
888,2.946,IMU0,82.43902439024392,10.853658536585368,41.524390243902445,-0.689453125,0.181640625,0.1318359375
889,2.946,IMU1,84.45121951219512,10.670731707317074,42.13414634146342,-0.6806640625,0.1845703125,0.1318359375
890,2.946,IMU2,83.53658536585367,11.036585365853659,42.25609756097561,-0.689453125,0.1826171875,0.119140625
891,2.956,IMU0,88.10975609756099,9.573170731707318,49.085365853658544,-0.6416015625,0.208984375,0.0908203125
892,2.956,IMU1,90.1829268292683,9.634146341463415,49.69512195121952,-0.6328125,0.212890625,0.09765625
893,2.956,IMU2,89.14634146341464,10.182926829268293,49.87804878048781,-0.6328125,0.2021484375,0.09765625
894,2.966,IMU0,90.67073170731707,9.207317073170733,54.451219512195124,-0.6923828125,0.15234375,0.08203125
895,2.966,IMU1,92.92682926829269,9.26829268292683,55.1829268292683,-0.693359375,0.1533203125,0.0888671875
896,2.966,IMU2,92.01219512195122,9.207317073170733,54.81707317073171,-0.701171875,0.16015625,0.083984375
897,2.976,IMU0,90.00000000000001,9.329268292682928,55.73170731707317,-0.6943359375,0.1630859375,0.1396484375
898,2.976,IMU1,92.31707317073172,9.329268292682928,56.40243902439025,-0.689453125,0.1650390625,0.1484375
899,2.976,IMU2,91.15853658536587,9.573170731707318,56.28048780487806,-0.7109375,0.1630859375,0.14453125
900,2.986,IMU0,90.00000000000001,9.329268292682928,55.73170731707317,-0.6943359375,0.1630859375,0.1396484375
901,2.986,IMU1,94.08536585365854,4.2682926829268295,62.01219512195122,-0.689453125,0.2470703125,0.08984375
902,2.986,IMU2,92.8658536585366,4.573170731707317,62.01219512195122,-0.6787109375,0.244140625,0.09765625
903,2.996,IMU0,92.6829268292683,1.3414634146341464,67.8048780487805,-0.6787109375,0.2119140625,0.1181640625
904,2.996,IMU1,95.0609756097561,1.3414634146341464,68.47560975609757,-0.673828125,0.21484375,0.1240234375
905,2.996,IMU2,94.02439024390245,0.9756097560975611,68.41463414634147,-0.6806640625,0.2236328125,0.103515625
906,3.006,IMU0,93.71951219512196,-4.51219512195122,73.78048780487805,-0.60546875,0.248046875,0.107421875
907,3.006,IMU1,96.21951219512196,-4.573170731707317,74.32926829268294,-0.6005859375,0.251953125,0.115234375
908,3.006,IMU2,95.00000000000001,-3.963414634146342,74.45121951219512,-0.607421875,0.2353515625,0.107421875
909,3.016,IMU0,95.67073170731709,-7.317073170731708,81.28048780487805,-0.59375,0.302734375,0.064453125
910,3.016,IMU1,98.17073170731709,-7.25609756097561,81.82926829268294,-0.5869140625,0.3056640625,0.0732421875
911,3.016,IMU2,97.01219512195122,-7.8048780487804885,82.01219512195122,-0.6025390625,0.2939453125,0.064453125
912,3.026,IMU0,98.29268292682927,-8.597560975609756,93.71951219512196,-0.572265625,0.298828125,0.0556640625
913,3.026,IMU1,101.03658536585367,-8.536585365853659,94.14634146341464,-0.564453125,0.3037109375,0.0615234375
914,3.026,IMU2,99.87804878048782,-8.414634146341465,94.51219512195122,-0.5810546875,0.3037109375,0.056640625
915,3.036,IMU0,102.43902439024392,-9.878048780487806,103.84146341463415,-0.5595703125,0.3525390625,0.017578125
916,3.036,IMU1,105.3048780487805,-9.695121951219512,104.32926829268294,-0.546875,0.357421875,0.021484375
917,3.036,IMU2,104.14634146341464,-9.207317073170733,104.87804878048782,-0.5458984375,0.35546875,0.0078125
918,3.046,IMU0,106.03658536585367,-7.865853658536586,115.1829268292683,-0.609375,0.294921875,0.0439453125
919,3.046,IMU1,109.08536585365854,-7.682926829268293,115.67073170731709,-0.6025390625,0.298828125,0.052734375
920,3.046,IMU2,107.8048780487805,-7.865853658536586,115.91463414634147,-0.6103515625,0.3095703125,0.0498046875
921,3.056,IMU0,106.09756097560977,-11.585365853658537,120.3048780487805,-0.52734375,0.4091796875,0.0458984375
922,3.056,IMU1,108.96341463414635,-11.402439024390246,120.67073170731709,-0.5234375,0.416015625,0.0556640625
923,3.056,IMU2,107.25609756097562,-11.036585365853659,120.97560975609757,-0.5283203125,0.4140625,0.0478515625
924,3.066,IMU0,107.8658536585366,-7.195121951219513,128.65853658536585,-0.5908203125,0.357421875,0.046875
925,3.066,IMU1,110.97560975609757,-7.01219512195122,129.08536585365854,-0.587890625,0.3623046875,0.0517578125
926,3.066,IMU2,109.87804878048782,-7.682926829268293,129.32926829268294,-0.58203125,0.357421875,0.029296875
927,3.076,IMU0,109.26829268292684,-5.609756097560976,132.4390243902439,-0.5693359375,0.2998046875,0.03515625
928,3.076,IMU1,112.37804878048782,-5.426829268292684,132.8658536585366,-0.5732421875,0.3056640625,0.0439453125
929,3.076,IMU2,110.91463414634147,-5.853658536585367,132.8048780487805,-0.5810546875,0.302734375,0.0341796875
930,3.086,IMU0,106.64634146341464,-6.2804878048780495,129.08536585365854,-0.546875,0.3583984375,0.046875
931,3.086,IMU1,109.75609756097562,-6.097560975609756,129.51219512195124,-0.552734375,0.36328125,0.0625
932,3.086,IMU2,107.7439024390244,-6.707317073170732,129.20731707317074,-0.5673828125,0.3603515625,0.064453125
933,3.096,IMU0,104.14634146341464,-3.8414634146341466,127.07317073170732,-0.51953125,0.3466796875,0.0244140625
934,3.096,IMU1,107.19512195121952,-3.658536585365854,127.56097560975611,-0.5224609375,0.353515625,0.0302734375
935,3.096,IMU2,105.73170731707317,-4.146341463414634,127.37804878048782,-0.53125,0.359375,0.0205078125
936,3.106,IMU0,104.63414634146342,0.30487804878048785,126.52439024390245,-0.5146484375,0.328125,0.0185546875
937,3.106,IMU1,107.6219512195122,0.5487804878048781,126.95121951219514,-0.51953125,0.333984375,0.0244140625
938,3.106,IMU2,106.58536585365854,0.3658536585365854,126.64634146341464,-0.529296875,0.3369140625,0.0146484375
939,3.116,IMU0,105.00000000000001,3.8414634146341466,125.06097560975611,-0.501953125,0.3212890625,0.0185546875
940,3.116,IMU1,107.92682926829269,4.085365853658537,125.54878048780489,-0.5068359375,0.326171875,0.0263671875
941,3.116,IMU2,106.52439024390245,3.8414634146341466,125.42682926829269,-0.5166015625,0.3212890625,0.017578125
942,3.126,IMU0,105.3048780487805,5.914634146341464,124.57317073170732,-0.4765625,0.353515625,0.0185546875
943,3.126,IMU1,108.17073170731709,6.097560975609756,125.06097560975611,-0.4814453125,0.3583984375,0.0283203125
944,3.126,IMU2,106.82926829268294,6.097560975609756,124.93902439024392,-0.4921875,0.35546875,0.0263671875
945,3.136,IMU0,105.60975609756099,6.158536585365854,124.69512195121952,-0.4287109375,0.3701171875,0.017578125
946,3.136,IMU1,108.41463414634147,6.341463414634147,125.12195121951221,-0.4326171875,0.376953125,0.02734375
947,3.136,IMU2,107.07317073170732,6.097560975609756,124.93902439024392,-0.4365234375,0.375,0.0234375
948,3.146,IMU0,106.21951219512196,5.548780487804878,127.01219512195124,-0.404296875,0.3544921875,-0.0068359375
949,3.146,IMU1,109.02439024390245,5.7926829268292686,127.43902439024392,-0.40625,0.361328125,0.0009765625
950,3.146,IMU2,107.7439024390244,5.609756097560976,127.25609756097562,-0.408203125,0.3642578125,-0.0009765625
951,3.156,IMU0,107.6219512195122,7.317073170731708,129.39024390243904,-0.3818359375,0.3291015625,0.0146484375
952,3.156,IMU1,110.48780487804879,7.560975609756098,129.9390243902439,-0.384765625,0.3369140625,0.0224609375
953,3.156,IMU2,109.20731707317074,7.317073170731708,129.69512195121953,-0.3857421875,0.3349609375,0.0166015625
954,3.166,IMU0,108.78048780487806,7.378048780487806,130.91463414634148,-0.3466796875,0.3154296875,-0.0048828125
955,3.166,IMU1,111.64634146341464,7.682926829268293,131.34146341463415,-0.349609375,0.3251953125,0.005859375
956,3.166,IMU2,110.3658536585366,7.621951219512196,131.21951219512195,-0.3544921875,0.32421875,0.00390625
957,3.176,IMU0,109.75609756097562,8.841463414634147,131.58536585365854,-0.314453125,0.3076171875,-0.0166015625
958,3.176,IMU1,112.6219512195122,9.146341463414634,132.07317073170734,-0.3173828125,0.318359375,-0.009765625
959,3.176,IMU2,111.28048780487806,8.902439024390244,131.89024390243904,-0.322265625,0.3154296875,-0.015625
960,3.186,IMU0,110.3658536585366,9.51219512195122,131.03658536585368,-0.2802734375,0.3193359375,-0.01953125
961,3.186,IMU1,113.35365853658537,9.878048780487806,131.52439024390245,-0.287109375,0.328125,-0.0146484375
962,3.186,IMU2,112.01219512195122,9.634146341463415,131.40243902439025,-0.296875,0.3271484375,-0.0234375
963,3.196,IMU0,111.76829268292684,11.890243902439025,129.9390243902439,-0.25,0.3310546875,-0.0244140625
964,3.196,IMU1,114.45121951219514,12.256097560975611,130.4268292682927,-0.2587890625,0.33984375,-0.0244140625
965,3.196,IMU2,113.23170731707319,11.951219512195124,130.3658536585366,-0.2685546875,0.337890625,-0.0361328125
966,3.206,IMU0,112.43902439024392,11.829268292682928,129.32926829268294,-0.228515625,0.3251953125,-0.056640625
967,3.206,IMU1,115.06097560975611,12.195121951219512,129.8780487804878,-0.240234375,0.3330078125,-0.0517578125
968,3.206,IMU2,113.78048780487806,11.951219512195124,129.75609756097563,-0.251953125,0.3310546875,-0.0595703125
969,3.216,IMU0,112.92682926829269,14.146341463414636,126.34146341463416,-0.2353515625,0.2822265625,-0.0576171875
970,3.216,IMU1,115.67073170731709,14.51219512195122,126.89024390243904,-0.24609375,0.2919921875,-0.048828125
971,3.216,IMU2,114.45121951219514,14.26829268292683,126.76829268292684,-0.2568359375,0.2890625,-0.048828125
972,3.226,IMU0,112.92682926829269,12.560975609756099,122.8658536585366,-0.22265625,0.29296875,-0.0400390625
973,3.226,IMU1,115.60975609756099,12.926829268292684,123.47560975609757,-0.228515625,0.302734375,-0.033203125
974,3.226,IMU2,114.39024390243904,12.74390243902439,123.35365853658537,-0.23828125,0.2998046875,-0.0341796875
975,3.236,IMU0,112.43902439024392,12.865853658536587,120.67073170731709,-0.2001953125,0.3134765625,-0.06640625
976,3.236,IMU1,115.12195121951221,13.29268292682927,121.21951219512196,-0.20703125,0.322265625,-0.05859375
977,3.236,IMU2,113.90243902439025,13.04878048780488,121.09756097560977,-0.2138671875,0.3203125,-0.0625
978,3.246,IMU0,112.13414634146342,11.341463414634147,119.02439024390245,-0.173828125,0.3203125,-0.05078125
979,3.246,IMU1,114.81707317073172,11.707317073170733,119.63414634146342,-0.18359375,0.3291015625,-0.0439453125
980,3.246,IMU2,113.65853658536587,11.463414634146343,119.45121951219514,-0.1943359375,0.328125,-0.048828125
981,3.256,IMU0,111.76829268292684,9.146341463414634,118.71951219512196,-0.1669921875,0.306640625,-0.052734375
982,3.256,IMU1,114.45121951219514,9.51219512195122,119.26829268292684,-0.17578125,0.31640625,-0.0419921875
983,3.256,IMU2,113.23170731707319,9.329268292682928,119.14634146341464,-0.1826171875,0.3125,-0.046875
984,3.266,IMU0,112.37804878048782,8.231707317073171,119.02439024390245,-0.15234375,0.3037109375,-0.052734375
985,3.266,IMU1,115.12195121951221,8.658536585365855,119.57317073170732,-0.158203125,0.3125,-0.041015625
986,3.266,IMU2,113.84146341463416,8.414634146341465,119.45121951219514,-0.162109375,0.310546875,-0.0498046875
987,3.276,IMU0,113.17073170731709,7.560975609756098,119.20731707317074,-0.1337890625,0.31640625,-0.078125
988,3.276,IMU1,116.03658536585367,7.926829268292684,119.75609756097562,-0.13671875,0.328125,-0.068359375
989,3.276,IMU2,114.75609756097562,7.682926829268293,119.63414634146342,-0.1396484375,0.32421875,-0.072265625
990,3.286,IMU0,112.7439024390244,5.609756097560976,120.00000000000001,-0.10546875,0.3125,-0.0595703125
991,3.286,IMU1,115.48780487804879,5.914634146341464,120.54878048780489,-0.1123046875,0.32421875,-0.052734375
992,3.286,IMU2,114.26829268292684,5.670731707317073,120.3658536585366,-0.1162109375,0.3203125,-0.064453125
993,3.296,IMU0,112.31707317073172,3.414634146341464,120.67073170731709,-0.08984375,0.3037109375,-0.0927734375
994,3.296,IMU1,115.12195121951221,3.7195121951219514,121.21951219512196,-0.099609375,0.3154296875,-0.0859375
995,3.296,IMU2,113.78048780487806,3.658536585365854,121.03658536585367,-0.1044921875,0.3125,-0.0927734375
996,3.306,IMU0,112.43902439024392,1.402439024390244,122.01219512195124,-0.0966796875,0.2939453125,-0.076171875
997,3.306,IMU1,115.12195121951221,1.2195121951219514,122.50000000000001,-0.1044921875,0.3046875,-0.06640625
998,3.306,IMU2,113.96341463414635,1.402439024390244,122.37804878048782,-0.1064453125,0.2998046875,-0.0732421875
999,3.316,IMU0,113.47560975609757,-1.2195121951219514,122.62195121951221,-0.0888671875,0.28515625,-0.0927734375
1000,3.316,IMU1,116.21951219512196,-1.2195121951219514,123.47560975609757,-0.091796875,0.298828125,-0.0830078125
1001,3.316,IMU2,114.93902439024392,-1.0975609756097562,123.04878048780489,-0.0947265625,0.29296875,-0.0859375
1002,3.326,IMU0,114.20731707317074,-0.426829268292683,124.45121951219514,-0.0732421875,0.2734375,-0.1044921875
1003,3.326,IMU1,117.13414634146342,-0.1829268292682927,125.3048780487805,-0.0791015625,0.2802734375,-0.087890625
1004,3.326,IMU2,115.73170731707319,-0.24390243902439027,124.93902439024392,-0.076171875,0.279296875,-0.0986328125
1005,3.336,IMU0,114.20731707317074,-3.048780487804878,126.28048780487806,-0.0654296875,0.2431640625,-0.1279296875
1006,3.336,IMU1,117.19512195121952,-2.1341463414634148,126.82926829268294,-0.0693359375,0.255859375,-0.1181640625
1007,3.336,IMU2,115.79268292682927,-2.682926829268293,126.64634146341464,-0.072265625,0.2490234375,-0.125
1008,3.346,IMU0,113.04878048780489,-2.25609756097561,127.43902439024392,-0.0712890625,0.2080078125,-0.1025390625
1009,3.346,IMU1,115.79268292682927,-2.987804878048781,127.8658536585366,-0.0595703125,0.212890625,-0.107421875
1010,3.346,IMU2,114.45121951219514,-2.439024390243903,127.7439024390244,-0.0791015625,0.2138671875,-0.09765625
1011,3.356,IMU0,111.76829268292684,-3.231707317073171,126.70731707317074,-0.0517578125,0.1728515625,-0.1142578125
1012,3.356,IMU1,114.45121951219514,-2.5609756097560976,126.95121951219514,-0.064453125,0.189453125,-0.1005859375
1013,3.356,IMU2,113.10975609756099,-2.8658536585365857,126.95121951219514,-0.0712890625,0.181640625,-0.1044921875
1014,3.366,IMU0,109.45121951219514,-4.695121951219512,123.04878048780489,-0.048828125,0.15234375,-0.140625
1015,3.366,IMU1,111.89024390243904,-4.939024390243903,122.98780487804879,-0.0458984375,0.16796875,-0.1357421875
1016,3.366,IMU2,110.79268292682927,-4.695121951219512,123.17073170731709,-0.06640625,0.162109375,-0.1298828125
1017,3.376,IMU0,106.70731707317074,-4.878048780487806,117.13414634146342,-0.03515625,0.1474609375,-0.1484375
1018,3.376,IMU1,109.20731707317074,-4.2682926829268295,117.13414634146342,-0.052734375,0.1611328125,-0.119140625
1019,3.376,IMU2,108.10975609756099,-4.573170731707317,117.19512195121952,-0.05859375,0.1552734375,-0.1318359375
1020,3.386,IMU0,103.04878048780489,-3.4756097560975614,109.75609756097562,0.00390625,0.142578125,-0.1416015625
1021,3.386,IMU1,105.79268292682927,-3.353658536585366,110.2439024390244,-0.0078125,0.1435546875,-0.1279296875
1022,3.386,IMU2,104.57317073170732,-3.2926829268292686,110.54878048780489,-0.0234375,0.1435546875,-0.12890625
1023,3.396,IMU0,97.6829268292683,-3.780487804878049,100.2439024390244,0.013671875,0.1416015625,-0.162109375
1024,3.396,IMU1,100.42682926829269,-3.7195121951219514,100.67073170731709,-0.0009765625,0.150390625,-0.154296875
1025,3.396,IMU2,99.20731707317074,-3.780487804878049,101.09756097560977,-0.0224609375,0.142578125,-0.15234375
1026,3.406,IMU0,94.63414634146342,-3.4756097560975614,92.13414634146342,-0.0009765625,0.1318359375,-0.16796875
1027,3.406,IMU1,97.31707317073172,-3.4756097560975614,92.6829268292683,-0.015625,0.142578125,-0.15625
1028,3.406,IMU2,96.21951219512196,-3.1097560975609757,92.98780487804879,-0.04296875,0.1298828125,-0.146484375
1029,3.416,IMU0,92.7439024390244,-2.0121951219512195,83.17073170731707,0.0283203125,0.1005859375,-0.1640625
1030,3.416,IMU1,95.2439024390244,-1.9512195121951221,83.65853658536587,0.01171875,0.111328125,-0.1484375
1031,3.416,IMU2,94.20731707317074,-1.7682926829268295,84.02439024390245,-0.005859375,0.1015625,-0.1455078125
1032,3.426,IMU0,88.65853658536587,-3.658536585365854,71.46341463414635,0.046875,0.1357421875,-0.166015625
1033,3.426,IMU1,91.15853658536587,-3.780487804878049,72.01219512195122,0.0341796875,0.1455078125,-0.1552734375
1034,3.426,IMU2,89.87804878048782,-3.231707317073171,72.25609756097562,0.0166015625,0.13671875,-0.162109375
1035,3.436,IMU0,86.28048780487805,-1.2195121951219514,63.90243902439025,0.029296875,0.13671875,-0.1669921875
1036,3.436,IMU1,88.65853658536587,-1.402439024390244,64.45121951219512,0.017578125,0.146484375,-0.158203125
1037,3.436,IMU2,87.43902439024392,-1.2195121951219514,64.51219512195122,0.001953125,0.1357421875,-0.1630859375
1038,3.446,IMU0,84.81707317073172,-2.1341463414634148,58.65853658536586,0.0390625,0.1328125,-0.1201171875
1039,3.446,IMU1,87.19512195121952,-2.25609756097561,59.268292682926834,0.0263671875,0.14453125,-0.1083984375
1040,3.446,IMU2,85.97560975609757,-1.6463414634146343,59.39024390243903,0.0087890625,0.1396484375,-0.107421875
1041,3.456,IMU0,83.41463414634147,-4.2682926829268295,54.024390243902445,0.05078125,0.15625,-0.1630859375
1042,3.456,IMU1,85.79268292682927,-4.51219512195122,54.57317073170732,0.04296875,0.166015625,-0.1552734375
1043,3.456,IMU2,84.57317073170732,-4.207317073170732,54.451219512195124,0.0322265625,0.1611328125,-0.1591796875
1044,3.466,IMU0,83.41463414634147,-4.51219512195122,52.25609756097561,0.0458984375,0.1728515625,-0.1435546875
1045,3.466,IMU1,85.85365853658537,-4.634146341463415,52.804878048780495,0.041015625,0.1806640625,-0.134765625
1046,3.466,IMU2,84.57317073170732,-3.963414634146342,52.5609756097561,0.029296875,0.169921875,-0.1318359375
1047,3.476,IMU0,83.96341463414635,-6.158536585365854,50.79268292682927,0.044921875,0.1767578125,-0.1259765625
1048,3.476,IMU1,86.34146341463415,-6.2804878048780495,51.40243902439025,0.0400390625,0.185546875,-0.1201171875
1049,3.476,IMU2,85.00000000000001,-5.914634146341464,51.03658536585366,0.0361328125,0.177734375,-0.1298828125
1050,3.486,IMU0,84.63414634146342,-8.414634146341465,50.426829268292686,0.068359375,0.1904296875,-0.138671875
1051,3.486,IMU1,87.07317073170732,-8.536585365853659,50.97560975609756,0.060546875,0.2001953125,-0.134765625
1052,3.486,IMU2,85.60975609756099,-7.987804878048781,50.670731707317074,0.0537109375,0.1904296875,-0.140625
1053,3.496,IMU0,85.79268292682927,-10.24390243902439,50.85365853658537,0.06640625,0.18359375,-0.142578125
1054,3.496,IMU1,88.23170731707317,-10.30487804878049,51.463414634146346,0.05859375,0.1923828125,-0.1376953125
1055,3.496,IMU2,86.82926829268294,-10.0,51.15853658536586,0.0498046875,0.181640625,-0.142578125
1056,3.506,IMU0,87.50000000000001,-13.109756097560977,51.646341463414636,0.072265625,0.1494140625,-0.15234375
1057,3.506,IMU1,89.93902439024392,-13.170731707317074,52.19512195121952,0.06640625,0.1591796875,-0.1455078125
1058,3.506,IMU2,88.59756097560977,-12.80487804878049,51.89024390243903,0.0576171875,0.1494140625,-0.142578125
1059,3.516,IMU0,89.08536585365854,-14.573170731707318,52.25609756097561,0.0830078125,0.16015625,-0.14453125
1060,3.516,IMU1,91.64634146341464,-14.634146341463415,52.86585365853659,0.0791015625,0.169921875,-0.1376953125
1061,3.516,IMU2,90.2439024390244,-14.26829268292683,52.50000000000001,0.072265625,0.16015625,-0.1396484375
1062,3.526,IMU0,90.2439024390244,-16.890243902439025,52.01219512195122,0.1044921875,0.146484375,-0.13671875
1063,3.526,IMU1,92.8048780487805,-16.951219512195124,52.6219512195122,0.1025390625,0.1572265625,-0.1318359375
1064,3.526,IMU2,91.34146341463415,-16.463414634146343,52.31707317073171,0.0947265625,0.1484375,-0.1328125
1065,3.536,IMU0,89.87804878048782,-17.926829268292686,52.25609756097561,0.1123046875,0.130859375,-0.1484375
1066,3.536,IMU1,92.31707317073172,-17.98780487804878,52.86585365853659,0.107421875,0.140625,-0.142578125
1067,3.536,IMU2,90.91463414634147,-17.743902439024392,52.5609756097561,0.099609375,0.130859375,-0.1435546875
1068,3.546,IMU0,90.54878048780489,-20.182926829268293,52.31707317073171,0.1240234375,0.1298828125,-0.146484375
1069,3.546,IMU1,93.10975609756099,-20.30487804878049,53.04878048780488,0.1181640625,0.1416015625,-0.1376953125
1070,3.546,IMU2,91.70731707317074,-20.0609756097561,52.6829268292683,0.1103515625,0.130859375,-0.140625
1071,3.556,IMU0,89.93902439024392,-20.731707317073173,52.19512195121952,0.123046875,0.1279296875,-0.134765625
1072,3.556,IMU1,92.50000000000001,-20.79268292682927,52.86585365853659,0.1162109375,0.1396484375,-0.126953125
1073,3.556,IMU2,91.03658536585367,-20.426829268292686,52.5609756097561,0.10546875,0.12890625,-0.130859375
1074,3.566,IMU0,90.0609756097561,-21.707317073170735,52.13414634146342,0.123046875,0.107421875,-0.140625
1075,3.566,IMU1,92.5609756097561,-21.76829268292683,52.743902439024396,0.1181640625,0.1181640625,-0.1298828125
1076,3.566,IMU2,90.97560975609757,-21.52439024390244,52.50000000000001,0.1064453125,0.1083984375,-0.1337890625
1077,3.576,IMU0,89.08536585365854,-23.78048780487805,52.13414634146342,0.13671875,0.0966796875,-0.1435546875
1078,3.576,IMU1,91.76829268292684,-23.84146341463415,52.743902439024396,0.1298828125,0.1083984375,-0.1337890625
1079,3.576,IMU2,90.1219512195122,-23.414634146341466,52.50000000000001,0.119140625,0.0986328125,-0.134765625
1080,3.586,IMU0,88.65853658536587,-24.573170731707318,50.91463414634147,0.146484375,0.078125,-0.1474609375
1081,3.586,IMU1,91.34146341463415,-24.634146341463417,51.585365853658544,0.1396484375,0.0908203125,-0.1376953125
1082,3.586,IMU2,89.75609756097562,-24.390243902439025,51.28048780487806,0.1298828125,0.080078125,-0.140625
1083,3.596,IMU0,86.76829268292684,-28.04878048780488,47.5609756097561,0.1435546875,0.0634765625,-0.1533203125
1084,3.596,IMU1,89.39024390243904,-28.231707317073173,48.10975609756098,0.13671875,0.076171875,-0.13671875
1085,3.596,IMU2,87.8048780487805,-27.80487804878049,47.804878048780495,0.1259765625,0.064453125,-0.1396484375
1086,3.606,IMU0,85.60975609756099,-30.60975609756098,45.426829268292686,0.123046875,0.080078125,-0.150390625
1087,3.606,IMU1,88.29268292682927,-30.853658536585368,45.97560975609756,0.119140625,0.0908203125,-0.134765625
1088,3.606,IMU2,86.70731707317074,-30.426829268292686,45.670731707317074,0.111328125,0.080078125,-0.1376953125
1089,3.616,IMU0,84.93902439024392,-30.0609756097561,44.08536585365854,0.109375,0.078125,-0.1259765625
1090,3.616,IMU1,87.6829268292683,-30.30487804878049,44.63414634146342,0.107421875,0.0888671875,-0.1142578125
1091,3.616,IMU2,86.09756097560977,-29.81707317073171,44.32926829268293,0.1005859375,0.0791015625,-0.119140625
1092,3.626,IMU0,83.59756097560977,-30.914634146341466,42.804878048780495,0.10546875,0.0712890625,-0.1328125
1093,3.626,IMU1,86.28048780487805,-31.219512195121954,43.29268292682927,0.1015625,0.08203125,-0.12109375
1094,3.626,IMU2,84.69512195121952,-30.792682926829272,42.987804878048784,0.0947265625,0.0712890625,-0.1259765625
1095,3.636,IMU0,82.37804878048782,-30.975609756097565,43.41463414634147,0.0966796875,0.0810546875,-0.1337890625
1096,3.636,IMU1,85.1219512195122,-31.280487804878053,44.024390243902445,0.09375,0.0908203125,-0.1259765625
1097,3.636,IMU2,83.47560975609757,-30.853658536585368,43.71951219512196,0.087890625,0.080078125,-0.130859375
1098,3.646,IMU0,80.60975609756099,-31.158536585365855,45.304878048780495,0.1181640625,0.064453125,-0.15625
1099,3.646,IMU1,83.41463414634147,-31.402439024390247,45.85365853658537,0.11328125,0.07421875,-0.146484375
1100,3.646,IMU2,81.76829268292684,-30.853658536585368,45.487804878048784,0.107421875,0.0634765625,-0.1455078125
1101,3.656,IMU0,78.65853658536587,-32.86585365853659,45.487804878048784,0.103515625,0.06640625,-0.15625
1102,3.656,IMU1,81.46341463414635,-33.109756097560975,46.03658536585366,0.099609375,0.0751953125,-0.1474609375
1103,3.656,IMU2,79.87804878048782,-32.6219512195122,45.670731707317074,0.09375,0.06640625,-0.150390625
1104,3.666,IMU0,77.92682926829269,-30.487804878048784,46.21951219512196,0.0859375,0.0703125,-0.111328125
1105,3.666,IMU1,80.67073170731707,-30.731707317073173,46.82926829268293,0.08203125,0.080078125,-0.1025390625
1106,3.666,IMU2,79.08536585365854,-30.365853658536587,46.40243902439025,0.0771484375,0.0712890625,-0.1103515625
1107,3.676,IMU0,76.95121951219512,-30.0609756097561,46.951219512195124,0.0849609375,0.0615234375,-0.123046875
1108,3.676,IMU1,79.75609756097562,-30.365853658536587,47.50000000000001,0.0791015625,0.0703125,-0.1171875
