,ts,acc_x,acc_y,acc_z
0,251094,1,-1,0
1,251104,1,0,0
2,251114,1,0,0
3,251124,1,-1,0
4,251134,1,0,0
5,251144,1,0,0
6,251154,1,0,0
7,251164,1,0,0
8,251174,1,-1,0
9,251184,1,-1,0
10,251194,1,-1,0
11,251204,1,0,0
12,251214,1,0,0
13,251224,1,0,0
14,251234,1,0,0
15,251244,1,0,0
16,251254,1,0,0
17,251264,1,-1,0
18,251274,1,0,0
19,251284,1,-1,0
20,251294,1,0,0
21,251304,1,0,0
22,251314,1,0,0
23,251324,1,0,0
24,251334,1,0,0
25,251344,1,0,0
26,251354,1,0,0
27,251364,5,0,0
28,251374,10,0,0
29,251384,9,0,0
30,251394,8,0,0
31,251404,8,-1,0
32,251414,8,0,0
33,251424,8,0,0
34,251434,8,0,0
35,251444,8,-1,0
36,251454,8,-1,0
37,251464,9,0,0
38,251474,8,0,0
39,251484,8,0,0
40,251494,8,-1,0
41,251504,8,-1,0
42,251514,8,0,0
43,251524,8,0,0
44,251534,8,0,0
45,251544,8,-1,0
46,251554,8,-1,0
47,251564,8,0,0
48,251574,8,0,0
49,251584,8,0,0
50,251594,8,0,0
51,251604,8,0,0
52,251614,8,0,0
53,251624,8,0,0
54,251634,9,-1,0
55,251644,8,-1,0
56,251654,8,1,0
57,251664,8,-1,0
58,251674,8,0,0
59,251684,8,0,0
60,251694,8,-2,0
61,251704,8,1,0
62,251714,8,0,0
63,251724,8,-1,0
64,251734,8,-1,0
65,251744,9,-1,0
66,251754,8,1,0
67,251764,9,0,0
68,251774,8,-1,0
69,251784,8,-1,0
70,251794,8,-1,0
71,251804,8,0,0
72,251814,8,0,0
73,251824,9,-1,0
74,251834,8,-1,0
75,251844,8,-1,0
76,251854,8,0,0
77,251864,8,0,0
78,251874,8,0,0
79,251884,8,-1,0
80,251894,8,-1,0
81,251904,8,0,0
82,251914,8,0,0
83,251924,8,0,0
84,251934,8,-1,0
85,251944,8,-1,0
86,251954,8,-1,0
87,251964,8,0,0
88,251974,8,0,0
89,251984,8,-1,0
90,251994,8,-1,0
91,252004,8,-1,0
92,252014,8,0,0
93,252024,8,0,0
94,252034,8,-1,0
95,252044,8,0,0
96,252054,8,-1,0
97,252064,8,0,0
98,252074,8,0,0
99,252084,8,-1,0
100,252094,8,0,0
101,252104,8,-1,0
102,252114,8,-1,0
103,252124,8,0,0
104,252134,8,0,0
105,252144,8,0,0
106,252154,8,-1,0
107,252164,8,0,0
108,252174,8,0,0
109,252184,8,0,0
110,252194,8,0,0
111,252204,8,0,0
112,252214,8,0,0
113,252224,8,0,0
114,252234,8,0,0
115,252244,8,0,0
116,252254,8,0,0
117,252264,8,0,0
118,252274,8,0,0
119,252284,8,0,0
120,252294,8,0,0
121,252304,8,0,0
122,252314,8,0,0
123,252324,8,0,0
124,252334,8,0,0
125,252344,8,0,0
126,252354,8,0,0
127,252364,8,0,0
128,252374,8,0,0
129,252384,8,0,0
130,252394,8,0,0
131,252404,8,0,0
132,252414,8,0,0
133,252424,8,0,0
134,252434,8,0,0
135,252444,8,0,0
136,252454,7,0,0
137,252464,7,0,0
138,252474,7,0,0
139,252484,8,0,0
140,252494,8,0,0
141,252504,8,0,0
142,252514,8,0,0
143,252524,8,0,0
144,252534,8,0,0
145,252544,7,0,0
146,252554,8,-1,0
147,252564,8,-1,0
148,252574,7,0,0
149,252584,7,0,0
150,252594,7,-1,0
151,252604,7,-1,0
152,252614,7,-1,0
153,252624,7,0,0
154,252634,7,0,0
155,252644,7,0,0
156,252654,7,-1,0
157,252664,7,-1,0
158,252674,7,-1,0
159,252684,7,-1,0
160,252694,7,-1,0
161,252704,7,-1,0
162,252714,7,-1,0
163,252724,7,-1,0
164,252734,7,-1,0
165,252744,7,-1,0
166,252754,7,0,0
167,252764,7,-1,0
168,252774,7,0,0
169,252784,7,-1,0
170,252794,7,-1,0
171,252804,7,-1,0
172,252814,7,0,0
173,252824,7,-1,0
174,252834,7,0,0
175,252844,7,-1,0
176,252854,7,0,0
177,252864,7,-1,0
178,252874,7,-1,0
179,252884,7,0,0
180,252894,7,0,0
181,252904,6,0,0
182,252914,7,0,0
183,252924,7,0,0
184,252934,7,0,0
185,252944,6,0,0
186,252954,6,0,0
187,252964,4,0,0
188,252974,4,0,0
189,252984,4,0,0
190,252994,3,0,0
191,253004,4,0,0
192,253014,3,0,0
193,253024,1,0,0
194,253034,1,0,0
195,253044,0,0,0
196,253054,0,0,0
197,253064,-1,0,0
198,253074,0,0,0
199,253084,-1,0,0
200,253094,0,0,0
201,253104,0,0,0
202,253114,-1,0,0
203,253124,0,0,0
204,253134,0,-1,0
205,253144,-1,0,0
206,253154,-1,0,0
207,253164,-1,-1,0
208,253174,0,0,0
209,253184,0,0,0
210,253194,-1,-1,0
211,253204,0,-1,0
212,253214,-1,0,0
213,253224,-1,-1,0
214,253234,-1,0,0
215,253244,0,0,0
216,253254,-1,0,0
217,253264,-1,0,0
218,253274,-1,-1,0
219,253284,0,0,0
220,253294,0,0,0
221,253304,-1,0,0
222,253314,0,0,0
223,253324,-1,0,0
224,253334,-1,0,0
225,253344,-1,0,0
226,253354,-1,0,0
227,253364,0,0,0
228,253374,-1,0,0
229,253384,0,0,0
230,253394,0,0,0
231,253404,0,0,0
232,253414,-1,0,0
233,253424,0,0,0
234,253434,-1,0,0
235,253444,0,0,0
236,253454,-1,0,0
237,253464,0,-1,0
238,253474,0,-1,0
239,253484,-1,0,0
240,253494,-1,-1,0
241,253504,-1,0,0
242,253514,-1,-1,0
243,253524,-1,-1,0
244,253534,0,-1,0
245,253544,0,-1,0
246,253554,0,0,0
247,253564,0,-1,0
248,253574,-1,-1,0
249,253584,-1,-1,0
250,253594,0,-1,0
251,253604,0,0,0
252,253614,-1,-1,0
253,253624,-1,-1,0
254,253634,-1,-1,0
255,253644,0,-1,0
256,253654,-1,0,0
257,253664,0,0,0
258,253674,0,0,0
259,253684,-1,0,0
260,253694,0,0,0
261,253704,-1,0,0
262,253714,-1,0,0
263,253724,-1,0,0
264,253734,0,0,0
265,253744,-1,0,0
266,253754,0,-1,0
267,253764,-1,-1,0
268,253774,0,0,0
269,253784,-1,0,0
270,253794,-1,0,0
271,253804,-1,0,0
272,253814,0,-1,0
273,253824,-1,0,0
274,253834,-1,0,0
275,253844,-1,0,0
276,253854,-1,0,0
277,253864,-1,-1,0
278,253874,-1,0,0
279,253884,0,0,0
280,253894,0,0,0
281,253904,0,0,0
282,253914,-1,-1,0
283,253924,-1,0,0
284,253934,0,0,0
285,253944,-1,0,0
286,253954,-1,0,0
287,253964,0,0,0
288,253974,-1,0,0
289,253984,-1,0,0
290,253994,0,-1,0
291,254004,-1,0,0
292,254014,-1,-1,0
293,254024,0,0,0
294,254034,-1,-1,0
295,254044,0,0,0
296,254054,0,0,0
297,254064,0,-1,0
298,254074,-1,0,0
299,254084,0,0,0
300,254094,0,-1,0
301,254104,0,-1,0
302,254114,0,-1,0
303,254124,-1,0,0
304,254134,-1,0,0
305,254144,-1,0,0
306,254154,0,-1,0
307,254164,-1,0,0
308,254174,-1,0,0
309,254184,0,0,0
310,254194,-1,-1,0
311,254204,-1,-1,0
312,254214,0,-1,0
313,254224,0,0,0
314,254234,-1,0,0
315,254244,0,0,0
316,254254,0,0,0
317,254264,-1,0,0
318,254274,-1,0,0
319,254284,0,0,0
320,254294,-1,0,0
321,254304,0,-1,0
322,254314,0,0,0
323,254324,-1,0,0
324,254334,0,-1,0
325,254344,0,0,0
326,254354,0,0,0
327,254364,0,-1,0
328,254374,0,0,0
329,254384,-1,-1,0
330,254394,0,0,0
331,254404,0,0,0
332,254414,0,0,0
333,254424,0,0,0
334,254434,0,0,0
335,254444,0,0,0
336,254454,0,0,0
337,254464,-1,0,0
338,254474,0,0,0
339,254484,-1,0,0
340,254494,0,0,0
341,254504,0,0,0
342,254514,-1,0,0
343,254524,0,0,0
344,254534,0,0,0
345,254544,-1,0,0
346,254554,-1,0,0
347,254564,0,-1,0
348,254574,-1,0,0
349,254584,-1,0,0
350,254594,0,0,0
351,254604,0,0,0
352,254614,0,-1,0
353,254624,-1,-1,0
354,254634,0,0,0
355,254644,0,-1,0
356,254654,0,0,0
357,254664,0,-1,0
358,254674,0,-1,0
359,254684,-1,0,0
360,254694,-1,0,0
361,254704,0,0,0
362,254714,0,-1,0
363,254724,0,0,0
364,254734,0,0,0
365,254744,-1,0,0
366,254754,0,0,0
367,254764,0,0,0
368,254774,0,0,0
369,254784,0,0,0
370,254794,0,-1,0
371,254804,-1,0,0
372,254814,0,0,0
373,254824,0,0,0
374,254834,0,0,0
375,254844,0,-1,0
376,254854,0,-1,0
377,254864,0,0,0
378,254874,0,0,0
379,254884,-1,0,0
380,254894,0,-1,0
381,254904,-1,-1,0
382,254914,0,0,0
383,254924,0,0,0
384,254934,0,-1,0
385,254944,0,0,0
386,254954,0,0,0
387,254964,0,0,0
388,254974,0,0,0
389,254984,0,0,0
390,254994,0,0,0
391,255004,-1,-1,0
392,255014,0,0,0
393,255024,-1,0,0
394,255034,0,0,0
395,255044,0,-1,0
396,255054,0,-1,0
397,255064,0,0,0
398,255074,0,0,0
399,255084,0,0,0
400,255094,0,0,0
401,255104,0,0,0
402,255114,0,0,0
403,255124,0,0,0
404,255134,-1,0,0
405,255144,0,-1,0
406,255154,0,-1,0
407,255164,-1,0,0
408,255174,0,0,0
409,255184,0,0,0
410,255194,-1,-1,0
411,255204,0,0,0
412,255214,0,0,0
413,255224,0,0,0
414,255234,0,0,0
415,255244,0,0,0
416,255254,0,-1,0
417,255264,0,0,0
418,255274,0,0,0
419,255284,0,0,0
420,255294,0,0,0
421,255304,0,-1,0
422,255314,0,0,0
423,255324,-1,0,0
424,255334,0,0,0
425,255344,0,-1,0
426,255354,0,-1,0
427,255364,0,-1,0
428,255374,-1,0,0
429,255384,0,-1,0
430,255394,-1,0,0
431,255404,-1,0,0
432,255414,-1,0,0
433,255424,0,0,0
434,255434,0,0,0
435,255444,-1,0,0
436,255454,-1,0,0
437,255464,0,0,0
438,255474,0,0,0
439,255484,0,0,0
440,255494,0,0,0
441,255504,-1,-1,0
442,255514,-1,0,0
443,255524,0,0,0
444,255534,0,0,0
445,255544,-1,0,0
446,255554,0,0,0
447,255564,0,0,0
448,255574,0,0,0
449,255584,0,0,0
450,255594,0,0,0
451,255604,0,0,0
452,255614,0,0,0
453,255624,-1,0,0
454,255634,0,0,0
455,255644,0,0,0
456,255654,0,0,0
457,255664,0,0,0
458,255674,0,0,0
459,255684,0,0,0
460,255694,0,0,0
461,255704,0,0,0
462,255714,-1,0,0
463,255724,0,0,0
464,255734,-1,0,0
465,255744,0,0,0
466,255754,0,0,0
467,255764,0,0,0
468,255774,-1,0,0
469,255784,0,-1,0
470,255794,0,0,0
471,255804,0,0,0
472,255814,0,0,0
473,255824,0,0,0
474,255834,-1,-1,0
475,255844,-1,0,0
476,255854,0,0,0
477,255864,0,0,0
478,255874,0,0,0
479,255884,0,0,0
480,255894,-1,0,0
481,255904,0,0,0
482,255914,0,0,0
483,255924,0,0,0
484,255934,0,-1,0
485,255944,0,0,0
486,255954,0,0,0
487,255964,0,-1,0
488,255974,0,-1,0
489,255984,0,-1,0
490,255994,0,0,0
491,256004,0,0,0
492,256014,0,-1,0
493,256024,0,0,0
494,256034,0,-1,0
495,256044,0,0,0
496,256054,0,0,0
497,256064,0,0,0
498,256074,0,-1,0
499,256084,0,0,0
500,256094,0,0,0
501,256104,-1,0,0
502,256114,0,0,0
503,256124,0,0,0
504,256134,0,-1,0
505,256144,0,-1,0
506,256154,0,0,0
507,256164,0,0,0
508,256174,0,0,0
509,256184,0,-1,0
510,256194,-1,-1,0
511,256204,0,0,0
512,256214,0,-1,0
513,256224,0,0,0
514,256234,0,-1,0
515,256244,0,0,0
516,256254,0,0,0
517,256264,-1,-1,0
518,256274,0,0,0
519,256284,0,0,0
520,256294,0,-1,0
521,256304,0,0,0
522,256314,0,0,0
523,256324,-1,-1,0
524,256334,0,0,0
525,256344,0,-1,0
526,256354,0,0,0
527,256364,-1,0,0
528,256374,0,-1,0
529,256384,0,-1,0
530,256394,0,-1,0
531,256404,0,0,0
532,256414,0,0,0
533,256424,-1,0,0
534,256434,0,-1,0
535,256444,0,0,0
536,256454,0,-1,0
537,256464,0,0,0
538,256474,0,0,0
539,256484,0,-1,0
540,256494,0,0,0
541,256504,0,0,0
542,256514,0,0,0
543,256524,0,-1,0
544,256534,0,0,0
545,256544,0,0,0
546,256554,0,0,0
547,256564,0,-1,0
548,256574,0,-1,0
549,256584,0,0,0
550,256594,0,0,0
551,256604,0,0,0
552,256614,-1,0,0
553,256624,0,0,0
554,256634,0,0,0
555,256644,0,0,0
556,256654,0,0,0
557,256664,0,-1,0
558,256674,0,0,0
559,256684,0,0,0
560,256694,0,0,0
561,256704,0,0,0
562,256714,0,0,0
563,256724,-1,0,0
564,256734,-1,0,0
565,256744,0,0,0
566,256754,0,0,0
567,256764,0,0,0
568,256774,0,0,0
569,256784,0,0,0
570,256794,0,0,0
571,256804,0,0,0
572,256814,-1,-1,0
573,256824,0,0,0
574,256834,0,0,0
575,256844,0,0,0
576,256854,0,0,0
577,256864,0,-1,0
578,256874,0,0,0
579,256884,0,0,0
580,256894,0,0,0
581,256904,0,0,0
582,256914,0,-1,0
583,256924,0,0,0
584,256934,0,0,0
585,256944,0,0,0
586,256954,0,0,0
587,256964,0,-1,0
588,256974,0,0,0
589,256984,0,0,0
590,256994,0,0,0
591,257004,0,0,0
592,257014,0,0,0
593,257024,0,0,0
594,257034,0,0,0
595,257044,0,0,0
596,257054,0,0,0
597,257064,-1,0,0
598,257074,0,0,0
599,257084,0,0,0
600,257094,-1,-1,0
601,257104,0,0,0
602,257114,0,0,0
603,257124,0,0,0
604,257134,0,0,0
605,257144,0,0,0
606,257154,0,0,0
607,257164,0,0,0
608,257174,0,0,0
609,257184,0,0,0
610,257194,-1,0,0
611,257204,0,0,0
612,257214,0,0,0
613,257224,0,0,0
614,257234,0,0,0
615,257244,0,0,0
616,257254,0,-1,0
617,257264,0,-1,0
618,257274,0,-1,0
619,257284,-1,0,0
620,257294,0,0,0
621,257304,0,0,0
622,257314,0,0,0
623,257324,0,0,0
624,257334,0,0,0
625,257344,0,0,0
626,257354,0,0,0
627,257364,-1,0,0
628,257374,-1,-1,0
629,257384,0,0,0
630,257394,0,-1,0
631,257404,0,0,0
632,257414,-1,-1,0
633,257424,0,-1,0
634,257434,0,-1,0
635,257444,-1,0,0
636,257454,0,0,0
637,257464,0,0,0
638,257474,-1,0,0
639,257484,0,0,0
640,257494,0,0,0
641,257504,0,-1,0
642,257514,0,-1,0
643,257524,-1,-1,0
644,257534,0,0,0
645,257544,0,0,0
646,257554,0,-1,0
647,257564,0,-1,0
648,257574,0,0,0
649,257584,0,0,0
650,257594,0,0,0
651,257604,0,0,0
652,257614,0,0,0
653,257624,0,0,0
654,257634,0,0,0
655,257644,0,0,0
656,257654,0,0,0
657,257664,0,0,0
658,257674,0,0,0
659,257684,0,-1,0
660,257694,0,0,0
661,257704,0,-1,0
662,257714,0,0,0
663,257724,0,-1,0
664,257734,0,0,0
665,257744,0,0,0
666,257754,0,0,0
667,257764,0,0,0
668,257774,0,0,0
669,257784,0,0,0
670,257794,-1,0,0
671,257804,0,0,0
672,257814,0,-1,0
673,257824,0,0,0
674,257834,0,0,0
675,257844,0,0,0
676,257854,0,0,0
677,257864,0,0,0
678,257874,0,-1,0
679,257884,0,0,0
680,257894,0,0,0
681,257904,0,-1,0
682,257914,0,0,0
683,257924,0,0,0
684,257934,0,-1,0
685,257944,0,0,0
686,257954,0,0,0
687,257964,0,0,0
688,257974,0,0,0
689,257984,0,-1,0
690,257994,0,0,0
691,258004,0,0,0
692,258014,0,0,0
693,258024,0,0,0
694,258034,0,0,0
695,258044,0,0,0
696,258054,0,-1,0
697,258064,0,0,0
698,258074,0,0,0
699,258084,0,0,0
700,258094,0,0,0
701,258104,0,0,0
702,258114,0,-1,0
703,258124,0,0,0
704,258134,0,0,0
705,258144,0,0,0
706,258154,0,0,0
707,258164,0,0,0
708,258174,0,0,0
709,258184,-1,0,0
710,258194,0,0,0
711,258204,0,0,0
712,258214,-1,0,0
713,258224,0,0,0
714,258234,0,0,0
715,258244,0,0,0
716,258254,0,-1,0
717,258264,0,-1,0
718,258274,0,0,0
719,258284,0,0,0
720,258294,0,0,0
721,258304,0,-1,0
722,258314,0,0,0
723,258324,-1,0,0
724,258334,0,0,0
725,258344,0,-1,0
726,258354,0,0,0
727,258364,0,0,0
728,258374,0,0,0
729,258384,0,-1,0
730,258394,-1,0,0
731,258404,0,0,0
732,258414,0,0,0
733,258424,0,0,0
734,258434,0,0,0
735,258444,0,0,0
736,258454,0,0,0
737,258464,0,0,0
738,258474,0,0,0
739,258484,0,0,0
740,258494,0,-1,0
741,258504,0,0,0
742,258514,-1,0,0
743,258524,0,-1,0
744,258534,0,0,0
745,258544,0,0,0
746,258554,0,0,0
747,258564,0,0,0
748,258574,-1,0,0
749,258584,0,-1,0
750,258594,0,0,0
751,258604,-1,0,0
752,258614,0,0,0
753,258624,0,0,0
754,258634,0,0,0
755,258644,0,-1,0
756,258654,0,-1,0
757,258664,0,0,0
758,258674,0,-1,0
759,258684,0,-1,0
760,258694,0,-1,0
761,258704,0,-1,0
762,258714,0,-1,0
763,258724,-1,0,0
764,258734,0,0,0
765,258744,0,0,0
766,258754,0,0,0
767,258764,0,0,0
768,258774,0,0,0
769,258784,0,-1,0
770,258794,0,0,0
771,258804,0,0,0
772,258814,0,0,0
773,258824,0,0,0
774,258834,0,0,0
775,258844,0,0,0
776,258854,0,0,0
777,258864,0,0,0
778,258874,0,0,0
779,258884,0,0,0
780,258894,0,0,0
781,258904,0,0,0
782,258914,0,0,0
783,258924,0,-1,0
784,258934,0,-1,0
785,258944,0,0,0
786,258954,0,0,0
787,258964,0,0,0
788,258974,0,0,0
789,258984,-1,0,0
790,258994,0,-1,0
791,259004,0,0,0
792,259014,0,0,0
793,259024,0,0,0
794,259034,0,0,0
795,259044,0,-1,0
796,259054,0,0,0
797,259064,0,0,0
798,259074,0,0,0
799,259084,0,0,0
800,259094,0,0,0
801,259104,0,-1,0
802,259114,0,0,0
803,259124,0,0,0
804,259134,0,-1,0
805,259144,0,0,0
806,259154,0,0,0
807,259164,0,0,0
808,259174,0,0,0
809,259184,0,0,0
810,259194,0,-1,0
811,259204,0,0,0
812,259214,0,0,0
813,259224,0,0,0
814,259234,0,0,0
815,259244,0,0,0
816,259254,0,0,0
817,259264,0,0,0
818,259274,0,0,0
819,259284,0,0,0
820,259294,0,0,0
821,259304,0,0,0
822,259314,0,0,0
823,259324,0,0,0
824,259334,0,0,0
825,259344,0,0,0
826,259354,0,0,0
827,259364,0,0,0
828,259374,0,-1,0
829,259384,0,0,0
830,259394,0,0,0
831,259404,0,-1,0
832,259414,0,-1,0
833,259424,0,0,0
834,259434,0,0,0
835,259444,0,0,0
836,259454,0,0,0
837,259464,0,0,0
838,259474,0,0,0
839,259484,0,0,0
840,259494,0,0,0
841,259504,0,0,0
842,259514,0,0,0
843,259524,0,0,0
844,259534,0,0,0
845,259544,0,0,0
846,259554,0,0,0
847,259564,0,0,0
848,259574,0,0,0
849,259584,0,0,0
850,259594,0,0,0
851,259604,0,0,0
852,259614,0,0,0
853,259624,0,0,0
854,259634,0,0,0
855,259644,0,0,0
856,259654,0,0,0
857,259664,0,-1,0
858,259674,0,0,0
859,259684,0,0,0
860,259694,0,0,0
861,259704,-1,0,0
862,259714,0,-1,0
863,259724,0,0,0
864,259734,0,0,0
865,259744,0,0,0
866,259754,0,0,0
867,259764,-1,0,0
868,259774,0,0,0
869,259784,0,0,0
870,259794,0,0,0
871,259804,0,0,0
872,259814,0,0,0
873,259824,0,0,0
874,259834,0,0,0
875,259844,0,0,0
876,259854,0,0,0
877,259864,0,-1,0
878,259874,0,0,0
879,259884,0,0,0
880,259894,0,0,0
881,259904,0,0,0
882,259914,0,0,0
883,259924,0,-1,0
884,259934,0,0,0
885,259944,0,0,0
886,259954,0,0,0
887,259964,0,0,0
888,259974,0,-1,0
889,259984,0,-1,0
890,259994,0,0,0
891,260004,0,0,0
892,260014,0,0,0
893,260024,0,0,0
894,260034,0,0,0
895,260044,0,0,0
896,260054,0,0,0
897,260064,0,-1,0
898,260074,0,0,0
899,260084,0,0,0
900,260094,0,0,0
901,260104,0,0,0
902,260114,0,0,0
903,260124,0,0,0
904,260134,0,0,0
905,260144,0,0,0
906,260154,0,0,0
907,260164,0,0,0
908,260174,0,-1,0
909,260184,0,0,0
910,260194,0,0,0
911,260204,0,0,0
912,260214,0,0,0
913,260224,0,0,0
914,260234,0,0,0
915,260244,0,0,0
916,260254,0,0,0
917,260264,0,0,0
918,260274,0,0,0
919,260284,0,0,0
920,260294,0,-1,0
921,260304,0,0,0
922,260314,0,-1,0
923,260324,0,0,0
924,260334,0,-1,0
925,260344,0,-1,0
926,260354,0,0,0
927,260364,0,0,0
928,260374,0,0,0
929,260384,0,0,0
930,260394,0,-1,0
931,260404,0,0,0
932,260414,0,0,0
933,260424,0,0,0
934,260434,0,0,0
935,260444,0,0,0
936,260454,0,0,0
937,260464,0,-1,0
938,260474,0,0,0
939,260484,0,0,0
940,260494,-1,0,0
941,260504,0,0,0
942,260514,0,0,0
943,260524,0,0,0
944,260534,0,0,0
945,260544,0,0,0
946,260554,0,0,0
947,260564,0,0,0
948,260574,0,0,0
949,260584,0,0,0
950,260594,0,-1,0
951,260604,0,0,0
952,260614,0,-1,0
953,260624,0,-1,0
954,260634,0,0,0
955,260644,0,0,0
956,260654,0,-1,0
957,260664,0,-1,0
958,260674,0,0,0
959,260684,0,-1,0
960,260694,-1,0,0
961,260704,0,-1,0
962,260714,0,0,0
963,260724,0,0,0
964,260734,0,0,0
965,260744,0,0,0
966,260754,0,0,0
967,260764,0,0,0
968,260774,0,0,0
969,260784,0,0,0
970,260794,0,0,0
971,260804,0,0,0
972,260814,0,0,0
973,260824,0,0,0
974,260834,0,0,0
975,260844,0,-1,0
976,260854,0,0,0
977,260864,0,-1,0
978,260874,0,0,0
979,260884,0,0,0
980,260894,0,0,0
981,260904,0,0,0
982,260914,0,0,0
983,260924,0,0,0
984,260934,0,0,0
985,260944,0,0,0
986,260954,0,0,0
987,260964,0,0,0
988,260974,0,0,0
989,260984,0,0,0
990,260994,0,0,0
991,261004,0,0,0
992,261014,0,0,0
993,261024,0,0,0
994,261034,0,0,0
995,261044,0,0,0
996,261054,0,0,0
997,261064,0,0,0
998,261074,0,0,0
999,261084,0,0,0
1000,261094,0,0,0
1001,261104,0,-1,0
1002,261114,0,-1,0
1003,261124,0,0,0
1004,261134,0,0,0
1005,261144,0,0,0
1006,261154,0,0,0
1007,261164,0,0,0
1008,261174,0,0,0
1009,261184,0,0,0
1010,261194,0,0,0
1011,261204,0,0,0
1012,261214,0,-1,0
1013,261224,0,0,0
1014,261234,0,0,0
1015,261244,-1,0,0
1016,261254,-1,0,0
1017,261264,-3,-1,0
1018,261274,-4,-1,0
1019,261284,-4,0,0
1020,261294,-4,1,0
1021,261304,0,0,0
1022,261314,0,-1,0
1023,261324,0,-1,0
1024,261334,0,0,0
1025,261344,0,0,0
1026,261354,0,0,0
1027,261364,0,-1,0
1028,261374,0,0,0
1029,261384,0,0,0
1030,261394,-1,0,0
1031,261404,-1,-1,0
1032,261414,0,-1,0
1033,261424,0,0,0
1034,261434,0,0,0
1035,261444,0,0,0
1036,261454,0,0,0
1037,261464,0,-1,0
1038,261474,0,-1,0
1039,261484,0,0,0
1040,261494,0,0,0
1041,261504,0,0,0
1042,261514,0,-1,0
1043,261524,0,0,0
1044,261534,0,0,0
1045,261544,-1,0,0
1046,261554,-1,-1,0
1047,261564,0,0,0
1048,261574,0,0,0
1049,261584,0,0,0
1050,261594,0,0,0
1051,261604,0,-1,0
1052,261614,0,-1,0
1053,261624,-1,0,0
1054,261634,0,0,0
1055,261644,-1,0,0
1056,261654,0,-1,0
1057,261664,0,-1,0
1058,261674,0,0,0
1059,261684,-1,0,0
1060,261694,0,-1,0
1061,261704,0,0,0
1062,261714,0,0,0
1063,261724,0,0,0
1064,261734,0,0,0
1065,261744,0,-1,0
1066,261754,0,0,0
1067,261764,0,0,0
1068,261774,0,0,0
1069,261784,0,-1,0
1070,261794,0,0,0
1071,261804,0,0,0
1072,261814,0,0,0
1073,261824,0,0,0
1074,261834,0,0,0
1075,261844,0,-1,0
1076,261854,0,-1,0
1077,261864,-1,0,0
1078,261874,-1,0,0
1079,261884,0,0,0
1080,261894,0,0,0
1081,261904,0,-1,0
1082,261914,0,0,0
1083,261924,0,0,0
1084,261934,0,0,0
1085,261944,0,0,0
1086,261954,0,0,0
1087,261964,0,-1,0
1088,261974,0,0,0
1089,261984,-1,0,0
1090,261994,0,-1,0
1091,262004,-1,0,0
1092,262014,-1,0,0
1093,262024,0,0,0
1094,262034,-1,0,0
1095,262044,0,0,0
1096,262054,0,-1,0
1097,262064,0,0,0
1098,262074,-1,0,0
1099,262084,0,-1,0
1100,262094,0,0,0
1101,262104,-1,0,0
1102,262114,0,0,0
1103,262124,0,0,0
1104,262134,0,0,0
1105,262144,-1,0,0
1106,262154,0,0,0
1107,262164,0,0,0
1108,262174,0,0,0
1109,262184,-1,0,0
1110,262194,0,-1,0
1111,262204,-1,0,0
1112,262214,-1,0,0
1113,262224,0,0,0
1114,262234,-1,0,0
1115,262244,-1,0,0
1116,262254,-1,0,0
1117,262264,0,0,0
1118,262274,0,0,0
1119,262284,0,0,0
1120,262294,0,0,0
1121,262304,-1,0,0
1122,262314,0,0,0
1123,262324,0,0,0
1124,262334,0,0,0
1125,262344,-1,0,0
1126,262354,0,0,0
1127,262364,0,0,0
1128,262374,0,0,0
1129,262384,-1,0,0
1130,262394,-1,-1,0
1131,262404,-1,0,0
1132,262414,-1,0,0
1133,262424,-1,0,0
1134,262434,-1,0,0
1135,262444,-1,0,0
1136,262454,-1,0,0
1137,262464,-1,0,0
1138,262474,-1,0,0
1139,262484,-1,0,0
1140,262494,-1,0,0
1141,262504,0,0,0
1142,262514,-1,0,0
1143,262524,-1,0,0
1144,262534,-1,0,0
1145,262544,0,-1,0
1146,262554,0,0,0
1147,262564,0,0,0
1148,262574,0,0,0
1149,262584,-1,-1,0
1150,262594,-1,0,0
1151,262604,-1,0,0
1152,262614,0,0,0
1153,262624,0,0,0
1154,262634,-1,0,0
1155,262644,-1,-1,0
1156,262654,0,0,0
1157,262664,-1,-1,0
1158,262674,-1,0,0
1159,262684,-1,0,0
1160,262694,0,-1,0
1161,262704,-1,-1,0
1162,262714,-1,-1,0
1163,262724,-1,0,0
1164,262734,-1,0,0
1165,262744,0,0,0
1166,262754,0,-1,0
1167,262764,-1,-1,0
1168,262774,-1,0,0
1169,262784,-1,0,0
1170,262794,-1,0,0
1171,262804,-1,-1,0
1172,262814,0,0,0
1173,262824,0,0,0
1174,262834,0,0,0
1175,262844,0,0,0
1176,262854,0,-1,0
1177,262864,0,0,0
1178,262874,-1,0,0
1179,262884,-1,0,0
1180,262894,-1,-1,0
1181,262904,-1,-1,0
1182,262914,-1,0,0
1183,262924,-1,0,0
1184,262934,0,0,0
1185,262944,-1,0,0
1186,262954,-1,0,0
1187,262964,0,0,0
1188,262974,-1,0,0
1189,262984,-1,-1,0
1190,262994,0,0,0
1191,263004,-1,0,0
1192,263014,-1,0,0
1193,263024,0,0,0
1194,263034,-1,-1,0
1195,263044,-1,0,0
1196,263054,-1,0,0
1197,263064,-1,0,0
1198,263074,-1,0,0
1199,263084,-1,0,0
1200,263094,-1,0,0
1201,263104,-1,0,0
1202,263114,-1,0,0
1203,263124,-3,0,0
1204,263134,-4,-1,0
1205,263144,-4,0,0
1206,263154,-5,1,0
1207,263164,-6,-1,0
1208,263174,-4,-2,0
1209,263184,-2,-1,0
1210,263194,-1,0,0
1211,263204,-1,1,0
1212,263214,-1,-1,0
1213,263224,-1,-1,0
1214,263234,-1,0,0
1215,263244,-2,0,0
1216,263254,-2,0,0
1217,263264,-1,0,0
1218,263274,-1,-1,0
1219,263284,-2,-1,0
1220,263294,-3,0,0
1221,263304,-2,0,0
1222,263314,-2,0,0
1223,263324,-1,0,0
1224,263334,-2,0,0
1225,263344,-2,0,0
1226,263354,-2,0,0
1227,263364,-2,1,0
1228,263374,-1,0,0
1229,263384,-2,0,0
1230,263394,-2,-1,0
1231,263404,-2,0,0
1232,263414,-2,0,0
1233,263424,-2,0,0
1234,263434,-2,0,0
1235,263444,-2,0,0
1236,263454,-2,0,0
1237,263464,-2,1,0
1238,263474,-1,1,0
1239,263484,-1,1,0
1240,263494,-1,0,0
1241,263504,-2,0,0
1242,263514,-2,1,0
1243,263524,-1,1,0
1244,263534,-1,1,0
1245,263544,-1,0,0
1246,263554,-2,0,0
1247,263564,-2,1,0
1248,263574,-2,2,0
1249,263584,-2,1,0
1250,263594,-2,1,0
1251,263604,-1,0,0
1252,263614,-1,1,0
1253,263624,-1,1,0
1254,263634,-1,1,0
1255,263644,-1,1,0
1256,263654,-1,1,0
1257,263664,-1,1,0
1258,263674,-2,2,0
1259,263684,-1,1,0
1260,263694,-1,1,0
1261,263704,-1,1,0
1262,263714,-1,2,0
1263,263724,-1,2,0
1264,263734,-1,2,0
1265,263744,-1,1,0
1266,263754,-1,1,0
1267,263764,-1,1,0
1268,263774,-1,1,0
1269,263784,-1,2,0
1270,263794,-1,2,0
1271,263804,-1,2,0
1272,263814,-1,1,0
1273,263824,-1,1,0
1274,263834,-1,2,0
1275,263844,-1,1,0
1276,263854,-1,1,0
1277,263864,-1,1,0
1278,263874,-1,2,0
1279,263884,-1,2,0
1280,263894,-1,2,0
1281,263904,-1,1,0
1282,263914,-1,1,0
1283,263924,-1,1,0
1284,263934,0,2,0
1285,263944,-1,2,0
1286,263954,-1,1,0
1287,263964,-1,1,0
1288,263974,-1,1,0
1289,263984,-1,2,0
1290,263994,-1,2,0
1291,264004,-1,1,0
1292,264014,-1,1,0
1293,264024,-1,1,0
1294,264034,-1,3,0
1295,264044,-1,4,0
1296,264054,-1,3,0
1297,264064,0,1,0
1298,264074,0,0,0
1299,264084,0,1,0
1300,264094,0,2,0
1301,264104,0,2,0
1302,264114,0,2,0
1303,264124,0,1,0
1304,264134,0,2,0
1305,264144,0,4,0
1306,264154,-1,4,0
1307,264164,0,1,0
1308,264174,0,1,0
1309,264184,0,1,0
1310,264194,0,1,0
1311,264204,0,2,0
1312,264214,0,1,0
1313,264224,0,0,0
1314,264234,0,0,0
1315,264244,1,0,0
1316,264254,0,1,0
1317,264264,1,2,0
1318,264274,0,2,0
1319,264284,0,1,0
1320,264294,0,0,0
1321,264304,1,1,0
1322,264314,0,1,0
1323,264324,1,1,0
1324,264334,1,2,0
1325,264344,1,1,0
1326,264354,1,0,0
1327,264364,1,1,0
1328,264374,1,1,0
1329,264384,1,1,0
1330,264394,1,1,0
1331,264404,2,0,0
1332,264414,1,1,0
1333,264424,1,1,0
1334,264434,2,0,0
1335,264444,1,0,0
1336,264454,1,0,0
1337,264464,1,1,0
1338,264474,1,0,0
1339,264484,1,0,0
1340,264494,1,-1,0
1341,264504,1,-1,0
1342,264514,1,0,0
1343,264524,1,0,0
1344,264534,1,0,0
1345,264544,1,-1,0
1346,264554,1,-1,0
1347,264564,1,-1,0
1348,264574,1,-1,0
1349,264584,1,-1,0
1350,264594,1,-1,0
1351,264604,1,-1,0
1352,264614,1,-1,0
1353,264624,1,-1,0
1354,264634,1,-1,0
1355,264644,1,-1,0
1356,264654,1,-1,0
1357,264664,1,-1,0
1358,264674,1,-1,0
1359,264684,1,-1,0
1360,264694,0,-1,0
1361,264704,1,-1,0
1362,264714,1,-1,0
1363,264724,0,-1,0
1364,264734,1,-1,0
1365,264744,1,-1,0
1366,264754,1,-1,0
1367,264764,1,-1,0
1368,264774,1,-1,0
1369,264784,1,-1,0
1370,264794,1,-1,0
1371,264804,1,-1,0
1372,264814,1,-1,0
1373,264824,1,-1,0
1374,264834,1,-1,0
1375,264844,0,-1,0
1376,264854,0,-1,0
1377,264864,0,-1,0
1378,264874,0,-1,0
1379,264884,0,-1,0
1380,264894,0,-1,0
1381,264904,0,-1,0
1382,264914,0,-1,0
1383,264924,0,-1,0
1384,264934,0,-1,0
1385,264944,0,-1,0
1386,264954,0,-1,0
1387,264964,0,-1,0
1388,264974,0,-1,0
1389,264984,1,-1,0
1390,264994,0,-1,0
1391,265004,1,-1,0
1392,265014,0,-1,0
1393,265024,0,-1,0
1394,265034,0,-1,0
1395,265044,0,-1,0
1396,265054,0,-1,0
1397,265064,0,-1,0
1398,265074,0,-1,0
1399,265084,0,-1,0
1400,265094,0,-1,0
1401,265104,0,-1,0
1402,265114,0,-1,0
1403,265124,1,-1,0
1404,265134,0,-1,0
1405,265144,0,-1,0
1406,265154,0,-1,0
1407,265164,0,-1,0
1408,265174,1,-1,0
1409,265184,1,-2,0
1410,265194,0,-1,0
1411,265204,0,-1,0
1412,265214,1,-1,0
1413,265224,1,-1,0
1414,265234,0,-1,0
1415,265244,1,-2,0
1416,265254,0,-1,0
1417,265264,0,-1,0
1418,265274,1,-1,0
1419,265284,1,-1,0
1420,265294,1,-2,0
1421,265304,1,-1,0
1422,265314,1,-1,0
1423,265324,1,-1,0
1424,265334,0,-1,0
1425,265344,1,-1,0
1426,265354,0,-1,0
1427,265364,1,-1,0
1428,265374,0,-1,0
1429,265384,1,-1,0
1430,265394,1,-1,0
1431,265404,1,-1,0
1432,265414,1,-1,0
1433,265424,1,-1,0
1434,265434,1,-1,0
1435,265444,1,-1,0
1436,265454,1,-1,0
1437,265464,1,-1,0
1438,265474,1,-1,0
1439,265484,1,-1,0
1440,265494,1,0,0
1441,265504,1,-1,0
1442,265514,1,0,0
1443,265524,1,-1,0
1444,265534,1,-1,0
1445,265544,1,-1,0
1446,265554,1,-1,0
1447,265564,1,0,0
1448,265574,1,-1,0
1449,265584,1,-1,0
1450,265594,1,0,0
1451,265604,1,0,0
1452,265614,1,-1,0
1453,265624,1,0,0
1454,265634,1,0,0
1455,265644,1,0,0
1456,265654,1,0,0
1457,265664,1,0,0
1458,265674,1,0,0
1459,265684,1,0,0
1460,265694,1,0,0
1461,265704,1,0,0
1462,265714,1,0,0
1463,265724,1,0,0
1464,265734,1,0,0
1465,265744,1,0,0
1466,265754,1,0,0
1467,265764,1,0,0
1468,265774,1,0,0
1469,265784,1,0,0
1470,265794,1,0,0
1471,265804,1,0,0
1472,265814,1,0,0
1473,265824,1,0,0
1474,265834,1,0,0
1475,265844,1,-1,0
1476,265854,1,0,0
1477,265864,1,0,0
1478,265874,1,0,0
1479,265884,1,0,0
1480,265894,1,0,0
1481,265904,1,0,0
1482,265914,1,0,0
1483,265924,1,0,0
1484,265934,1,0,0
1485,265944,1,0,0
1486,265954,1,0,0
1487,265964,1,0,0
1488,265974,1,0,0
1489,265984,1,0,0
1490,265994,1,0,0
1491,266004,1,0,0
1492,266014,1,0,0
1493,266024,1,0,0
1494,266034,1,0,0
1495,266044,1,-1,0
1496,266054,1,0,0
1497,266064,1,0,0
1498,266074,1,-1,0
1499,266084,1,-1,0
1500,266094,1,-1,0
1501,266104,1,-1,0
1502,266114,1,-1,0
1503,266124,0,-1,0
1504,266134,1,-1,0
1505,266144,1,-1,0
1506,266154,1,-1,0
1507,266164,1,-1,0
1508,266174,1,-1,0
1509,266184,1,-1,0
1510,266194,0,-1,0
1511,266204,1,-1,0
1512,266214,0,-1,0
1513,266224,0,-1,0
1514,266234,0,-1,0
1515,266244,1,-1,0
1516,266254,1,-1,0
1517,266264,1,-1,0
1518,266274,1,-1,0
1519,266284,0,-1,0
1520,266294,1,-1,0
1521,266304,1,-1,0
1522,266314,1,-2,0
1523,266324,0,-1,0
1524,266334,0,-1,0
1525,266344,1,-1,0
1526,266354,0,-1,0
1527,266364,0,-1,0
1528,266374,1,-1,0
1529,266384,1,-1,0
1530,266394,1,-1,0
1531,266404,1,-2,0
1532,266414,0,-1,0
1533,266424,1,-1,0
1534,266434,1,-1,0
1535,266444,0,-1,0
1536,266454,0,-1,0
1537,266464,0,-1,0
1538,266474,0,-1,0
1539,266484,1,-1,0
1540,266494,1,-1,0
1541,266504,0,-1,0
1542,266514,0,-1,0
1543,266524,0,-1,0
1544,266534,1,-1,0
1545,266544,0,-1,0
1546,266554,0,-1,0
1547,266564,0,-1,0
1548,266574,0,0,0
1549,266584,0,-1,0
1550,266594,1,-1,0
1551,266604,0,-1,0
1552,266614,0,0,0
1553,266624,0,0,0
1554,266634,1,0,0
1555,266644,0,-1,0
1556,266654,0,-1,0
1557,266664,0,-1,0
1558,266674,0,0,0
1559,266684,0,0,0
1560,266694,0,0,0
1561,266704,0,0,0
1562,266714,0,-1,0
1563,266724,0,0,0
1564,266734,0,0,0
1565,266744,0,0,0
1566,266754,1,0,0
1567,266764,0,0,0
1568,266774,0,0,0
1569,266784,0,0,0
1570,266794,0,0,0
1571,266804,0,0,0
1572,266814,0,0,0
1573,266824,0,0,0
1574,266834,0,0,0
1575,266844,0,0,0
1576,266854,0,0,0
1577,266864,0,0,0
1578,266874,0,-1,0
1579,266884,0,-1,0
1580,266894,0,0,0
1581,266904,0,-1,0
1582,266914,0,-1,0
1583,266924,0,-1,0
1584,266934,0,-1,0
1585,266944,0,-1,0
1586,266954,0,-1,0
1587,266964,0,-1,0
1588,266974,0,-1,0
1589,266984,0,-1,0
1590,266994,0,-1,0
1591,267004,0,-1,0
1592,267014,0,-1,0
1593,267024,0,-1,0
1594,267034,0,-1,0
1595,267044,0,-1,0
1596,267054,0,-1,0
1597,267064,0,-1,0
1598,267074,0,-1,0
1599,267084,0,-1,0
1600,267094,0,-1,0
1601,267104,0,-1,0
1602,267114,0,-1,0
1603,267124,0,-1,0
1604,267134,0,-1,0
1605,267144,0,-1,0
1606,267154,0,-1,0
1607,267164,0,-1,0
1608,267174,0,-1,0
1609,267184,0,-1,0
1610,267194,0,-1,0
1611,267204,0,-1,0
1612,267214,0,-1,0
1613,267224,0,-1,0
1614,267234,0,-1,0
1615,267244,0,-1,0
1616,267254,0,-1,0
1617,267264,0,-1,0
1618,267274,0,0,0
1619,267284,0,0,0
1620,267294,0,-1,0
1621,267304,0,-1,0
1622,267314,0,-1,0
1623,267324,0,0,0
1624,267334,0,0,0
1625,267344,0,0,0
1626,267354,0,-1,0
1627,267364,0,0,0
1628,267374,0,0,0
1629,267384,0,0,0
1630,267394,0,0,0
1631,267404,0,0,0
1632,267414,0,-1,0
1633,267424,0,0,0
1634,267434,0,0,0
1635,267444,0,1,0
1636,267454,0,0,0
1637,267464,0,0,0
1638,267474,0,0,0
1639,267484,0,1,0
1640,267494,0,0,0
1641,267504,0,0,0
1642,267514,0,0,0
1643,267524,0,0,0
1644,267534,0,1,0
1645,267544,0,0,0
1646,267554,0,0,0
1647,267564,0,0,0
1648,267574,0,1,0
1649,267584,0,1,0
1650,267594,0,0,0
1651,267604,0,0,0
1652,267614,0,0,0
1653,267624,0,1,0
1654,267634,0,1,0
1655,267644,0,0,0
1656,267654,0,0,0
1657,267664,0,0,0
1658,267674,0,0,0
1659,267684,0,0,0
1660,267694,0,0,0
1661,267704,0,0,0
1662,267714,0,0,0
1663,267724,0,1,0
1664,267734,0,0,0
1665,267744,0,0,0
1666,267754,0,0,0
1667,267764,0,0,0
1668,267774,0,0,0
1669,267784,0,0,0
1670,267794,0,0,0
1671,267804,0,0,0
1672,267814,0,0,0
1673,267824,0,-1,0
1674,267834,0,0,0
1675,267844,0,-1,0
1676,267854,0,0,0
1677,267864,0,0,0
1678,267874,0,-1,0
1679,267884,0,-1,0
1680,267894,0,-1,0
1681,267904,0,-1,0
1682,267914,0,-1,0
1683,267924,0,-1,0
1684,267934,0,-1,0
1685,267944,0,-1,0
1686,267954,0,-1,0
1687,267964,0,-1,0
1688,267974,0,-1,0
1689,267984,0,-1,0
1690,267994,1,-1,0
1691,268004,0,-1,0
1692,268014,0,-1,0
1693,268024,0,-1,0
1694,268034,0,-1,0
1695,268044,1,-1,0
1696,268054,0,-1,0
1697,268064,0,-1,0
1698,268074,0,-1,0
1699,268084,0,-1,0
1700,268094,0,-1,0
1701,268104,0,-1,0
1702,268114,0,-1,0
1703,268124,0,-1,0
1704,268134,0,-1,0
1705,268144,0,-1,0
1706,268154,0,-1,0
1707,268164,0,-1,0
1708,268174,0,-1,0
1709,268184,1,-1,0
1710,268194,0,-1,0
1711,268204,0,-1,0
1712,268214,0,-1,0
1713,268224,0,-1,0
1714,268234,0,-1,0
1715,268244,0,-1,0
1716,268254,0,-1,0
1717,268264,0,-1,0
1718,268274,0,-1,0
1719,268284,1,-1,0
1720,268294,0,-1,0
1721,268304,0,-1,0
1722,268314,0,-1,0
1723,268324,0,-1,0
1724,268334,0,-1,0
1725,268344,0,-1,0
1726,268354,1,-1,0
1727,268364,0,-2,0
1728,268374,1,-1,0
1729,268384,0,-1,0
1730,268394,0,-1,0
1731,268404,0,-1,0
1732,268414,0,-1,0
1733,268424,0,-1,0
1734,268434,0,-1,0
1735,268444,0,-1,0
1736,268454,0,-1,0
1737,268464,0,-1,0
1738,268474,0,-1,0
1739,268484,0,-1,0
1740,268494,0,-1,0
1741,268504,0,-1,0
1742,268514,0,-1,0
1743,268524,0,-1,0
1744,268534,0,-1,0
1745,268544,0,-1,0
1746,268554,0,-1,0
1747,268564,0,-1,0
1748,268574,0,-2,0
1749,268584,0,-2,0
1750,268594,0,-1,0
1751,268604,0,-1,0
1752,268614,0,-1,0
1753,268624,0,-1,0
1754,268634,0,-2,0
1755,268644,0,-1,0
1756,268654,0,-1,0
1757,268664,0,-1,0
1758,268674,0,-1,0
1759,268684,0,-2,0
1760,268694,0,-1,0
1761,268704,0,-1,0
1762,268714,0,-1,0
1763,268724,0,-1,0
1764,268734,0,-2,0
1765,268744,0,-1,0
1766,268754,0,-1,0
1767,268764,0,-1,0
1768,268774,0,-1,0
1769,268784,0,-2,0
1770,268794,0,-1,0
1771,268804,0,-1,0
1772,268814,0,-1,0
1773,268824,0,-1,0
1774,268834,0,-1,0
1775,268844,0,-1,0
1776,268854,0,-1,0
1777,268864,0,-1,0
1778,268874,0,-1,0
1779,268884,0,-1,0
1780,268894,0,-1,0
1781,268904,0,0,0
1782,268914,0,0,0
1783,268924,0,-1,0
1784,268934,0,-1,0
1785,268944,0,0,0
1786,268954,0,0,0
1787,268964,0,0,0
1788,268974,0,0,0
1789,268984,0,0,0
1790,268994,0,0,0
1791,269004,0,1,0
1792,269014,0,0,0
1793,269024,0,0,0
1794,269034,0,0,0
1795,269044,0,0,0
1796,269054,0,1,0
1797,269064,0,1,0
1798,269074,0,0,0
1799,269084,0,0,0
1800,269094,0,0,0
1801,269104,0,1,0
1802,269114,0,1,0
1803,269124,0,0,0
1804,269134,0,1,0
1805,269144,0,1,0
1806,269154,0,1,0
1807,269164,0,1,0
1808,269174,0,1,0
1809,269184,0,1,0
1810,269194,0,0,0
1811,269204,0,0,0
1812,269214,0,0,0
1813,269224,0,1,0
1814,269234,0,0,0
1815,269244,0,1,0
1816,269254,0,1,0
1817,269264,0,1,0
1818,269274,0,1,0
1819,269284,0,0,0
1820,269294,-1,1,0
1821,269304,0,1,0
1822,269314,-1,1,0
1823,269324,0,1,0
1824,269334,0,1,0
1825,269344,0,1,0
1826,269354,-1,1,0
1827,269364,0,1,0
1828,269374,-1,0,0
1829,269384,0,1,0
1830,269394,0,1,0
1831,269404,0,1,0
1832,269414,0,1,0
1833,269424,-1,0,0
1834,269434,0,1,0
1835,269444,0,1,0
1836,269454,0,1,0
1837,269464,0,1,0
1838,269474,0,0,0
1839,269484,0,1,0
1840,269494,-1,0,0
1841,269504,0,1,0
1842,269514,0,1,0
1843,269524,0,1,0
1844,269534,-1,0,0
1845,269544,0,0,0
1846,269554,0,0,0
1847,269564,0,0,0
1848,269574,0,1,0
1849,269584,0,1,0
1850,269594,0,1,0
1851,269604,0,0,0
1852,269614,-1,0,0
1853,269624,-1,1,0
1854,269634,0,1,0
1855,269644,0,2,0
1856,269654,0,2,0
1857,269664,0,0,0
1858,269674,-1,1,0
1859,269684,0,2,0
1860,269694,0,0,0
1861,269704,0,-1,0
1862,269714,0,0,0
1863,269724,0,1,0
1864,269734,0,1,0
1865,269744,0,1,0
1866,269754,0,0,0
1867,269764,0,-1,0
1868,269774,0,0,0
1869,269784,0,1,0
1870,269794,0,0,0
1871,269804,0,-1,0
1872,269814,0,-1,0
1873,269824,0,0,0
1874,269834,0,1,0
1875,269844,0,0,0
1876,269854,0,-1,0
1877,269864,0,-2,0
1878,269874,0,-1,0
1879,269884,0,0,0
1880,269894,-1,0,0
1881,269904,-1,-1,0
1882,269914,-1,-2,0
1883,269924,0,-2,0
1884,269934,0,-1,0
1885,269944,0,-1,0
1886,269954,0,-1,0
1887,269964,0,-2,0
1888,269974,0,-1,0
1889,269984,-1,-1,0
1890,269994,-1,-1,0
1891,270004,-1,-1,0
1892,270014,0,-2,0
1893,270024,0,-1,0
1894,270034,-1,0,0
1895,270044,0,0,0
1896,270054,0,-2,0
1897,270064,0,-2,0
1898,270074,-1,-2,0
1899,270084,-1,0,0
1900,270094,-1,1,0
1901,270104,-1,-1,0
1902,270114,0,-2,0
1903,270124,-1,-2,0
1904,270134,-1,-1,0
1905,270144,-1,0,0
1906,270154,-1,0,0
1907,270164,-1,-2,0
1908,270174,0,-2,0
1909,270184,-1,-1,0
1910,270194,0,0,0
1911,270204,-1,0,0
1912,270214,-1,-1,0
1913,270224,0,-1,0
1914,270234,-1,0,0
1915,270244,0,0,0
1916,270254,0,-1,0
1917,270264,-1,-1,0
1918,270274,0,-1,0
1919,270284,-1,0,0
1920,270294,0,0,0
1921,270304,0,-1,0
1922,270314,-1,-1,0
1923,270324,-1,0,0
1924,270334,-1,1,0
1925,270344,0,0,0
1926,270354,-1,-1,0
1927,270364,0,-1,0
1928,270374,-1,0,0
1929,270384,0,1,0
1930,270394,0,0,0
1931,270404,0,-1,0
1932,270414,-1,-1,0
1933,270424,0,0,0
1934,270434,0,0,0
1935,270444,0,0,0
1936,270454,0,-1,0
1937,270464,-1,-1,0
1938,270474,0,0,0
1939,270484,0,0,0
1940,270494,0,-1,0
1941,270504,0,-1,0
1942,270514,0,-1,0
1943,270524,0,-1,0
1944,270534,-1,0,0
1945,270544,0,0,0
1946,270554,0,-1,0
1947,270564,0,-1,0
1948,270574,0,-1,0
1949,270584,0,-1,0
1950,270594,0,-1,0
1951,270604,0,-1,0
1952,270614,-1,-1,0
1953,270624,0,-1,0
1954,270634,-1,-1,0
1955,270644,0,-1,0
1956,270654,0,-1,0
1957,270664,0,-1,0
1958,270674,-1,-1,0
1959,270684,0,-1,0
1960,270694,-1,-1,0
1961,270704,0,-1,0
1962,270714,-1,-1,0
1963,270724,-1,-1,0
1964,270734,-1,-1,0
1965,270744,0,-1,0
1966,270754,-1,-1,0
1967,270764,-1,-1,0
1968,270774,-1,-1,0
1969,270784,-1,0,0
1970,270794,-1,0,0
1971,270804,-1,0,0
1972,270814,-1,0,0
1973,270824,-1,-1,0
1974,270834,-1,-1,0
1975,270844,-1,0,0
1976,270854,-1,1,0
1977,270864,-1,-1,0
1978,270874,0,-2,0
1979,270884,-1,-1,0
1980,270894,-1,0,0
1981,270904,-1,1,0
1982,270914,-2,-1,0
1983,270924,-2,-2,0
1984,270934,-1,-1,0
1985,270944,-2,0,0
1986,270954,-2,1,0
1987,270964,-2,-1,0
1988,270974,-1,-2,0
1989,270984,-1,-1,0
1990,270994,-1,0,0
1991,271004,-2,2,0
1992,271014,-2,0,0
1993,271024,-1,-1,0
1994,271034,-1,-2,0
1995,271044,-1,-1,0
1996,271054,-1,1,0
1997,271064,-1,1,0
1998,271074,-1,-1,0
1999,271084,-1,-2,0
2000,271094,0,-1,0
2001,271104,-1,0,0
2002,271114,-1,1,0
2003,271124,0,-1,0
2004,271134,-1,-2,0
2005,271144,-1,-1,0
2006,271154,-1,1,0
2007,271164,-1,1,0
2008,271174,-1,-1,0
2009,271184,-1,-2,0
2010,271194,-1,-1,0
2011,271204,-2,1,0
2012,271214,-1,1,0
2013,271224,-1,0,0
2014,271234,-1,-1,0
2015,271244,-1,-1,0
2016,271254,-2,0,0
2017,271264,-2,1,0
2018,271274,-3,1,0
2019,271284,-4,0,0
2020,271294,-7,-1,0
2021,271304,-8,-3,0
2022,271314,-8,1,0
2023,271324,-7,-1,0
2024,271334,-4,-2,0
2025,271344,-3,-1,0
2026,271354,-3,-1,0
2027,271364,-5,2,0
2028,271374,-6,-1,0
2029,271384,-11,-6,0
2030,271394,-13,-9,0
2031,271404,-11,-11,0
2032,271414,-9,-5,0
2033,271424,-8,0,0
2034,271434,-7,3,0
2035,271444,-4,-5,0
2036,271454,-3,-11,0
2037,271464,-6,-6,0
2038,271474,-4,-4,0
2039,271484,-2,-4,0
2040,271494,-2,-2,0
2041,271504,-1,2,0
2042,271514,-1,2,0
2043,271524,1,-1,0
2044,271534,3,-2,0
2045,271544,3,-4,0
2046,271554,2,-2,0
2047,271564,3,0,0
2048,271574,2,0,0
2049,271584,1,0,0
2050,271594,3,-1,0
2051,271604,9,2,0
2052,271614,21,6,0
2053,271624,21,9,0
2054,271634,20,11,0
2055,271644,16,12,0
2056,271654,10,6,0
2057,271664,8,3,0
2058,271674,6,3,0
2059,271684,2,1,0
2060,271694,2,1,0
2061,271704,2,-1,0
2062,271714,1,-1,0
2063,271724,1,0,0
2064,271734,0,3,0
2065,271744,1,2,0
2066,271754,0,-1,0
2067,271764,0,-2,0
2068,271774,1,-1,0
2069,271784,1,1,0
2070,271794,0,2,0
2071,271804,0,1,0
2072,271814,0,-1,0
2073,271824,0,-2,0
2074,271834,0,0,0
2075,271844,0,1,0
2076,271854,1,1,0
2077,271864,0,0,0
2078,271874,0,0,0
2079,271884,0,0,0
2080,271894,1,0,0
2081,271904,1,1,0
2082,271914,1,1,0
2083,271924,1,1,0
2084,271934,2,0,0
2085,271944,2,1,0
2086,271954,2,0,0
2087,271964,3,0,0
2088,271974,3,1,0
2089,271984,3,2,0
2090,271994,2,2,0
2091,272004,1,1,0
2092,272014,1,-1,0
2093,272024,2,-1,0
2094,272034,2,-1,0
2095,272044,3,1,0
2096,272054,2,2,0
2097,272064,3,1,0
2098,272074,4,0,0
2099,272084,4,-1,0
2100,272094,3,0,0
2101,272104,3,1,0
2102,272114,3,0,0
2103,272124,3,-1,0
2104,272134,2,-1,0
2105,272144,3,-1,0
2106,272154,3,0,0
2107,272164,3,-1,0
2108,272174,3,-2,0
2109,272184,2,-2,0
2110,272194,2,-1,0
2111,272204,2,0,0
2112,272214,2,-1,0
2113,272224,1,-2,0
2114,272234,2,-1,0
2115,272244,1,-1,0
2116,272254,1,0,0
2117,272264,0,0,0
2118,272274,1,-1,0
2119,272284,0,-1,0
2120,272294,0,-1,0
2121,272304,0,0,0
2122,272314,0,0,0
2123,272324,0,0,0
2124,272334,0,-1,0
2125,272344,0,-1,0
2126,272354,0,0,0
2127,272364,0,-1,0
2128,272374,1,-1,0
2129,272384,1,-1,0
2130,272394,1,0,0
2131,272404,0,0,0
2132,272414,0,-1,0
2133,272424,0,-1,0
2134,272434,0,-1,0
2135,272444,0,-1,0
2136,272454,1,0,0
2137,272464,1,-1,0
2138,272474,1,-1,0
2139,272484,0,-1,0
2140,272494,0,-1,0
2141,272504,1,0,0
2142,272514,1,0,0
2143,272524,1,-1,0
2144,272534,1,-1,0
2145,272544,0,0,0
2146,272554,1,0,0
2147,272564,1,0,0
2148,272574,1,0,0
2149,272584,1,-1,0
2150,272594,1,-1,0
2151,272604,1,0,0
2152,272614,1,0,0
2153,272624,1,-1,0
2154,272634,1,0,0
2155,272644,1,-1,0
2156,272654,1,-1,0
2157,272664,1,-1,0
2158,272674,2,0,0
2159,272684,2,0,0
2160,272694,2,0,0
2161,272704,1,0,0
2162,272714,2,0,0
2163,272724,1,0,0
2164,272734,1,0,0
2165,272744,1,-1,0
2166,272754,1,-1,0
2167,272764,1,-1,0
2168,272774,1,0,0
2169,272784,2,0,0
2170,272794,2,0,0
2171,272804,2,-1,0
2172,272814,2,-1,0
2173,272824,2,-1,0
2174,272834,2,0,0
2175,272844,2,0,0
2176,272854,2,-1,0
2177,272864,1,-1,0
2178,272874,1,-1,0
2179,272884,1,0,0
2180,272894,1,0,0
2181,272904,1,-1,0
2182,272914,1,-1,0
2183,272924,1,-1,0
2184,272934,0,0,0
2185,272944,1,0,0
2186,272954,1,0,0
2187,272964,1,-1,0
2188,272974,1,-1,0
2189,272984,1,-1,0
2190,272994,1,0,0
2191,273004,1,0,0
2192,273014,1,0,0
2193,273024,1,-1,0
2194,273034,1,-1,0
2195,273044,1,-1,0
2196,273054,1,-1,0
2197,273064,1,0,0
2198,273074,1,-1,0
2199,273084,1,-1,0
2200,273094,1,-1,0
2201,273104,1,-1,0
2202,273114,1,-1,0
2203,273124,1,-1,0
2204,273134,1,-1,0
2205,273144,2,-1,0
2206,273154,2,0,0
2207,273164,1,0,0
2208,273174,2,-1,0
2209,273184,1,0,0
2210,273194,1,0,0
2211,273204,1,0,0
2212,273214,1,-1,0
2213,273224,1,0,0
2214,273234,1,-1,0
2215,273244,1,0,0
2216,273254,1,0,0
2217,273264,1,0,0
2218,273274,1,0,0
2219,273284,1,0,0
2220,273294,1,0,0
2221,273304,1,0,0
2222,273314,1,0,0
2223,273324,1,0,0
2224,273334,1,0,0
2225,273344,1,0,0
2226,273354,1,0,0
2227,273364,1,0,0
2228,273374,1,0,0
2229,273384,1,1,0
2230,273394,1,0,0
2231,273404,1,0,0
2232,273414,1,0,0
2233,273424,1,0,0
2234,273434,1,1,0
2235,273444,1,1,0
2236,273454,1,0,0
2237,273464,1,0,0
2238,273474,1,0,0
2239,273484,1,0,0
2240,273494,1,0,0
2241,273504,1,0,0
