,ts,id,Gx,Gy,Gz,Ax,Ay,Az
0,-0.324,IMU1,2.0121951219512195,-1.2195121951219514,-0.1829268292682927,-0.9296875,0.05078125,0.3427734375
1,-0.324,IMU2,0.5487804878048781,0.6097560975609757,-0.6707317073170732,-0.943359375,0.0498046875,0.3271484375
2,-0.314,IMU0,-0.48780487804878053,0.24390243902439027,0.12195121951219513,-0.93359375,0.0595703125,0.3369140625
3,-0.314,IMU1,2.1341463414634148,-1.2195121951219514,0.24390243902439027,-0.9306640625,0.056640625,0.341796875
4,-0.314,IMU2,0.6707317073170732,0.6707317073170732,-0.1829268292682927,-0.9462890625,0.0556640625,0.3330078125
5,-0.304,IMU0,-0.6707317073170732,0.1829268292682927,-0.5487804878048781,-0.931640625,0.060546875,0.3359375
6,-0.304,IMU1,1.8902439024390245,-1.1585365853658538,-0.426829268292683,-0.9296875,0.0546875,0.3408203125
7,-0.304,IMU2,0.426829268292683,0.6097560975609757,-0.853658536585366,-0.9462890625,0.0556640625,0.3310546875
8,-0.294,IMU0,-0.48780487804878053,0.0,-0.24390243902439027,-0.9306640625,0.0537109375,0.3349609375
9,-0.294,IMU1,2.0121951219512195,-1.3414634146341464,0.0,-0.927734375,0.05078125,0.3427734375
10,-0.294,IMU2,0.6097560975609757,0.48780487804878053,-0.5487804878048781,-0.94140625,0.05078125,0.3291015625
11,-0.284,IMU0,-0.426829268292683,0.1829268292682927,0.06097560975609757,-0.931640625,0.0615234375,0.33203125
12,-0.284,IMU1,2.1341463414634148,-1.2195121951219514,0.1829268292682927,-0.9296875,0.056640625,0.33984375
13,-0.284,IMU2,0.7317073170731708,0.6097560975609757,-0.30487804878048785,-0.9453125,0.0576171875,0.3291015625
14,-0.274,IMU0,-0.6707317073170732,0.24390243902439027,-0.5487804878048781,-0.931640625,0.0576171875,0.3349609375
15,-0.274,IMU1,1.8902439024390245,-1.1585365853658538,-0.426829268292683,-0.9287109375,0.0517578125,0.3427734375
16,-0.274,IMU2,0.48780487804878053,0.6097560975609757,-0.9146341463414634,-0.9453125,0.0537109375,0.33203125
17,-0.264,IMU0,-0.48780487804878053,0.24390243902439027,-0.1829268292682927,-0.931640625,0.0537109375,0.3330078125
18,-0.264,IMU1,2.0121951219512195,-1.1585365853658538,0.06097560975609757,-0.9296875,0.05078125,0.3427734375
19,-0.264,IMU2,0.5487804878048781,0.6097560975609757,-0.426829268292683,-0.9443359375,0.048828125,0.33203125
20,-0.254,IMU0,-0.5487804878048781,0.1829268292682927,-0.12195121951219513,-0.9326171875,0.0625,0.3291015625
21,-0.254,IMU1,2.0121951219512195,-1.2195121951219514,0.0,-0.9306640625,0.060546875,0.3408203125
22,-0.254,IMU2,0.6097560975609757,0.6097560975609757,-0.48780487804878053,-0.947265625,0.0595703125,0.330078125
23,-0.244,IMU0,-0.6707317073170732,0.24390243902439027,-0.6097560975609757,-0.931640625,0.0556640625,0.333984375
24,-0.244,IMU1,1.829268292682927,-1.1585365853658538,-0.426829268292683,-0.9287109375,0.0517578125,0.34375
25,-0.244,IMU2,0.426829268292683,0.48780487804878053,-0.9146341463414634,-0.9443359375,0.05078125,0.330078125
26,-0.234,IMU0,-0.5487804878048781,0.1829268292682927,0.0,-0.9306640625,0.0576171875,0.3369140625
27,-0.234,IMU1,1.9512195121951221,-1.1585365853658538,0.1829268292682927,-0.9287109375,0.052734375,0.3427734375
28,-0.234,IMU2,0.6097560975609757,0.6097560975609757,-0.30487804878048785,-0.943359375,0.052734375,0.330078125
29,-0.224,IMU0,-0.48780487804878053,0.06097560975609757,-0.1829268292682927,-0.9306640625,0.068359375,0.3291015625
30,-0.224,IMU1,2.0121951219512195,-1.2804878048780488,-0.06097560975609757,-0.9296875,0.060546875,0.33984375
31,-0.224,IMU2,0.6097560975609757,0.5487804878048781,-0.48780487804878053,-0.9462890625,0.0615234375,0.326171875
32,-0.214,IMU0,-0.6097560975609757,0.24390243902439027,-0.6707317073170732,-0.931640625,0.052734375,0.3359375
33,-0.214,IMU1,1.8902439024390245,-1.1585365853658538,-0.48780487804878053,-0.9287109375,0.0458984375,0.3447265625
34,-0.214,IMU2,0.48780487804878053,0.6097560975609757,-0.9146341463414634,-0.943359375,0.0458984375,0.33203125
35,-0.204,IMU0,-0.3658536585365854,0.30487804878048785,0.06097560975609757,-0.9306640625,0.0595703125,0.333984375
36,-0.204,IMU1,2.1951219512195124,-1.0365853658536586,0.30487804878048785,-0.927734375,0.0556640625,0.34375
37,-0.204,IMU2,0.7926829268292683,0.6707317073170732,-0.1829268292682927,-0.9423828125,0.0556640625,0.330078125
38,-0.194,IMU0,-0.48780487804878053,0.12195121951219513,-0.426829268292683,-0.927734375,0.0693359375,0.3310546875
39,-0.194,IMU1,2.073170731707317,-1.3414634146341464,-0.24390243902439027,-0.9267578125,0.064453125,0.3369140625
40,-0.194,IMU2,0.6707317073170732,0.48780487804878053,-0.7317073170731708,-0.9423828125,0.0634765625,0.3251953125
41,-0.184,IMU0,-0.5487804878048781,0.426829268292683,-0.3658536585365854,-0.9296875,0.056640625,0.3349609375
42,-0.184,IMU1,1.9512195121951221,-0.853658536585366,-0.06097560975609757,-0.927734375,0.0517578125,0.345703125
43,-0.184,IMU2,0.6097560975609757,0.853658536585366,-0.6097560975609757,-0.9423828125,0.05078125,0.3310546875
44,-0.174,IMU0,-0.3658536585365854,0.426829268292683,-0.30487804878048785,-0.931640625,0.06640625,0.3408203125
45,-0.174,IMU1,2.1341463414634148,-1.0365853658536586,-0.1829268292682927,-0.9296875,0.060546875,0.349609375
46,-0.174,IMU2,0.7317073170731708,0.853658536585366,-0.6097560975609757,-0.9462890625,0.0595703125,0.33984375
47,-0.164,IMU0,-0.06097560975609757,-0.426829268292683,0.06097560975609757,-0.9267578125,0.0283203125,0.326171875
48,-0.164,IMU1,2.804878048780488,-1.7682926829268295,0.24390243902439027,-0.9140625,0.048828125,0.328125
49,-0.164,IMU2,1.3414634146341464,0.06097560975609757,-0.24390243902439027,-0.9296875,0.0478515625,0.3125
50,-0.154,IMU0,-0.06097560975609757,-0.24390243902439027,-0.853658536585366,-0.9228515625,0.087890625,0.330078125
51,-0.154,IMU1,2.7439024390243905,-0.7317073170731708,-0.6707317073170732,-0.91796875,0.0830078125,0.3310546875
52,-0.154,IMU2,1.3414634146341464,0.9756097560975611,-1.2195121951219514,-0.9345703125,0.08203125,0.3193359375
53,-0.144,IMU0,-0.7317073170731708,0.7317073170731708,-1.8902439024390245,-0.9638671875,0.0283203125,0.333984375
54,-0.144,IMU1,1.402439024390244,-0.6097560975609757,-1.7682926829268295,-0.9609375,0.037109375,0.3564453125
55,-0.144,IMU2,-0.12195121951219513,1.1585365853658538,-2.378048780487805,-0.9775390625,0.037109375,0.34765625
56,-0.134,IMU0,-0.3658536585365854,2.682926829268293,-2.8658536585365857,-1.0185546875,0.0966796875,0.4296875
57,-0.134,IMU1,2.3170731707317076,0.7926829268292683,-2.9268292682926833,-1.0537109375,0.0751953125,0.435546875
58,-0.134,IMU2,0.853658536585366,2.439024390243903,-3.414634146341464,-1.080078125,0.07421875,0.4228515625
59,-0.124,IMU0,0.7317073170731708,-2.8658536585365857,-5.3048780487804885,-1.0673828125,0.140625,0.3935546875
60,-0.124,IMU1,2.9268292682926833,-2.5,-4.634146341463415,-1.0498046875,0.146484375,0.4384765625
61,-0.124,IMU2,1.402439024390244,-0.48780487804878053,-5.060975609756098,-1.0615234375,0.1484375,0.4296875
62,-0.114,IMU0,1.1585365853658538,-3.7195121951219514,-4.024390243902439,-1.427734375,0.123046875,0.55859375
63,-0.114,IMU1,3.353658536585366,-4.75609756097561,-3.7195121951219514,-1.4296875,0.142578125,0.595703125
64,-0.114,IMU2,2.1341463414634148,-3.1707317073170733,-4.329268292682928,-1.4453125,0.1552734375,0.5859375
65,-0.104,IMU0,-0.06097560975609757,0.30487804878048785,-6.2804878048780495,-1.724609375,0.16796875,0.7548828125
66,-0.104,IMU1,1.8902439024390245,0.12195121951219513,-5.914634146341464,-1.7490234375,0.150390625,0.822265625
67,-0.104,IMU2,0.48780487804878053,2.25609756097561,-6.463414634146342,-1.76953125,0.1611328125,0.80859375
68,-0.094,IMU0,1.2804878048780488,3.048780487804878,-0.9146341463414634,-2.17578125,0.2041015625,0.9052734375
69,-0.094,IMU1,3.963414634146342,1.3414634146341464,-0.853658536585366,-2.1552734375,0.2060546875,0.896484375
70,-0.094,IMU2,2.5609756097560976,3.1097560975609757,-1.3414634146341464,-2.1787109375,0.212890625,0.892578125
71,-0.084,IMU0,0.9756097560975611,6.646341463414635,0.853658536585366,-2.513671875,0.2529296875,1.060546875
72,-0.084,IMU1,3.353658536585366,5.060975609756098,0.9146341463414634,-2.5029296875,0.2451171875,1.0810546875
73,-0.084,IMU2,1.6463414634146343,6.585365853658537,0.48780487804878053,-2.521484375,0.259765625,1.0673828125
74,-0.074,IMU0,-0.1829268292682927,5.670731707317073,1.3414634146341464,-2.900390625,0.3125,1.1650390625
75,-0.074,IMU1,2.5609756097560976,3.780487804878049,1.707317073170732,-2.8798828125,0.21484375,1.1689453125
76,-0.074,IMU2,0.7926829268292683,5.7926829268292686,1.2195121951219514,-2.9091796875,0.2685546875,1.162109375
77,-0.064,IMU0,-1.0975609756097562,1.7682926829268295,-2.1951219512195124,-3.40234375,0.3349609375,1.341796875
78,-0.064,IMU1,2.1951219512195124,0.48780487804878053,-1.8902439024390245,-3.3740234375,0.275390625,1.3564453125
79,-0.064,IMU2,0.30487804878048785,2.3170731707317076,-2.439024390243903,-3.4091796875,0.3154296875,1.3515625
80,-0.054,IMU0,-1.9512195121951221,-6.646341463414635,-5.670731707317073,-3.73046875,0.3720703125,1.54296875
81,-0.054,IMU1,0.12195121951219513,-7.8048780487804885,-5.487804878048781,-3.697265625,0.30078125,1.51953125
82,-0.054,IMU2,-0.853658536585366,-6.52439024390244,-6.036585365853659,-3.7236328125,0.359375,1.509765625
83,-0.044,IMU0,-4.878048780487806,-15.000000000000002,-2.804878048780488,-3.7978515625,0.294921875,1.609375
84,-0.044,IMU1,-2.5609756097560976,-16.463414634146343,-2.6219512195121952,-3.7841796875,0.265625,1.595703125
85,-0.044,IMU2,-3.780487804878049,-14.817073170731708,-3.1707317073170733,-3.80859375,0.294921875,1.55859375
86,-0.034,IMU0,-2.9268292682926833,-17.804878048780488,-0.48780487804878053,-3.8515625,0.3046875,1.5830078125
87,-0.034,IMU1,-0.06097560975609757,-19.146341463414636,-0.3658536585365854,-3.830078125,0.2607421875,1.6416015625
88,-0.034,IMU2,-1.3414634146341464,-17.804878048780488,-0.7926829268292683,-3.85546875,0.2939453125,1.6005859375
89,-0.024,IMU0,-1.5853658536585367,-18.414634146341466,-1.0975609756097562,-3.779296875,0.341796875,1.6455078125
90,-0.024,IMU1,1.2195121951219514,-20.54878048780488,-1.2195121951219514,-3.755859375,0.3095703125,1.6640625
91,-0.024,IMU2,-0.7926829268292683,-18.719512195121954,-1.4634146341463417,-3.7744140625,0.3359375,1.615234375
92,-0.014,IMU0,-1.0365853658536586,-9.085365853658537,1.4634146341463417,-3.6357421875,0.2861328125,1.6650390625
93,-0.014,IMU1,1.2195121951219514,-10.975609756097562,1.829268292682927,-3.609375,0.24609375,1.626953125
94,-0.014,IMU2,0.0,-9.329268292682928,1.2195121951219514,-3.65234375,0.2763671875,1.6435546875
95,-0.004,IMU0,-0.9756097560975611,2.5,-0.06097560975609757,-3.857421875,0.3662109375,1.7685546875
96,-0.004,IMU1,1.2804878048780488,0.853658536585366,0.3658536585365854,-3.8193359375,0.357421875,1.7412109375
97,-0.004,IMU2,0.12195121951219513,1.9512195121951221,-0.3658536585365854,-3.87890625,0.365234375,1.7353515625
98,0.006,IMU0,-1.8902439024390245,5.426829268292684,-4.451219512195122,-4.0966796875,0.4423828125,1.8125
99,0.006,IMU1,0.24390243902439027,4.2682926829268295,-4.085365853658537,-4.076171875,0.3828125,1.7978515625
100,0.006,IMU2,-1.0975609756097562,4.695121951219512,-4.75609756097561,-4.103515625,0.4365234375,1.7978515625
101,0.016,IMU0,-3.536585365853659,1.2195121951219514,-3.658536585365854,-4.2060546875,0.4384765625,1.876953125
102,0.016,IMU1,-0.9146341463414634,0.3658536585365854,-3.4756097560975614,-4.1767578125,0.3857421875,1.88671875
103,0.016,IMU2,-2.0121951219512195,1.0975609756097562,-4.085365853658537,-4.2099609375,0.43359375,1.861328125
104,0.026,IMU0,-2.682926829268293,-1.2195121951219514,-1.0365853658536586,-4.2392578125,0.4072265625,1.958984375
105,0.026,IMU1,-0.3658536585365854,-2.987804878048781,-1.0975609756097562,-4.2158203125,0.3544921875,1.958984375
106,0.026,IMU2,-1.4634146341463417,-1.707317073170732,-1.402439024390244,-4.23046875,0.4033203125,1.9423828125
107,0.036,IMU0,-0.9756097560975611,1.2195121951219514,4.085365853658537,-4.3251953125,0.41015625,2.0107421875
108,0.036,IMU1,1.2195121951219514,0.24390243902439027,4.085365853658537,-4.2998046875,0.36328125,1.984375
109,0.036,IMU2,0.3658536585365854,1.5853658536585367,3.658536585365854,-4.328125,0.40625,2.0
110,0.046,IMU0,-0.6097560975609757,2.6219512195121952,2.439024390243903,-4.4033203125,0.4501953125,2.0625
111,0.046,IMU1,1.707317073170732,1.4634146341463417,2.6219512195121952,-4.376953125,0.4033203125,2.0205078125
112,0.046,IMU2,1.0975609756097562,2.5,1.9512195121951221,-4.416015625,0.4462890625,2.05078125
113,0.056,IMU0,-1.707317073170732,0.12195121951219513,-3.353658536585366,-4.4599609375,0.4541015625,2.0634765625
114,0.056,IMU1,0.853658536585366,-1.0365853658536586,-2.9268292682926833,-4.4404296875,0.4111328125,2.046875
115,0.056,IMU2,-0.426829268292683,-0.1829268292682927,-3.780487804878049,-4.4814453125,0.4482421875,2.044921875
116,0.066,IMU0,-2.073170731707317,-2.073170731707317,-5.670731707317073,-4.4794921875,0.44140625,2.05859375
117,0.066,IMU1,0.0,-3.414634146341464,-5.548780487804878,-4.4482421875,0.39453125,2.0615234375
118,0.066,IMU2,-0.426829268292683,-1.5853658536585367,-5.975609756097562,-4.478515625,0.4365234375,2.0390625
119,0.076,IMU0,-0.7317073170731708,-6.158536585365854,-0.3658536585365854,-4.498046875,0.4619140625,2.0732421875
120,0.076,IMU1,2.0121951219512195,-7.134146341463415,-0.3658536585365854,-4.47265625,0.41796875,2.076171875
121,0.076,IMU2,1.2804878048780488,-5.914634146341464,-0.7317073170731708,-4.501953125,0.45703125,2.052734375
122,0.086,IMU0,0.24390243902439027,-5.731707317073171,-1.5853658536585367,-4.439453125,0.4716796875,2.0947265625
123,0.086,IMU1,2.378048780487805,-7.01219512195122,-1.5853658536585367,-4.4140625,0.43359375,2.0712890625
124,0.086,IMU2,1.524390243902439,-6.036585365853659,-1.8902439024390245,-4.439453125,0.4658203125,2.0751953125
125,0.096,IMU0,1.524390243902439,-4.51219512195122,-1.1585365853658538,-4.3720703125,0.47265625,2.0703125
126,0.096,IMU1,3.2926829268292686,-5.914634146341464,-0.853658536585366,-4.3408203125,0.4345703125,2.0751953125
127,0.096,IMU2,2.682926829268293,-4.75609756097561,-1.4634146341463417,-4.375,0.46875,2.0849609375
128,0.106,IMU0,3.1707317073170733,-1.6463414634146343,-1.8902439024390245,-4.4189453125,0.462890625,2.0546875
129,0.106,IMU1,5.3048780487804885,-2.25609756097561,-1.6463414634146343,-4.3818359375,0.4248046875,2.091796875
130,0.106,IMU2,4.51219512195122,-0.9146341463414634,-2.1341463414634148,-4.4189453125,0.458984375,2.0751953125
131,0.116,IMU0,4.390243902439025,-1.7682926829268295,-0.6097560975609757,-4.431640625,0.4697265625,2.0400390625
132,0.116,IMU1,5.670731707317073,-2.0121951219512195,-0.3658536585365854,-4.396484375,0.4248046875,2.0791015625
133,0.116,IMU2,5.975609756097562,-1.0365853658536586,-0.853658536585366,-4.4306640625,0.46484375,2.0634765625
134,0.126,IMU0,5.487804878048781,-3.4756097560975614,1.4634146341463417,-4.4326171875,0.5029296875,2.046875
135,0.126,IMU1,7.682926829268293,-3.414634146341464,1.707317073170732,-4.4072265625,0.4560546875,2.0830078125
136,0.126,IMU2,6.463414634146342,-3.048780487804878,1.2195121951219514,-4.4345703125,0.4970703125,2.068359375
137,0.136,IMU0,5.426829268292684,-3.4756097560975614,-0.24390243902439027,-4.40234375,0.48828125,2.0478515625
138,0.136,IMU1,7.500000000000001,-4.329268292682928,0.06097560975609757,-4.380859375,0.4326171875,2.0703125
139,0.136,IMU2,5.609756097560976,-3.4756097560975614,-0.5487804878048781,-4.4072265625,0.4873046875,2.046875
140,0.146,IMU0,4.878048780487806,-3.9024390243902443,-2.804878048780488,-4.390625,0.4951171875,2.013671875
141,0.146,IMU1,6.036585365853659,-4.878048780487806,-2.378048780487805,-4.369140625,0.4453125,2.0517578125
142,0.146,IMU2,5.7926829268292686,-3.658536585365854,-3.1707317073170733,-4.396484375,0.4990234375,2.025390625
143,0.156,IMU0,5.426829268292684,-3.231707317073171,-3.1707317073170733,-4.4091796875,0.5205078125,2.017578125
144,0.156,IMU1,7.073170731707318,-3.780487804878049,-2.8658536585365857,-4.376953125,0.478515625,2.0595703125
145,0.156,IMU2,7.378048780487806,-3.2926829268292686,-3.7195121951219514,-4.41796875,0.5166015625,2.0419921875
146,0.166,IMU0,5.182926829268293,-4.573170731707317,-3.536585365853659,-4.427734375,0.482421875,2.025390625
147,0.166,IMU1,7.621951219512196,-6.097560975609756,-3.048780487804878,-4.39453125,0.44921875,2.0634765625
148,0.166,IMU2,7.378048780487806,-4.390243902439025,-3.780487804878049,-4.412109375,0.484375,2.0380859375
149,0.176,IMU0,5.2439024390243905,-7.926829268292684,-1.0365853658536586,-4.3515625,0.4453125,1.9697265625
150,0.176,IMU1,8.475609756097562,-9.207317073170733,-0.9756097560975611,-4.326171875,0.421875,1.98828125
151,0.176,IMU2,6.585365853658537,-7.621951219512196,-1.4634146341463417,-4.353515625,0.4423828125,1.9580078125
152,0.186,IMU0,3.963414634146342,-8.841463414634147,1.1585365853658538,-4.3076171875,0.49609375,1.98046875
153,0.186,IMU1,6.7682926829268295,-10.792682926829269,0.9756097560975611,-4.29296875,0.4560546875,1.9677734375
154,0.186,IMU2,5.365853658536586,-9.634146341463415,0.6097560975609757,-4.330078125,0.490234375,1.9365234375
155,0.196,IMU0,1.8902439024390245,-3.536585365853659,-4.024390243902439,-4.2578125,0.4951171875,2.009765625
156,0.196,IMU1,4.878048780487806,-5.121951219512195,-3.7195121951219514,-4.2275390625,0.4775390625,1.9775390625
157,0.196,IMU2,2.5609756097560976,-4.085365853658537,-4.146341463414634,-4.259765625,0.4765625,1.9501953125
158,0.206,IMU0,1.4634146341463417,-3.658536585365854,-1.9512195121951221,-4.2529296875,0.4404296875,1.931640625
159,0.206,IMU1,5.426829268292684,-5.2439024390243905,-1.707317073170732,-4.2265625,0.3671875,1.9375
160,0.206,IMU2,2.378048780487805,-4.024390243902439,-2.073170731707317,-4.255859375,0.408203125,1.912109375
161,0.216,IMU0,4.634146341463415,-4.329268292682928,4.2682926829268295,-4.1640625,0.47265625,1.9267578125
162,0.216,IMU1,9.146341463414634,-6.219512195121951,4.390243902439025,-4.13671875,0.4091796875,1.9462890625
163,0.216,IMU2,4.878048780487806,-5.609756097560976,4.085365853658537,-4.1748046875,0.4462890625,1.9169921875
164,0.226,IMU0,2.378048780487805,0.6097560975609757,-0.9146341463414634,-4.126953125,0.439453125,1.908203125
165,0.226,IMU1,4.634146341463415,-1.707317073170732,-0.9146341463414634,-4.099609375,0.3779296875,1.9306640625
166,0.226,IMU2,3.5975609756097566,-0.426829268292683,-1.402439024390244,-4.1376953125,0.416015625,1.8955078125
167,0.236,IMU0,1.5853658536585367,-0.12195121951219513,-0.9756097560975611,-4.0966796875,0.4140625,1.8388671875
168,0.236,IMU1,3.353658536585366,-1.829268292682927,-0.6707317073170732,-4.0693359375,0.353515625,1.8486328125
169,0.236,IMU2,2.6219512195121952,-0.48780487804878053,-1.1585365853658538,-4.1015625,0.3896484375,1.822265625
170,0.246,IMU0,1.0365853658536586,-3.353658536585366,0.1829268292682927,-4.076171875,0.4482421875,1.80859375
171,0.246,IMU1,1.6463414634146343,-5.853658536585367,0.6097560975609757,-4.05078125,0.39453125,1.794921875
172,0.246,IMU2,2.7439024390243905,-4.2682926829268295,-0.1829268292682927,-4.0830078125,0.4296875,1.76953125
173,0.256,IMU0,-1.5853658536585367,-6.463414634146342,-3.8414634146341466,-3.9560546875,0.419921875,1.7333984375
174,0.256,IMU1,0.24390243902439027,-8.597560975609756,-3.536585365853659,-3.9228515625,0.3759765625,1.736328125
175,0.256,IMU2,-0.6097560975609757,-6.707317073170732,-4.146341463414634,-3.951171875,0.4072265625,1.705078125
176,0.266,IMU0,-1.402439024390244,-8.231707317073171,-0.6097560975609757,-3.8359375,0.3837890625,1.6552734375
177,0.266,IMU1,0.426829268292683,-9.695121951219512,-0.1829268292682927,-3.806640625,0.3671875,1.677734375
178,0.266,IMU2,0.0,-7.865853658536586,-0.7926829268292683,-3.83203125,0.3974609375,1.654296875
179,0.276,IMU0,-1.7682926829268295,-4.024390243902439,1.524390243902439,-3.8125,0.3916015625,1.6494140625
180,0.276,IMU1,1.4634146341463417,-5.487804878048781,1.9512195121951221,-3.78515625,0.3720703125,1.650390625
181,0.276,IMU2,0.0,-4.2682926829268295,1.402439024390244,-3.80859375,0.404296875,1.630859375
182,0.286,IMU0,-1.5853658536585367,-2.378048780487805,3.536585365853659,-3.7939453125,0.40625,1.583984375
183,0.286,IMU1,0.24390243902439027,-3.5975609756097566,3.780487804878049,-3.763671875,0.3974609375,1.5966796875
184,0.286,IMU2,-0.12195121951219513,-2.7439024390243905,3.1707317073170733,-3.7939453125,0.4306640625,1.5751953125
185,0.296,IMU0,-2.5609756097560976,-0.30487804878048785,3.414634146341464,-3.7900390625,0.44921875,1.5791015625
186,0.296,IMU1,0.1829268292682927,-2.3170731707317076,3.353658536585366,-3.765625,0.4287109375,1.6025390625
187,0.296,IMU2,-1.0975609756097562,-1.2195121951219514,2.8658536585365857,-3.798828125,0.4638671875,1.580078125
188,0.306,IMU0,-4.75609756097561,-1.2804878048780488,-1.1585365853658538,-3.7802734375,0.412109375,1.5498046875
189,0.306,IMU1,-2.682926829268293,-2.6219512195121952,-1.0975609756097562,-3.7451171875,0.39453125,1.572265625
190,0.306,IMU2,-3.658536585365854,-1.9512195121951221,-1.524390243902439,-3.7724609375,0.4326171875,1.5458984375
191,0.316,IMU0,-4.085365853658537,-3.7195121951219514,1.829268292682927,-3.6826171875,0.4208984375,1.544921875
192,0.316,IMU1,-2.3170731707317076,-4.207317073170732,1.829268292682927,-3.6552734375,0.400390625,1.583984375
193,0.316,IMU2,-3.1097560975609757,-2.9268292682926833,1.402439024390244,-3.685546875,0.435546875,1.546875
194,0.326,IMU0,-3.414634146341464,0.426829268292683,0.24390243902439027,-3.58984375,0.39453125,1.55078125
195,0.326,IMU1,-0.7317073170731708,0.06097560975609757,0.48780487804878053,-3.5693359375,0.380859375,1.591796875
196,0.326,IMU2,-2.25609756097561,1.5853658536585367,0.1829268292682927,-3.5927734375,0.41796875,1.5546875
197,0.336,IMU0,-2.073170731707317,2.3170731707317076,0.9756097560975611,-3.533203125,0.3681640625,1.53515625
198,0.336,IMU1,1.1585365853658538,2.5,0.853658536585366,-3.5146484375,0.33984375,1.53515625
199,0.336,IMU2,-1.1585365853658538,3.414634146341464,0.426829268292683,-3.53515625,0.3779296875,1.5205078125
200,0.346,IMU0,-1.1585365853658538,5.0,-1.2195121951219514,-3.490234375,0.447265625,1.5087890625
201,0.346,IMU1,3.1707317073170733,4.695121951219512,-1.5853658536585367,-3.4892578125,0.41015625,1.4990234375
202,0.346,IMU2,-0.06097560975609757,6.7682926829268295,-1.9512195121951221,-3.517578125,0.44140625,1.5
203,0.356,IMU0,-0.06097560975609757,7.500000000000001,-5.487804878048781,-3.5029296875,0.47265625,1.5361328125
204,0.356,IMU1,4.146341463414634,6.52439024390244,-5.2439024390243905,-3.48046875,0.4228515625,1.5126953125
205,0.356,IMU2,1.0365853658536586,8.536585365853659,-5.487804878048781,-3.49609375,0.4482421875,1.5244140625
206,0.366,IMU0,-0.06097560975609757,7.500000000000001,-5.487804878048781,-3.5029296875,0.47265625,1.5361328125
207,0.366,IMU1,4.878048780487806,9.390243902439025,-1.2195121951219514,-3.3681640625,0.4208984375,1.5029296875
208,0.366,IMU2,2.987804878048781,10.792682926829269,-1.5853658536585367,-3.38671875,0.4443359375,1.4775390625
209,0.376,IMU0,3.353658536585366,17.743902439024392,-1.2804878048780488,-3.2177734375,0.53125,1.4619140625
210,0.376,IMU1,5.975609756097562,16.890243902439025,-1.2804878048780488,-3.2099609375,0.48046875,1.4736328125
211,0.376,IMU2,4.085365853658537,19.146341463414636,-1.829268292682927,-3.2509765625,0.490234375,1.427734375
212,0.386,IMU0,4.390243902439025,30.182926829268297,-7.01219512195122,-3.2021484375,0.59375,1.439453125
213,0.386,IMU1,5.487804878048781,30.0609756097561,-6.7682926829268295,-3.2041015625,0.5419921875,1.45703125
214,0.386,IMU2,5.182926829268293,31.463414634146343,-7.378048780487806,-3.2392578125,0.548828125,1.427734375
215,0.396,IMU0,3.2926829268292686,32.987804878048784,-9.329268292682928,-3.28515625,0.5615234375,1.474609375
216,0.396,IMU1,5.2439024390243905,32.6219512195122,-8.963414634146343,-3.2880859375,0.49609375,1.447265625
217,0.396,IMU2,4.451219512195122,34.146341463414636,-9.451219512195122,-3.3056640625,0.5048828125,1.4541015625
218,0.406,IMU0,4.207317073170732,27.865853658536587,-2.25609756097561,-3.2880859375,0.578125,1.5078125
219,0.406,IMU1,7.439024390243903,25.731707317073173,-1.8902439024390245,-3.2763671875,0.529296875,1.47265625
220,0.406,IMU2,4.817073170731708,26.82926829268293,-2.073170731707317,-3.291015625,0.5419921875,1.48046875
221,0.416,IMU0,0.6097560975609757,28.658536585365855,-8.902439024390244,-3.2509765625,0.63671875,1.48828125
222,0.416,IMU1,2.6219512195121952,27.5609756097561,-8.963414634146343,-3.2412109375,0.5966796875,1.5048828125
223,0.416,IMU2,0.6097560975609757,28.658536585365855,-9.51219512195122,-3.2666015625,0.6142578125,1.49609375
224,0.426,IMU0,-2.5,26.52439024390244,-7.439024390243903,-3.1591796875,0.6552734375,1.5517578125
225,0.426,IMU1,0.6707317073170732,25.000000000000004,-7.25609756097561,-3.1396484375,0.6220703125,1.6005859375
226,0.426,IMU2,-1.2804878048780488,26.402439024390247,-7.682926829268293,-3.166015625,0.6337890625,1.5341796875
227,0.436,IMU0,-2.5609756097560976,26.219512195121954,-7.01219512195122,-3.1552734375,0.6650390625,1.630859375
228,0.436,IMU1,0.426829268292683,24.878048780487806,-6.7682926829268295,-3.1435546875,0.6669921875,1.626953125
229,0.436,IMU2,-1.0975609756097562,25.914634146341466,-7.25609756097561,-3.158203125,0.6904296875,1.607421875
230,0.446,IMU0,-2.5,22.500000000000004,-6.341463414634147,-3.158203125,0.634765625,1.6484375
231,0.446,IMU1,-1.3414634146341464,22.31707317073171,-6.158536585365854,-3.138671875,0.630859375,1.6279296875
232,0.446,IMU2,-1.402439024390244,22.439024390243905,-6.52439024390244,-3.146484375,0.66015625,1.642578125
233,0.456,IMU0,-0.06097560975609757,16.76829268292683,-2.1341463414634148,-3.1513671875,0.6337890625,1.5947265625
234,0.456,IMU1,2.5,15.182926829268293,-1.829268292682927,-3.1240234375,0.6337890625,1.599609375
235,0.456,IMU2,1.402439024390244,15.609756097560977,-2.439024390243903,-3.13671875,0.6767578125,1.5693359375
236,0.466,IMU0,2.7439024390243905,7.926829268292684,-0.7926829268292683,-3.0146484375,0.703125,1.572265625
237,0.466,IMU1,4.451219512195122,8.231707317073171,-0.5487804878048781,-3.0283203125,0.6455078125,1.6083984375
238,0.466,IMU2,4.085365853658537,8.597560975609756,-1.0365853658536586,-3.0224609375,0.705078125,1.5478515625
239,0.476,IMU0,2.6219512195121952,7.500000000000001,-2.073170731707317,-2.783203125,0.646484375,1.5732421875
240,0.476,IMU1,4.573170731707317,7.195121951219513,-1.9512195121951221,-2.75,0.6103515625,1.5625
241,0.476,IMU2,4.207317073170732,7.926829268292684,-2.378048780487805,-2.7421875,0.650390625,1.5849609375
242,0.486,IMU0,3.536585365853659,6.7682926829268295,-1.6463414634146343,-2.615234375,0.666015625,1.49609375
243,0.486,IMU1,5.670731707317073,6.219512195121951,-0.9756097560975611,-2.623046875,0.6513671875,1.4921875
244,0.486,IMU2,5.487804878048781,7.317073170731708,-2.0121951219512195,-2.63671875,0.6669921875,1.486328125
245,0.496,IMU0,2.987804878048781,5.853658536585367,-5.7926829268292686,-2.5625,0.66796875,1.5146484375
246,0.496,IMU1,5.182926829268293,5.670731707317073,-5.670731707317073,-2.54296875,0.6533203125,1.5615234375
247,0.496,IMU2,5.3048780487804885,5.975609756097562,-6.158536585365854,-2.5615234375,0.66796875,1.5263671875
248,0.506,IMU0,-0.24390243902439027,2.3170731707317076,-10.24390243902439,-2.458984375,0.5732421875,1.4521484375
249,0.506,IMU1,2.073170731707317,1.2804878048780488,-9.817073170731708,-2.4482421875,0.5361328125,1.4912109375
250,0.506,IMU2,1.524390243902439,2.682926829268293,-10.731707317073171,-2.4697265625,0.57421875,1.478515625
251,0.516,IMU0,0.7317073170731708,-0.6707317073170732,-4.390243902439025,-2.2900390625,0.5107421875,1.3896484375
252,0.516,IMU1,3.048780487804878,-2.0121951219512195,-4.451219512195122,-2.28515625,0.4921875,1.4345703125
253,0.516,IMU2,2.5,-0.24390243902439027,-4.573170731707317,-2.2861328125,0.517578125,1.3837890625
254,0.526,IMU0,3.963414634146342,1.3414634146341464,3.536585365853659,-2.1806640625,0.564453125,1.380859375
255,0.526,IMU1,6.890243902439025,-0.06097560975609757,3.2926829268292686,-2.1611328125,0.55859375,1.388671875
256,0.526,IMU2,4.75609756097561,1.0365853658536586,3.536585365853659,-2.169921875,0.5546875,1.353515625
257,0.536,IMU0,2.6219512195121952,0.48780487804878053,5.426829268292684,-2.048828125,0.54296875,1.3408203125
258,0.536,IMU1,5.548780487804878,-0.9756097560975611,5.426829268292684,-2.0478515625,0.513671875,1.326171875
259,0.536,IMU2,4.024390243902439,1.1585365853658538,5.2439024390243905,-2.0546875,0.5439453125,1.306640625
260,0.546,IMU0,1.8902439024390245,-4.085365853658537,7.926829268292684,-1.8701171875,0.5302734375,1.251953125
261,0.546,IMU1,4.451219512195122,-4.939024390243903,8.414634146341465,-1.8798828125,0.5537109375,1.2763671875
262,0.546,IMU2,2.5609756097560976,-4.085365853658537,7.317073170731708,-1.8935546875,0.5185546875,1.234375
263,0.556,IMU0,0.9756097560975611,-2.6219512195121952,1.6463414634146343,-1.720703125,0.564453125,1.1728515625
264,0.556,IMU1,4.024390243902439,-3.5975609756097566,1.8902439024390245,-1.72265625,0.5380859375,1.18359375
265,0.556,IMU2,1.6463414634146343,-2.439024390243903,1.1585365853658538,-1.7451171875,0.5361328125,1.212890625
266,0.566,IMU0,-0.7317073170731708,-2.1341463414634148,-4.75609756097561,-1.6396484375,0.4560546875,1.0595703125
267,0.566,IMU1,0.853658536585366,-3.7195121951219514,-4.51219512195122,-1.6455078125,0.439453125,1.0791015625
268,0.566,IMU2,0.6707317073170732,-1.0365853658536586,-5.0,-1.634765625,0.47265625,1.0771484375
269,0.576,IMU0,-3.5975609756097566,-1.8902439024390245,-3.7195121951219514,-1.6220703125,0.4130859375,1.0107421875
270,0.576,IMU1,-1.3414634146341464,-4.329268292682928,-3.536585365853659,-1.607421875,0.416015625,1.0087890625
271,0.576,IMU2,-2.3170731707317076,-1.2195121951219514,-4.024390243902439,-1.615234375,0.43359375,0.9833984375
272,0.586,IMU0,-0.1829268292682927,-4.085365853658537,-0.24390243902439027,-1.6728515625,0.443359375,0.986328125
273,0.586,IMU1,3.1097560975609757,-5.670731707317073,-0.1829268292682927,-1.6689453125,0.4267578125,0.9736328125
274,0.586,IMU2,0.426829268292683,-4.2682926829268295,-0.6097560975609757,-1.705078125,0.4345703125,0.9453125
275,0.596,IMU0,0.06097560975609757,-5.3048780487804885,-2.073170731707317,-1.6953125,0.44921875,0.9453125
276,0.596,IMU1,2.987804878048781,-6.7682926829268295,-2.1341463414634148,-1.671875,0.46875,0.962890625
277,0.596,IMU2,0.9756097560975611,-5.2439024390243905,-2.0121951219512195,-1.6806640625,0.4775390625,0.947265625
278,0.606,IMU0,-0.12195121951219513,-8.475609756097562,1.2195121951219514,-1.654296875,0.431640625,0.8486328125
279,0.606,IMU1,2.5609756097560976,-10.30487804878049,1.524390243902439,-1.66015625,0.388671875,0.8486328125
280,0.606,IMU2,0.48780487804878053,-8.292682926829269,0.853658536585366,-1.677734375,0.390625,0.8359375
281,0.616,IMU0,-0.5487804878048781,-8.109756097560977,4.207317073170732,-1.6689453125,0.3671875,0.912109375
282,0.616,IMU1,2.987804878048781,-10.182926829268293,4.146341463414634,-1.6669921875,0.3662109375,0.8916015625
283,0.616,IMU2,0.6707317073170732,-9.26829268292683,3.5975609756097566,-1.6787109375,0.376953125,0.8662109375
284,0.626,IMU0,0.48780487804878053,-3.536585365853659,5.487804878048781,-1.671875,0.4287109375,0.9013671875
285,0.626,IMU1,3.658536585365854,-5.2439024390243905,5.731707317073171,-1.6591796875,0.4306640625,0.9267578125
286,0.626,IMU2,1.402439024390244,-3.2926829268292686,5.060975609756098,-1.6806640625,0.4326171875,0.9140625
287,0.636,IMU0,-0.853658536585366,-0.853658536585366,3.1707317073170733,-1.716796875,0.4169921875,0.8818359375
288,0.636,IMU1,2.5609756097560976,-1.707317073170732,3.353658536585366,-1.7080078125,0.4130859375,0.923828125
289,0.636,IMU2,0.6707317073170732,0.426829268292683,2.9268292682926833,-1.728515625,0.423828125,0.91015625
290,0.646,IMU0,-1.829268292682927,-0.7317073170731708,1.3414634146341464,-1.7412109375,0.4404296875,0.9326171875
291,0.646,IMU1,1.9512195121951221,-1.707317073170732,1.5853658536585367,-1.744140625,0.421875,0.9150390625
292,0.646,IMU2,-0.853658536585366,0.426829268292683,0.7926829268292683,-1.763671875,0.431640625,0.9111328125
293,0.656,IMU0,-1.0975609756097562,-0.9146341463414634,0.3658536585365854,-1.8388671875,0.412109375,0.947265625
294,0.656,IMU1,2.378048780487805,-1.3414634146341464,0.48780487804878053,-1.8427734375,0.37890625,0.943359375
295,0.656,IMU2,-0.24390243902439027,0.6097560975609757,0.12195121951219513,-1.861328125,0.3876953125,0.9326171875
296,0.666,IMU0,-1.8902439024390245,-0.24390243902439027,-0.7317073170731708,-1.890625,0.365234375,0.953125
297,0.666,IMU1,1.707317073170732,-1.7682926829268295,-0.7317073170731708,-1.865234375,0.3974609375,0.96875
298,0.666,IMU2,-0.6707317073170732,0.30487804878048785,-1.1585365853658538,-1.8798828125,0.4052734375,0.9365234375
299,0.676,IMU0,-1.2195121951219514,-5.731707317073171,2.073170731707317,-1.884765625,0.44140625,0.8994140625
300,0.676,IMU1,2.439024390243903,-7.134146341463415,2.25609756097561,-1.8818359375,0.4140625,0.955078125
301,0.676,IMU2,-0.24390243902439027,-5.3048780487804885,1.829268292682927,-1.9013671875,0.4248046875,0.94140625
302,0.686,IMU0,-0.30487804878048785,-4.329268292682928,0.30487804878048785,-1.89453125,0.421875,0.9384765625
303,0.686,IMU1,2.3170731707317076,-5.548780487804878,0.24390243902439027,-1.884765625,0.4130859375,0.962890625
304,0.686,IMU2,0.0,-3.658536585365854,-0.1829268292682927,-1.8994140625,0.4189453125,0.9453125
305,0.696,IMU0,1.2195121951219514,-2.5609756097560976,3.231707317073171,-1.826171875,0.4560546875,0.9287109375
306,0.696,IMU1,3.780487804878049,-4.2682926829268295,3.231707317073171,-1.8056640625,0.44921875,0.9423828125
307,0.696,IMU2,1.829268292682927,-2.682926829268293,2.7439024390243905,-1.8212890625,0.455078125,0.9111328125
308,0.706,IMU0,1.1585365853658538,-2.9268292682926833,2.987804878048781,-1.765625,0.4384765625,0.9150390625
309,0.706,IMU1,3.536585365853659,-4.573170731707317,3.231707317073171,-1.7666015625,0.4306640625,0.9697265625
310,0.706,IMU2,1.1585365853658538,-2.682926829268293,2.7439024390243905,-1.7841796875,0.435546875,0.943359375
311,0.716,IMU0,1.829268292682927,-3.658536585365854,2.1951219512195124,-1.681640625,0.5068359375,0.865234375
312,0.716,IMU1,4.146341463414634,-5.487804878048781,2.378048780487805,-1.68359375,0.4921875,0.8984375
313,0.716,IMU2,1.9512195121951221,-4.146341463414634,1.9512195121951221,-1.6962890625,0.5009765625,0.884765625
314,0.726,IMU0,-0.7926829268292683,-3.414634146341464,-3.048780487804878,-1.6025390625,0.4775390625,0.875
315,0.726,IMU1,2.0121951219512195,-4.51219512195122,-3.658536585365854,-1.623046875,0.49609375,0.8828125
316,0.726,IMU2,0.0,-3.1097560975609757,-2.987804878048781,-1.650390625,0.4970703125,0.88671875
317,0.736,IMU0,-3.048780487804878,-1.0975609756097562,-8.658536585365855,-1.599609375,0.525390625,0.8818359375
318,0.736,IMU1,-0.6707317073170732,-1.8902439024390245,-8.292682926829269,-1.599609375,0.4912109375,0.8818359375
319,0.736,IMU2,-2.6219512195121952,-1.3414634146341464,-8.841463414634147,-1.6083984375,0.5146484375,0.865234375
320,0.746,IMU0,-2.1341463414634148,2.5,-5.670731707317073,-1.6044921875,0.4580078125,0.869140625
321,0.746,IMU1,-0.3658536585365854,1.1585365853658538,-5.0,-1.583984375,0.4658203125,0.869140625
322,0.746,IMU2,-1.6463414634146343,1.9512195121951221,-6.036585365853659,-1.609375,0.4658203125,0.8544921875
323,0.756,IMU0,-0.06097560975609757,-1.8902439024390245,1.9512195121951221,-1.57421875,0.4775390625,0.7900390625
324,0.756,IMU1,1.4634146341463417,-3.1097560975609757,2.5,-1.578125,0.4677734375,0.80078125
325,0.756,IMU2,0.853658536585366,-1.829268292682927,1.524390243902439,-1.5791015625,0.482421875,0.7978515625
326,0.766,IMU0,0.7317073170731708,-3.780487804878049,4.207317073170732,-1.482421875,0.494140625,0.818359375
327,0.766,IMU1,3.1707317073170733,-5.487804878048781,4.51219512195122,-1.462890625,0.4716796875,0.7626953125
328,0.766,IMU2,1.2195121951219514,-3.9024390243902443,3.9024390243902443,-1.4970703125,0.4931640625,0.77734375
329,0.776,IMU0,-0.3658536585365854,-3.2926829268292686,1.6463414634146343,-1.33984375,0.4560546875,0.7265625
330,0.776,IMU1,1.707317073170732,-4.573170731707317,1.5853658536585367,-1.333984375,0.4609375,0.7197265625
331,0.776,IMU2,0.5487804878048781,-3.9024390243902443,1.402439024390244,-1.361328125,0.4443359375,0.7158203125
332,0.786,IMU0,-0.7317073170731708,-0.7926829268292683,1.707317073170732,-1.279296875,0.4697265625,0.6533203125
333,0.786,IMU1,2.378048780487805,-1.707317073170732,1.8902439024390245,-1.2724609375,0.439453125,0.7001953125
334,0.786,IMU2,0.9756097560975611,-1.0365853658536586,1.3414634146341464,-1.287109375,0.4697265625,0.650390625
335,0.796,IMU0,-0.12195121951219513,2.073170731707317,0.3658536585365854,-1.2822265625,0.416015625,0.658203125
336,0.796,IMU1,2.073170731707317,1.2804878048780488,0.7317073170731708,-1.2705078125,0.44921875,0.6484375
337,0.796,IMU2,0.9756097560975611,2.073170731707317,0.06097560975609757,-1.2939453125,0.4111328125,0.6513671875
338,0.806,IMU0,1.0975609756097562,0.24390243902439027,2.3170731707317076,-1.259765625,0.4677734375,0.65234375
339,0.806,IMU1,2.987804878048781,-0.9146341463414634,2.5,-1.2646484375,0.4091796875,0.6435546875
340,0.806,IMU2,2.439024390243903,0.24390243902439027,2.0121951219512195,-1.2724609375,0.466796875,0.6259765625
341,0.816,IMU0,0.7317073170731708,-0.7926829268292683,-0.24390243902439027,-1.19921875,0.416015625,0.580078125
342,0.816,IMU1,2.804878048780488,-2.378048780487805,-0.12195121951219513,-1.19140625,0.4482421875,0.5888671875
343,0.816,IMU2,1.6463414634146343,-0.5487804878048781,-0.426829268292683,-1.21875,0.4130859375,0.58203125
344,0.826,IMU0,-0.6707317073170732,4.085365853658537,-4.390243902439025,-1.1337890625,0.4814453125,0.595703125
345,0.826,IMU1,1.8902439024390245,3.658536585365854,-4.146341463414634,-1.140625,0.45703125,0.611328125
346,0.826,IMU2,0.3658536585365854,4.451219512195122,-4.573170731707317,-1.146484375,0.4755859375,0.576171875
347,0.836,IMU0,-0.9146341463414634,12.80487804878049,-3.1097560975609757,-1.125,0.384765625,0.5888671875
348,0.836,IMU1,1.6463414634146343,11.951219512195124,-2.682926829268293,-1.1142578125,0.3798828125,0.6171875
349,0.836,IMU2,0.426829268292683,13.414634146341465,-3.414634146341464,-1.1328125,0.380859375,0.5830078125
350,0.846,IMU0,3.658536585365854,19.634146341463417,3.780487804878049,-1.1640625,0.4091796875,0.6328125
351,0.846,IMU1,6.2804878048780495,18.475609756097562,4.75609756097561,-1.1474609375,0.4443359375,0.6455078125
352,0.846,IMU2,5.2439024390243905,20.182926829268293,3.5975609756097566,-1.15625,0.4052734375,0.6396484375
353,0.856,IMU0,5.853658536585367,23.353658536585368,8.414634146341465,-1.220703125,0.4736328125,0.73046875
354,0.856,IMU1,8.597560975609756,22.134146341463417,8.78048780487805,-1.2265625,0.4404296875,0.69140625
355,0.856,IMU2,7.500000000000001,23.84146341463415,8.231707317073171,-1.23046875,0.46484375,0.7177734375
356,0.866,IMU0,5.731707317073171,20.0609756097561,8.719512195121952,-1.2314453125,0.388671875,0.65625
357,0.866,IMU1,8.719512195121952,18.902439024390244,8.963414634146343,-1.216796875,0.4130859375,0.6630859375
358,0.866,IMU2,7.25609756097561,20.731707317073173,8.536585365853659,-1.2392578125,0.388671875,0.646484375
359,0.876,IMU0,5.975609756097562,17.5609756097561,12.195121951219512,-1.208984375,0.46875,0.66796875
360,0.876,IMU1,8.841463414634147,16.70731707317073,12.500000000000002,-1.21484375,0.453125,0.7158203125
361,0.876,IMU2,7.439024390243903,18.231707317073173,12.073170731707318,-1.2236328125,0.4677734375,0.68359375
362,0.886,IMU0,5.487804878048781,17.926829268292686,10.487804878048781,-1.23046875,0.3701171875,0.716796875
363,0.886,IMU1,8.048780487804878,17.073170731707318,10.670731707317074,-1.2236328125,0.3798828125,0.6845703125
364,0.886,IMU2,6.829268292682928,18.658536585365855,10.24390243902439,-1.2412109375,0.3623046875,0.6982421875
365,0.896,IMU0,5.365853658536586,16.585365853658537,10.182926829268293,-1.1826171875,0.4296875,0.6484375
366,0.896,IMU1,7.073170731707318,16.52439024390244,10.548780487804878,-1.1865234375,0.419921875,0.6552734375
367,0.896,IMU2,6.951219512195123,17.5609756097561,10.0,-1.1923828125,0.43359375,0.62890625
368,0.906,IMU0,4.390243902439025,16.585365853658537,10.426829268292684,-1.1484375,0.43359375,0.6552734375
369,0.906,IMU1,6.158536585365854,16.219512195121954,10.426829268292684,-1.14453125,0.4189453125,0.6943359375
370,0.906,IMU2,5.182926829268293,16.82926829268293,10.121951219512196,-1.173828125,0.4306640625,0.654296875
371,0.916,IMU0,5.3048780487804885,20.914634146341466,8.170731707317074,-1.091796875,0.4560546875,0.6826171875
372,0.916,IMU1,8.109756097560977,20.0,8.475609756097562,-1.09375,0.474609375,0.6708984375
373,0.916,IMU2,6.2804878048780495,20.975609756097562,8.109756097560977,-1.099609375,0.455078125,0.6845703125
374,0.926,IMU0,4.085365853658537,23.353658536585368,5.7926829268292686,-1.0576171875,0.412109375,0.681640625
375,0.926,IMU1,6.402439024390245,22.743902439024392,6.158536585365854,-1.0654296875,0.37109375,0.6689453125
376,0.926,IMU2,4.878048780487806,23.658536585365855,5.670731707317073,-1.0673828125,0.3994140625,0.654296875
377,0.936,IMU0,2.987804878048781,19.81707317073171,7.682926829268293,-1.0185546875,0.3076171875,0.6083984375
378,0.936,IMU1,4.451219512195122,19.02439024390244,7.8048780487804885,-1.005859375,0.33203125,0.6630859375
379,0.936,IMU2,3.9024390243902443,19.573170731707318,7.378048780487806,-1.0361328125,0.318359375,0.626953125
380,0.946,IMU0,3.5975609756097566,20.60975609756098,7.195121951219513,-1.0458984375,0.421875,0.650390625
381,0.946,IMU1,5.487804878048781,19.512195121951223,7.439024390243903,-1.056640625,0.380859375,0.62890625
382,0.946,IMU2,4.817073170731708,20.60975609756098,6.951219512195123,-1.0654296875,0.400390625,0.609375
383,0.956,IMU0,3.1707317073170733,20.60975609756098,5.670731707317073,-1.1337890625,0.3603515625,0.7236328125
384,0.956,IMU1,5.853658536585367,19.085365853658537,5.670731707317073,-1.1240234375,0.39453125,0.712890625
385,0.956,IMU2,5.182926829268293,21.03658536585366,5.2439024390243905,-1.1494140625,0.36328125,0.7412109375
386,0.966,IMU0,1.6463414634146343,21.28048780487805,-0.06097560975609757,-1.1357421875,0.4677734375,0.6796875
387,0.966,IMU1,3.1097560975609757,20.975609756097562,0.24390243902439027,-1.138671875,0.4384765625,0.7412109375
388,0.966,IMU2,2.682926829268293,22.31707317073171,-0.24390243902439027,-1.1513671875,0.462890625,0.7109375
389,0.976,IMU0,-0.3658536585365854,18.902439024390244,-2.3170731707317076,-1.1318359375,0.38671875,0.76953125
390,0.976,IMU1,2.378048780487805,17.621951219512198,-2.5,-1.1328125,0.416015625,0.7587890625
391,0.976,IMU2,1.4634146341463417,19.32926829268293,-2.7439024390243905,-1.15625,0.3984375,0.7373046875
392,0.986,IMU0,-0.6097560975609757,17.743902439024392,-2.804878048780488,-1.1220703125,0.453125,0.84375
393,0.986,IMU1,1.3414634146341464,16.76829268292683,-2.25609756097561,-1.109375,0.43359375,0.8349609375
394,0.986,IMU2,0.1829268292682927,18.04878048780488,-2.804878048780488,-1.119140625,0.439453125,0.8251953125
395,0.996,IMU0,1.0365853658536586,22.378048780487806,-0.30487804878048785,-1.060546875,0.458984375,0.8515625
396,0.996,IMU1,3.353658536585366,21.585365853658537,-0.1829268292682927,-1.0576171875,0.451171875,0.8935546875
397,0.996,IMU2,2.5609756097560976,23.170731707317074,-0.5487804878048781,-1.0751953125,0.45703125,0.8876953125
398,1.006,IMU0,4.75609756097561,24.26829268292683,0.48780487804878053,-1.12890625,0.515625,0.8828125
399,1.006,IMU1,6.585365853658537,23.04878048780488,0.48780487804878053,-1.1220703125,0.5576171875,0.8505859375
400,1.006,IMU2,5.487804878048781,24.512195121951223,-0.06097560975609757,-1.1240234375,0.5458984375,0.822265625
401,1.016,IMU0,2.439024390243903,21.890243902439025,-3.963414634146342,-1.0205078125,0.513671875,0.7880859375
402,1.016,IMU1,5.487804878048781,20.914634146341466,-3.963414634146342,-1.005859375,0.4853515625,0.7783203125
403,1.016,IMU2,3.963414634146342,22.682926829268293,-4.2682926829268295,-1.0234375,0.4921875,0.767578125
404,1.026,IMU0,3.7195121951219514,17.98780487804878,-0.12195121951219513,-0.8505859375,0.578125,0.75390625
405,1.026,IMU1,6.52439024390244,16.402439024390244,0.48780487804878053,-0.8671875,0.5751953125,0.7998046875
406,1.026,IMU2,5.3048780487804885,18.414634146341466,0.12195121951219513,-0.888671875,0.5703125,0.7822265625
407,1.036,IMU0,5.670731707317073,20.853658536585368,-2.1951219512195124,-0.8046875,0.609375,0.783203125
408,1.036,IMU1,7.926829268292684,20.121951219512198,-2.1341463414634148,-0.7978515625,0.599609375,0.7548828125
409,1.036,IMU2,7.073170731707318,21.707317073170735,-2.7439024390243905,-0.7958984375,0.5986328125,0.7470703125
410,1.046,IMU0,6.463414634146342,20.670731707317074,0.1829268292682927,-0.6923828125,0.580078125,0.712890625
411,1.046,IMU1,8.109756097560977,19.390243902439025,0.6707317073170732,-0.701171875,0.5537109375,0.7314453125
412,1.046,IMU2,7.682926829268293,21.402439024390247,0.12195121951219513,-0.7138671875,0.548828125,0.720703125
413,1.056,IMU0,5.365853658536586,23.84146341463415,-3.1707317073170733,-0.6904296875,0.6142578125,0.6962890625
414,1.056,IMU1,7.560975609756098,22.682926829268293,-2.6219512195121952,-0.7041015625,0.6484375,0.712890625
415,1.056,IMU2,7.073170731707318,25.000000000000004,-3.1097560975609757,-0.7158203125,0.6455078125,0.68359375
416,1.066,IMU0,4.51219512195122,29.81707317073171,-5.487804878048781,-0.6845703125,0.580078125,0.7509765625
417,1.066,IMU1,6.2804878048780495,28.658536585365855,-4.878048780487806,-0.7001953125,0.5869140625,0.740234375
418,1.066,IMU2,6.097560975609756,30.60975609756098,-5.487804878048781,-0.7119140625,0.583984375,0.7275390625
419,1.076,IMU0,4.146341463414634,35.426829268292686,-9.634146341463415,-0.7626953125,0.595703125,0.7724609375
420,1.076,IMU1,5.975609756097562,34.390243902439025,-9.085365853658537,-0.7607421875,0.5771484375,0.734375
421,1.076,IMU2,5.365853658536586,36.15853658536586,-9.573170731707318,-0.7705078125,0.576171875,0.7314453125
422,1.086,IMU0,7.560975609756098,32.37804878048781,-6.829268292682928,-0.787109375,0.57421875,0.7998046875
423,1.086,IMU1,10.060975609756099,31.52439024390244,-6.707317073170732,-0.7783203125,0.591796875,0.783203125
424,1.086,IMU2,8.719512195121952,33.59756097560976,-7.073170731707318,-0.7822265625,0.5869140625,0.7724609375
425,1.096,IMU0,9.02439024390244,30.975609756097565,-5.731707317073171,-0.7587890625,0.537109375,0.7958984375
426,1.096,IMU1,11.463414634146343,29.87804878048781,-5.426829268292684,-0.763671875,0.517578125,0.8427734375
427,1.096,IMU2,9.756097560975611,31.646341463414636,-5.7926829268292686,-0.7724609375,0.5146484375,0.8291015625
428,1.106,IMU0,10.0,27.31707317073171,-8.048780487804878,-0.7685546875,0.537109375,0.77734375
429,1.106,IMU1,12.74390243902439,25.975609756097562,-7.500000000000001,-0.779296875,0.5771484375,0.7958984375
430,1.106,IMU2,11.646341463414634,27.500000000000004,-7.987804878048781,-0.7919921875,0.5703125,0.7783203125
431,1.116,IMU0,11.585365853658537,28.04878048780488,-8.353658536585366,-0.7626953125,0.5341796875,0.826171875
432,1.116,IMU1,13.78048780487805,27.378048780487806,-7.987804878048781,-0.7685546875,0.513671875,0.798828125
433,1.116,IMU2,13.170731707317074,28.902439024390247,-8.475609756097562,-0.7783203125,0.5185546875,0.794921875
434,1.126,IMU0,11.707317073170733,29.02439024390244,-9.329268292682928,-0.7197265625,0.505859375,0.7705078125
435,1.126,IMU1,12.865853658536587,28.475609756097562,-8.963414634146343,-0.716796875,0.5126953125,0.779296875
436,1.126,IMU2,13.414634146341465,29.695121951219516,-9.51219512195122,-0.720703125,0.5048828125,0.7626953125
437,1.136,IMU0,13.170731707317074,28.84146341463415,-7.073170731707318,-0.666015625,0.486328125,0.798828125
438,1.136,IMU1,14.817073170731708,28.170731707317074,-6.219512195121951,-0.6826171875,0.5146484375,0.8115234375
439,1.136,IMU2,14.207317073170733,29.26829268292683,-6.890243902439025,-0.7021484375,0.50390625,0.8193359375
440,1.146,IMU0,14.51219512195122,34.81707317073171,-7.987804878048781,-0.734375,0.44921875,0.8935546875
441,1.146,IMU1,15.487804878048783,34.146341463414636,-7.865853658536586,-0.716796875,0.4296875,0.884765625
442,1.146,IMU2,14.817073170731708,35.30487804878049,-8.170731707317074,-0.716796875,0.4375,0.865234375
443,1.156,IMU0,14.329268292682928,37.926829268292686,-6.036585365853659,-0.8251953125,0.435546875,0.8291015625
444,1.156,IMU1,15.30487804878049,36.463414634146346,-5.182926829268293,-0.8193359375,0.455078125,0.8671875
445,1.156,IMU2,14.573170731707318,38.04878048780488,-5.731707317073171,-0.8388671875,0.4404296875,0.8349609375
446,1.166,IMU0,15.670731707317074,36.768292682926834,-1.6463414634146343,-0.86328125,0.5380859375,0.8310546875
447,1.166,IMU1,16.82926829268293,35.73170731707317,-1.1585365853658538,-0.8720703125,0.533203125,0.853515625
448,1.166,IMU2,16.646341463414636,37.37804878048781,-1.5853658536585367,-0.875,0.5341796875,0.8740234375
449,1.176,IMU0,11.829268292682928,37.01219512195122,-5.853658536585367,-0.9150390625,0.568359375,0.8857421875
450,1.176,IMU1,12.987804878048781,36.524390243902445,-4.939024390243903,-0.919921875,0.5888671875,0.87890625
451,1.176,IMU2,12.80487804878049,37.86585365853659,-5.731707317073171,-0.9453125,0.5771484375,0.8671875
452,1.186,IMU0,5.7926829268292686,37.07317073170732,-12.80487804878049,-0.9794921875,0.486328125,0.8427734375
453,1.186,IMU1,6.829268292682928,36.28048780487805,-12.317073170731708,-0.9765625,0.458984375,0.84375
454,1.186,IMU2,7.134146341463415,38.04878048780488,-12.865853658536587,-0.982421875,0.474609375,0.8212890625
455,1.196,IMU0,4.085365853658537,29.81707317073171,-8.414634146341465,-0.98046875,0.4638671875,0.828125
456,1.196,IMU1,5.3048780487804885,28.84146341463415,-8.048780487804878,-0.978515625,0.4697265625,0.8701171875
457,1.196,IMU2,5.182926829268293,30.182926829268297,-8.536585365853659,-0.98828125,0.4609375,0.837890625
458,1.206,IMU0,3.1707317073170733,28.10975609756098,-4.390243902439025,-0.8408203125,0.4599609375,0.8681640625
459,1.206,IMU1,4.207317073170732,27.378048780487806,-4.207317073170732,-0.833984375,0.466796875,0.8408203125
460,1.206,IMU2,4.2682926829268295,28.59756097560976,-4.573170731707317,-0.83984375,0.458984375,0.8671875
461,1.216,IMU0,4.2682926829268295,30.60975609756098,-0.6097560975609757,-0.6728515625,0.447265625,0.83984375
462,1.216,IMU1,5.548780487804878,29.39024390243903,-0.24390243902439027,-0.677734375,0.4736328125,0.84765625
463,1.216,IMU2,5.2439024390243905,31.219512195121954,-0.7317073170731708,-0.6904296875,0.4501953125,0.8310546875
464,1.226,IMU0,4.75609756097561,36.707317073170735,-3.2926829268292686,-0.599609375,0.4052734375,0.8154296875
465,1.226,IMU1,6.158536585365854,35.36585365853659,-2.987804878048781,-0.6025390625,0.3994140625,0.859375
466,1.226,IMU2,5.426829268292684,37.5,-3.353658536585366,-0.60546875,0.4013671875,0.8173828125
467,1.236,IMU0,3.963414634146342,39.207317073170735,-2.987804878048781,-0.5947265625,0.462890625,0.8125
468,1.236,IMU1,6.890243902439025,37.5,-2.682926829268293,-0.6005859375,0.4560546875,0.8017578125
469,1.236,IMU2,5.609756097560976,40.60975609756098,-3.1097560975609757,-0.60546875,0.4609375,0.818359375
470,1.246,IMU0,2.804878048780488,39.51219512195122,-3.963414634146342,-0.560546875,0.44921875,0.8203125
471,1.246,IMU1,5.853658536585367,38.170731707317074,-3.658536585365854,-0.5625,0.4677734375,0.8271484375
472,1.246,IMU2,4.024390243902439,40.1829268292683,-4.024390243902439,-0.578125,0.447265625,0.818359375
473,1.256,IMU0,2.3170731707317076,38.963414634146346,-4.695121951219512,-0.5322265625,0.4072265625,0.8271484375
474,1.256,IMU1,5.609756097560976,37.80487804878049,-4.329268292682928,-0.5244140625,0.4404296875,0.826171875
475,1.256,IMU2,3.4756097560975614,39.69512195121951,-4.75609756097561,-0.5458984375,0.4052734375,0.8271484375
476,1.266,IMU0,3.353658536585366,39.146341463414636,-4.51219512195122,-0.462890625,0.3857421875,0.791015625
477,1.266,IMU1,5.2439024390243905,37.6219512195122,-4.024390243902439,-0.46875,0.3740234375,0.810546875
478,1.266,IMU2,3.8414634146341466,39.390243902439025,-4.51219512195122,-0.4677734375,0.3916015625,0.787109375
479,1.276,IMU0,3.4756097560975614,34.268292682926834,-2.1341463414634148,-0.3671875,0.4765625,0.7333984375
480,1.276,IMU1,5.7926829268292686,33.35365853658537,-1.8902439024390245,-0.3876953125,0.423828125,0.7578125
481,1.276,IMU2,4.451219512195122,34.87804878048781,-2.1951219512195124,-0.3623046875,0.486328125,0.728515625
482,1.286,IMU0,3.9024390243902443,31.402439024390247,-1.402439024390244,-0.173828125,0.498046875,0.666015625
483,1.286,IMU1,6.402439024390245,29.87804878048781,-1.0365853658536586,-0.1865234375,0.4912109375,0.6796875
484,1.286,IMU2,4.51219512195122,32.01219512195122,-1.4634146341463417,-0.1806640625,0.5,0.6845703125
485,1.296,IMU0,3.9024390243902443,28.84146341463415,-1.8902439024390245,-0.0576171875,0.4921875,0.6767578125
486,1.296,IMU1,6.7682926829268295,27.31707317073171,-1.5853658536585367,-0.076171875,0.4765625,0.6552734375
487,1.296,IMU2,4.817073170731708,29.512195121951223,-2.0121951219512195,-0.072265625,0.4833984375,0.6572265625
488,1.306,IMU0,4.146341463414634,29.695121951219516,-3.658536585365854,-0.015625,0.47265625,0.638671875
489,1.306,IMU1,6.158536585365854,28.353658536585368,-3.414634146341464,-0.0283203125,0.5029296875,0.6767578125
490,1.306,IMU2,5.121951219512195,30.54878048780488,-3.780487804878049,-0.0341796875,0.474609375,0.642578125
491,1.316,IMU0,4.390243902439025,29.87804878048781,-7.134146341463415,-0.013671875,0.4482421875,0.634765625
492,1.316,IMU1,6.219512195121951,28.780487804878053,-6.951219512195123,-0.0302734375,0.421875,0.6435546875
493,1.316,IMU2,5.121951219512195,30.853658536585368,-7.25609756097561,-0.0185546875,0.4716796875,0.607421875
494,1.326,IMU0,5.365853658536586,31.09756097560976,-7.195121951219513,-0.03515625,0.4453125,0.689453125
495,1.326,IMU1,7.195121951219513,29.39024390243903,-6.646341463414635,-0.015625,0.5107421875,0.6484375
496,1.326,IMU2,6.2804878048780495,31.52439024390244,-7.134146341463415,-0.033203125,0.4521484375,0.6826171875
497,1.336,IMU0,6.402439024390245,31.89024390243903,-6.341463414634147,-0.0224609375,0.435546875,0.65625
498,1.336,IMU1,7.865853658536586,30.243902439024392,-5.914634146341464,-0.0185546875,0.4755859375,0.662109375
499,1.336,IMU2,7.439024390243903,32.43902439024391,-6.341463414634147,-0.0283203125,0.4306640625,0.6806640625
500,1.346,IMU0,6.097560975609756,29.81707317073171,-3.963414634146342,0.0400390625,0.4501953125,0.5537109375
501,1.346,IMU1,7.560975609756098,28.414634146341466,-3.4756097560975614,0.0380859375,0.4990234375,0.5693359375
502,1.346,IMU2,6.829268292682928,30.182926829268297,-4.024390243902439,0.025390625,0.455078125,0.5859375
503,1.356,IMU0,4.939024390243903,30.54878048780488,-3.414634146341464,0.0322265625,0.4775390625,0.599609375
504,1.356,IMU1,6.951219512195123,29.08536585365854,-3.1097560975609757,0.0302734375,0.5390625,0.6005859375
505,1.356,IMU2,5.914634146341464,30.975609756097565,-3.5975609756097566,0.0224609375,0.4990234375,0.60546875
506,1.366,IMU0,3.5975609756097566,31.34146341463415,-3.9024390243902443,0.0498046875,0.4306640625,0.5390625
507,1.366,IMU1,5.609756097560976,29.87804878048781,-3.414634146341464,0.0478515625,0.490234375,0.548828125
508,1.366,IMU2,4.634146341463415,31.707317073170735,-3.963414634146342,0.046875,0.4501953125,0.548828125
509,1.376,IMU0,2.682926829268293,26.463414634146343,-1.0975609756097562,0.029296875,0.423828125,0.5703125
510,1.376,IMU1,5.060975609756098,24.512195121951223,-0.7317073170731708,0.0283203125,0.4453125,0.564453125
511,1.376,IMU2,3.5975609756097566,26.158536585365855,-1.1585365853658538,0.01953125,0.4169921875,0.5771484375
512,1.386,IMU0,3.1707317073170733,25.365853658536587,1.1585365853658538,0.0625,0.458984375,0.5419921875
513,1.386,IMU1,5.609756097560976,23.658536585365855,1.5853658536585367,0.056640625,0.4716796875,0.5498046875
514,1.386,IMU2,4.573170731707317,25.60975609756098,0.9756097560975611,0.0546875,0.447265625,0.560546875
515,1.396,IMU0,2.073170731707317,23.719512195121954,0.0,0.1181640625,0.390625,0.4765625
516,1.396,IMU1,4.451219512195122,22.439024390243905,0.12195121951219513,0.1259765625,0.447265625,0.4912109375
517,1.396,IMU2,3.414634146341464,24.146341463414636,-0.3658536585365854,0.109375,0.42578125,0.4833984375
518,1.406,IMU0,1.3414634146341464,25.48780487804878,-2.6219512195121952,0.115234375,0.349609375,0.486328125
519,1.406,IMU1,3.8414634146341466,24.390243902439025,-2.3170731707317076,0.119140625,0.3974609375,0.5068359375
520,1.406,IMU2,2.682926829268293,25.914634146341466,-2.8658536585365857,0.10546875,0.3681640625,0.4873046875
521,1.416,IMU0,0.6707317073170732,29.08536585365854,-3.414634146341464,0.154296875,0.4755859375,0.486328125
522,1.416,IMU1,3.231707317073171,28.719512195121954,-3.1707317073170733,0.1318359375,0.43359375,0.4970703125
523,1.416,IMU2,2.073170731707317,30.54878048780488,-3.658536585365854,0.125,0.423828125,0.513671875
524,1.426,IMU0,-0.30487804878048785,31.09756097560976,-5.731707317073171,0.1279296875,0.419921875,0.4638671875
525,1.426,IMU1,1.7682926829268295,30.000000000000004,-5.548780487804878,0.12109375,0.4638671875,0.494140625
526,1.426,IMU2,0.6707317073170732,32.01219512195122,-5.975609756097562,0.111328125,0.4501953125,0.474609375
527,1.436,IMU0,0.0,31.707317073170735,-4.817073170731708,0.080078125,0.404296875,0.478515625
528,1.436,IMU1,2.5,30.54878048780488,-4.390243902439025,0.072265625,0.3828125,0.4853515625
529,1.436,IMU2,1.4634146341463417,32.43902439024391,-4.878048780487806,0.0634765625,0.37109375,0.470703125
530,1.446,IMU0,0.7317073170731708,31.707317073170735,-3.963414634146342,0.111328125,0.513671875,0.4716796875
531,1.446,IMU1,2.987804878048781,30.975609756097565,-3.5975609756097566,0.08984375,0.4404296875,0.494140625
532,1.446,IMU2,1.524390243902439,32.86585365853659,-4.024390243902439,0.0859375,0.4384765625,0.50390625
533,1.456,IMU0,1.2195121951219514,31.34146341463415,-4.024390243902439,0.0927734375,0.3955078125,0.4658203125
534,1.456,IMU1,3.1097560975609757,29.939024390243905,-3.8414634146341466,0.0966796875,0.482421875,0.482421875
535,1.456,IMU2,2.0121951219512195,32.07317073170732,-4.2682926829268295,0.0908203125,0.4677734375,0.451171875
536,1.466,IMU0,1.2804878048780488,34.51219512195122,-5.060975609756098,0.044921875,0.4091796875,0.5244140625
537,1.466,IMU1,2.987804878048781,33.35365853658537,-4.634146341463415,0.044921875,0.41015625,0.5126953125
538,1.466,IMU2,2.1341463414634148,35.1829268292683,-5.121951219512195,0.041015625,0.39453125,0.5146484375
539,1.476,IMU0,0.6707317073170732,35.1829268292683,-5.121951219512195,0.017578125,0.400390625,0.5126953125
540,1.476,IMU1,2.3170731707317076,33.78048780487805,-4.878048780487806,0.0185546875,0.4755859375,0.537109375
541,1.476,IMU2,1.4634146341463417,35.670731707317074,-5.426829268292684,0.0146484375,0.4609375,0.529296875
542,1.486,IMU0,0.6707317073170732,35.85365853658537,-3.7195121951219514,-0.052734375,0.326171875,0.5703125
543,1.486,IMU1,2.9268292682926833,34.32926829268293,-3.4756097560975614,-0.0576171875,0.36328125,0.544921875
544,1.486,IMU2,2.073170731707317,35.97560975609756,-3.9024390243902443,-0.0654296875,0.3525390625,0.5224609375
545,1.496,IMU0,0.6707317073170732,32.6219512195122,-2.7439024390243905,-0.00390625,0.4990234375,0.5234375
546,1.496,IMU1,2.5,32.07317073170732,-2.3170731707317076,-0.0263671875,0.4150390625,0.5693359375
547,1.496,IMU2,1.3414634146341464,33.47560975609756,-2.804878048780488,-0.037109375,0.3974609375,0.5712890625
548,1.506,IMU0,0.9756097560975611,31.158536585365855,-2.0121951219512195,0.0126953125,0.41015625,0.5546875
549,1.506,IMU1,3.048780487804878,29.207317073170735,-1.5853658536585367,0.0263671875,0.474609375,0.5283203125
550,1.506,IMU2,1.707317073170732,30.853658536585368,-2.073170731707317,0.0224609375,0.46875,0.5029296875
551,1.516,IMU0,1.524390243902439,32.01219512195122,-1.1585365853658538,0.0078125,0.3759765625,0.58984375
552,1.516,IMU1,3.7195121951219514,30.670731707317074,-0.7926829268292683,-0.0029296875,0.3525390625,0.6220703125
553,1.516,IMU2,2.5,32.07317073170732,-1.2195121951219514,-0.009765625,0.33203125,0.626953125
554,1.526,IMU0,1.0365853658536586,30.487804878048784,-1.0975609756097562,-0.0087890625,0.3828125,0.6142578125
555,1.526,IMU1,2.8658536585365857,29.26829268292683,-0.7926829268292683,-0.001953125,0.423828125,0.6162109375
556,1.526,IMU2,1.829268292682927,30.60975609756098,-1.3414634146341464,-0.0068359375,0.4150390625,0.6044921875
557,1.536,IMU0,2.439024390243903,31.219512195121954,1.707317073170732,-0.0478515625,0.2646484375,0.6181640625
558,1.536,IMU1,4.695121951219512,29.634146341463417,1.8902439024390245,-0.048828125,0.306640625,0.6044921875
559,1.536,IMU2,3.2926829268292686,31.219512195121954,1.402439024390244,-0.056640625,0.3125,0.578125
560,1.546,IMU0,0.9146341463414634,29.146341463414636,-1.707317073170732,-0.025390625,0.4140625,0.61328125
561,1.546,IMU1,2.7439024390243905,28.353658536585368,-1.5853658536585367,-0.0537109375,0.3828125,0.6259765625
562,1.546,IMU2,2.0121951219512195,30.000000000000004,-2.1951219512195124,-0.072265625,0.34765625,0.6318359375
563,1.556,IMU0,-0.06097560975609757,29.81707317073171,-5.2439024390243905,-0.1142578125,0.263671875,0.6533203125
564,1.556,IMU1,1.5853658536585367,27.987804878048784,-5.121951219512195,-0.103515625,0.345703125,0.6591796875
565,1.556,IMU2,0.6707317073170732,29.634146341463417,-5.670731707317073,-0.1044921875,0.3447265625,0.666015625
566,1.566,IMU0,0.1829268292682927,31.34146341463415,-4.817073170731708,-0.1015625,0.380859375,0.64453125
567,1.566,IMU1,2.073170731707317,29.81707317073171,-4.573170731707317,-0.123046875,0.318359375,0.6962890625
568,1.566,IMU2,1.2195121951219514,31.646341463414636,-4.939024390243903,-0.1357421875,0.287109375,0.705078125
569,1.576,IMU0,1.2195121951219514,30.243902439024392,-3.1097560975609757,-0.111328125,0.306640625,0.65625
570,1.576,IMU1,3.353658536585366,28.292682926829272,-2.9268292682926833,-0.1005859375,0.36328125,0.662109375
571,1.576,IMU2,2.1951219512195124,29.939024390243905,-3.2926829268292686,-0.1064453125,0.3681640625,0.640625
572,1.586,IMU0,1.4634146341463417,31.280487804878053,-4.695121951219512,-0.12109375,0.2744140625,0.63671875
573,1.586,IMU1,3.4756097560975614,29.939024390243905,-4.329268292682928,-0.123046875,0.2890625,0.6708984375
574,1.586,IMU2,2.682926829268293,31.89024390243903,-4.817073170731708,-0.138671875,0.2734375,0.6435546875
575,1.596,IMU0,0.9756097560975611,31.82926829268293,-5.7926829268292686,-0.13671875,0.3115234375,0.6357421875
576,1.596,IMU1,2.987804878048781,30.30487804878049,-5.548780487804878,-0.119140625,0.369140625,0.6328125
577,1.596,IMU2,2.073170731707317,32.43902439024391,-5.914634146341464,-0.1259765625,0.3701171875,0.595703125
578,1.606,IMU0,0.6097560975609757,32.86585365853659,-7.01219512195122,-0.1630859375,0.26953125,0.626953125
579,1.606,IMU1,2.804878048780488,31.52439024390244,-6.646341463414635,-0.1669921875,0.2529296875,0.6318359375
580,1.606,IMU2,2.0121951219512195,33.41463414634146,-7.134146341463415,-0.1796875,0.26171875,0.6044921875
581,1.616,IMU0,1.2804878048780488,33.71951219512196,-4.878048780487806,-0.193359375,0.2578125,0.62890625
582,1.616,IMU1,3.2926829268292686,32.31707317073171,-4.75609756097561,-0.1865234375,0.287109375,0.625
583,1.616,IMU2,2.682926829268293,34.207317073170735,-5.0,-0.193359375,0.26171875,0.609375
584,1.626,IMU0,2.7439024390243905,31.89024390243903,-0.426829268292683,-0.2216796875,0.3037109375,0.625
585,1.626,IMU1,4.75609756097561,30.670731707317074,-0.3658536585365854,-0.2158203125,0.3310546875,0.603515625
586,1.626,IMU2,4.024390243902439,32.31707317073171,-0.6707317073170732,-0.22265625,0.3046875,0.6201171875
587,1.636,IMU0,3.048780487804878,29.08536585365854,1.0975609756097562,-0.189453125,0.2998046875,0.5986328125
588,1.636,IMU1,5.0,27.926829268292686,1.402439024390244,-0.1982421875,0.2880859375,0.6005859375
589,1.636,IMU2,4.390243902439025,29.634146341463417,0.853658536585366,-0.201171875,0.296875,0.6142578125
590,1.646,IMU0,2.1341463414634148,28.475609756097562,-0.24390243902439027,-0.2021484375,0.2646484375,0.634765625
591,1.646,IMU1,3.8414634146341466,27.134146341463417,0.24390243902439027,-0.208984375,0.2998046875,0.6357421875
592,1.646,IMU2,3.2926829268292686,29.02439024390244,-0.48780487804878053,-0.2197265625,0.263671875,0.666015625
593,1.656,IMU0,0.426829268292683,26.707317073170735,-2.6219512195121952,-0.2607421875,0.341796875,0.6328125
594,1.656,IMU1,2.5,25.30487804878049,-2.3170731707317076,-0.2578125,0.3740234375,0.646484375
595,1.656,IMU2,1.6463414634146343,27.012195121951223,-2.804878048780488,-0.275390625,0.3408203125,0.654296875
596,1.666,IMU0,-0.30487804878048785,22.5609756097561,-4.085365853658537,-0.3037109375,0.333984375,0.6533203125
597,1.666,IMU1,2.0121951219512195,21.463414634146343,-3.7195121951219514,-0.3125,0.3076171875,0.681640625
598,1.666,IMU2,0.9146341463414634,22.80487804878049,-4.2682926829268295,-0.3134765625,0.3388671875,0.640625
599,1.676,IMU0,0.06097560975609757,18.29268292682927,-2.5609756097560976,-0.3427734375,0.2880859375,0.642578125
600,1.676,IMU1,2.378048780487805,17.31707317073171,-2.3170731707317076,-0.3408203125,0.29296875,0.6572265625
601,1.676,IMU2,1.2195121951219514,18.29268292682927,-2.7439024390243905,-0.3515625,0.2890625,0.6220703125
602,1.686,IMU0,-1.2195121951219514,12.195121951219512,-2.7439024390243905,-0.337890625,0.3134765625,0.6748046875
603,1.686,IMU1,0.9756097560975611,11.097560975609756,-2.439024390243903,-0.341796875,0.33203125,0.65625
604,1.686,IMU2,-0.24390243902439027,12.256097560975611,-2.987804878048781,-0.3525390625,0.3056640625,0.669921875
605,1.696,IMU0,-1.402439024390244,8.414634146341465,-3.4756097560975614,-0.318359375,0.3203125,0.6484375
606,1.696,IMU1,1.2195121951219514,7.01219512195122,-3.231707317073171,-0.3193359375,0.3515625,0.6416015625
607,1.696,IMU2,-0.3658536585365854,8.658536585365855,-3.780487804878049,-0.3349609375,0.3115234375,0.6787109375
608,1.706,IMU0,-0.24390243902439027,5.609756097560976,-2.0121951219512195,-0.3115234375,0.353515625,0.6357421875
609,1.706,IMU1,1.8902439024390245,4.573170731707317,-1.829268292682927,-0.3173828125,0.341796875,0.68359375
610,1.706,IMU2,0.9756097560975611,5.731707317073171,-2.25609756097561,-0.318359375,0.3642578125,0.615234375
611,1.716,IMU0,0.3658536585365854,4.51219512195122,-3.4756097560975614,-0.3388671875,0.365234375,0.70703125
612,1.716,IMU1,2.073170731707317,3.1097560975609757,-3.048780487804878,-0.3408203125,0.337890625,0.6982421875
613,1.716,IMU2,1.3414634146341464,4.817073170731708,-3.7195121951219514,-0.3505859375,0.369140625,0.6904296875
614,1.726,IMU0,1.6463414634146343,2.682926829268293,-1.8902439024390245,-0.33984375,0.3359375,0.7041015625
615,1.726,IMU1,3.7195121951219514,1.5853658536585367,-1.707317073170732,-0.3408203125,0.3642578125,0.6943359375
616,1.726,IMU2,2.804878048780488,2.987804878048781,-2.073170731707317,-0.3447265625,0.3427734375,0.7294921875
617,1.736,IMU0,2.1341463414634148,0.7317073170731708,0.1829268292682927,-0.3251953125,0.35546875,0.71875
618,1.736,IMU1,4.390243902439025,-0.6707317073170732,0.3658536585365854,-0.3193359375,0.3994140625,0.7314453125
619,1.736,IMU2,3.2926829268292686,0.9146341463414634,-0.1829268292682927,-0.3447265625,0.341796875,0.7001953125
620,1.746,IMU0,2.7439024390243905,-0.06097560975609757,0.5487804878048781,-0.2890625,0.482421875,0.7080078125
621,1.746,IMU1,5.3048780487804885,-1.707317073170732,0.6707317073170732,-0.291015625,0.4990234375,0.6669921875
622,1.746,IMU2,3.414634146341464,0.3658536585365854,0.3658536585365854,-0.3037109375,0.4521484375,0.72265625
623,1.756,IMU0,2.987804878048781,1.6463414634146343,0.06097560975609757,-0.314453125,0.4462890625,0.6748046875
624,1.756,IMU1,5.975609756097562,0.6097560975609757,0.3658536585365854,-0.3232421875,0.392578125,0.6953125
625,1.756,IMU2,3.658536585365854,1.8902439024390245,-0.1829268292682927,-0.3271484375,0.482421875,0.662109375
626,1.766,IMU0,1.9512195121951221,2.6219512195121952,-2.5,-0.361328125,0.3720703125,0.673828125
627,1.766,IMU1,4.695121951219512,1.402439024390244,-2.1341463414634148,-0.3662109375,0.3984375,0.693359375
628,1.766,IMU2,2.804878048780488,2.5,-2.804878048780488,-0.37890625,0.390625,0.697265625
629,1.776,IMU0,1.3414634146341464,1.829268292682927,-3.5975609756097566,-0.3984375,0.4189453125,0.6728515625
630,1.776,IMU1,3.780487804878049,0.426829268292683,-3.353658536585366,-0.396484375,0.4296875,0.6474609375
631,1.776,IMU2,2.25609756097561,1.9512195121951221,-3.8414634146341466,-0.4111328125,0.4072265625,0.6923828125
632,1.786,IMU0,2.073170731707317,-0.24390243902439027,-0.5487804878048781,-0.40625,0.41015625,0.6787109375
633,1.786,IMU1,4.634146341463415,-1.2804878048780488,-0.426829268292683,-0.4072265625,0.373046875,0.6611328125
634,1.786,IMU2,3.2926829268292686,-0.06097560975609757,-0.7317073170731708,-0.3994140625,0.4375,0.6806640625
635,1.796,IMU0,2.378048780487805,0.48780487804878053,0.5487804878048781,-0.4140625,0.35546875,0.6767578125
636,1.796,IMU1,4.939024390243903,-0.6707317073170732,0.7926829268292683,-0.412109375,0.361328125,0.6787109375
637,1.796,IMU2,3.536585365853659,0.426829268292683,0.24390243902439027,-0.416015625,0.37890625,0.6806640625
638,1.806,IMU0,2.25609756097561,1.0365853658536586,0.9146341463414634,-0.44140625,0.408203125,0.6689453125
639,1.806,IMU1,5.121951219512195,-0.5487804878048781,1.0365853658536586,-0.4306640625,0.435546875,0.67578125
640,1.806,IMU2,3.5975609756097566,1.0365853658536586,0.6707317073170732,-0.4462890625,0.4091796875,0.662109375
641,1.816,IMU0,2.3170731707317076,1.2195121951219514,2.378048780487805,-0.4619140625,0.4267578125,0.662109375
642,1.816,IMU1,4.939024390243903,-0.12195121951219513,2.5,-0.4609375,0.4052734375,0.6728515625
643,1.816,IMU2,3.780487804878049,1.3414634146341464,2.1341463414634148,-0.4619140625,0.4658203125,0.6513671875
644,1.826,IMU0,4.146341463414634,2.804878048780488,6.158536585365854,-0.509765625,0.3447265625,0.6728515625
645,1.826,IMU1,6.52439024390244,1.8902439024390245,6.219512195121951,-0.505859375,0.3447265625,0.7001953125
646,1.826,IMU2,5.548780487804878,2.5,6.097560975609756,-0.4970703125,0.3974609375,0.6650390625
647,1.836,IMU0,4.146341463414634,2.804878048780488,8.658536585365855,-0.4951171875,0.369140625,0.638671875
648,1.836,IMU1,6.402439024390245,1.1585365853658538,8.902439024390244,-0.4931640625,0.4267578125,0.6669921875
649,1.836,IMU2,5.3048780487804885,3.048780487804878,8.353658536585366,-0.517578125,0.3486328125,0.6494140625
650,1.846,IMU0,3.048780487804878,1.524390243902439,8.048780487804878,-0.48828125,0.4462890625,0.63671875
651,1.846,IMU1,5.487804878048781,0.1829268292682927,8.353658536585366,-0.484375,0.501953125,0.6494140625
652,1.846,IMU2,4.329268292682928,1.6463414634146343,7.682926829268293,-0.51953125,0.4111328125,0.6396484375
653,1.856,IMU0,2.9268292682926833,1.524390243902439,8.78048780487805,-0.51953125,0.40625,0.66015625
654,1.856,IMU1,5.670731707317073,0.6707317073170732,8.963414634146343,-0.5244140625,0.3896484375,0.6875
655,1.856,IMU2,3.7195121951219514,0.9146341463414634,8.536585365853659,-0.5224609375,0.4697265625,0.6328125
656,1.866,IMU0,2.1951219512195124,2.804878048780488,7.926829268292684,-0.53125,0.29296875,0.6767578125
657,1.866,IMU1,4.634146341463415,0.9756097560975611,8.048780487804878,-0.5400390625,0.3134765625,0.7197265625
658,1.866,IMU2,3.353658536585366,2.1951219512195124,7.560975609756098,-0.53125,0.353515625,0.671875
659,1.876,IMU0,1.9512195121951221,1.1585365853658538,7.926829268292684,-0.5537109375,0.3076171875,0.6845703125
660,1.876,IMU1,4.695121951219512,-0.1829268292682927,7.865853658536586,-0.5517578125,0.380859375,0.70703125
661,1.876,IMU2,3.536585365853659,1.0365853658536586,7.439024390243903,-0.5791015625,0.294921875,0.6826171875
662,1.886,IMU0,1.4634146341463417,0.5487804878048781,6.036585365853659,-0.5556640625,0.3759765625,0.6962890625
663,1.886,IMU1,3.963414634146342,-0.48780487804878053,6.219512195121951,-0.5712890625,0.3203125,0.693359375
664,1.886,IMU2,2.804878048780488,0.853658536585366,5.7926829268292686,-0.5859375,0.31640625,0.6728515625
665,1.896,IMU0,2.0121951219512195,-1.2804878048780488,6.829268292682928,-0.5478515625,0.40234375,0.6767578125
666,1.896,IMU1,4.51219512195122,-2.5,7.134146341463415,-0.560546875,0.3779296875,0.66796875
667,1.896,IMU2,3.2926829268292686,-0.9756097560975611,6.585365853658537,-0.5712890625,0.3720703125,0.6552734375
668,1.906,IMU0,2.073170731707317,-1.0975609756097562,6.036585365853659,-0.5498046875,0.3505859375,0.669921875
669,1.906,IMU1,4.695121951219512,-2.25609756097561,6.097560975609756,-0.5498046875,0.380859375,0.6748046875
670,1.906,IMU2,3.414634146341464,-0.7317073170731708,5.609756097560976,-0.5615234375,0.3798828125,0.6640625
671,1.916,IMU0,1.707317073170732,-1.0975609756097562,5.3048780487804885,-0.5576171875,0.32421875,0.68359375
672,1.916,IMU1,5.0,-2.7439024390243905,5.2439024390243905,-0.55078125,0.31640625,0.6640625
673,1.916,IMU2,3.536585365853659,-0.7317073170731708,4.817073170731708,-0.5615234375,0.31640625,0.6630859375
674,1.926,IMU0,2.1951219512195124,-1.6463414634146343,3.780487804878049,-0.5673828125,0.40234375,0.6796875
675,1.926,IMU1,5.365853658536586,-3.048780487804878,3.780487804878049,-0.5810546875,0.326171875,0.67578125
676,1.926,IMU2,4.146341463414634,-1.3414634146341464,3.231707317073171,-0.599609375,0.3173828125,0.6904296875
677,1.936,IMU0,1.0365853658536586,-3.9024390243902443,-0.06097560975609757,-0.5693359375,0.423828125,0.65234375
678,1.936,IMU1,3.658536585365854,-4.75609756097561,0.12195121951219513,-0.5830078125,0.3505859375,0.6845703125
679,1.936,IMU2,2.6219512195121952,-3.231707317073171,-0.426829268292683,-0.59765625,0.3369140625,0.6748046875
680,1.946,IMU0,1.2195121951219514,-3.963414634146342,-0.06097560975609757,-0.568359375,0.427734375,0.6376953125
681,1.946,IMU1,4.207317073170732,-4.878048780487806,0.1829268292682927,-0.58203125,0.375,0.630859375
682,1.946,IMU2,2.6219512195121952,-3.353658536585366,-0.24390243902439027,-0.5986328125,0.3486328125,0.6298828125
683,1.956,IMU0,2.1341463414634148,-4.146341463414634,2.1341463414634148,-0.599609375,0.4169921875,0.6640625
684,1.956,IMU1,5.060975609756098,-5.426829268292684,2.3170731707317076,-0.61328125,0.3896484375,0.677734375
685,1.956,IMU2,3.2926829268292686,-3.963414634146342,1.829268292682927,-0.630859375,0.3701171875,0.662109375
686,1.966,IMU0,1.6463414634146343,-4.146341463414634,1.1585365853658538,-0.6552734375,0.3896484375,0.6484375
687,1.966,IMU1,4.329268292682928,-5.548780487804878,1.3414634146341464,-0.646484375,0.4248046875,0.65625
688,1.966,IMU2,2.6219512195121952,-3.963414634146342,0.853658536585366,-0.6572265625,0.412109375,0.63671875
689,1.976,IMU0,0.30487804878048785,-7.01219512195122,-0.06097560975609757,-0.6845703125,0.31640625,0.62890625
690,1.976,IMU1,3.1097560975609757,-8.902439024390244,-0.06097560975609757,-0.685546875,0.3173828125,0.6611328125
691,1.976,IMU2,0.9146341463414634,-7.378048780487806,-0.48780487804878053,-0.6943359375,0.318359375,0.6630859375
692,1.986,IMU0,-1.2804878048780488,-9.02439024390244,-0.426829268292683,-0.64453125,0.36328125,0.6240234375
693,1.986,IMU1,1.6463414634146343,-9.939024390243903,-0.30487804878048785,-0.6708984375,0.2861328125,0.6650390625
694,1.986,IMU2,-0.06097560975609757,-8.231707317073171,-0.7926829268292683,-0.6845703125,0.2607421875,0.646484375
695,1.996,IMU0,0.0,-7.926829268292684,0.3658536585365854,-0.640625,0.427734375,0.6806640625
696,1.996,IMU1,2.682926829268293,-8.475609756097562,0.6707317073170732,-0.6669921875,0.37109375,0.6865234375
697,1.996,IMU2,0.7926829268292683,-6.52439024390244,0.12195121951219513,-0.6982421875,0.3203125,0.68359375
698,2.006,IMU0,0.853658536585366,-6.646341463414635,-1.0975609756097562,-0.685546875,0.400390625,0.6708984375
699,2.006,IMU1,3.048780487804878,-7.926829268292684,-0.7317073170731708,-0.6806640625,0.423828125,0.681640625
700,2.006,IMU2,1.7682926829268295,-5.914634146341464,-1.0975609756097562,-0.6943359375,0.4072265625,0.681640625
701,2.016,IMU0,1.707317073170732,-7.500000000000001,0.7317073170731708,-0.7158203125,0.2998046875,0.642578125
702,2.016,IMU1,4.085365853658537,-9.451219512195122,0.853658536585366,-0.7001953125,0.357421875,0.6376953125
703,2.016,IMU2,2.439024390243903,-7.987804878048781,0.24390243902439027,-0.701171875,0.3984375,0.595703125
704,2.026,IMU0,0.853658536585366,-11.52439024390244,0.0,-0.6787109375,0.3671875,0.654296875
705,2.026,IMU1,3.5975609756097566,-12.682926829268293,0.1829268292682927,-0.68359375,0.2822265625,0.65625
706,2.026,IMU2,1.9512195121951221,-11.158536585365855,-0.426829268292683,-0.703125,0.2578125,0.6396484375
707,2.036,IMU0,0.5487804878048781,-14.390243902439027,-1.524390243902439,-0.62109375,0.4052734375,0.5791015625
708,2.036,IMU1,3.4756097560975614,-15.79268292682927,-1.2195121951219514,-0.6240234375,0.41015625,0.603515625
709,2.036,IMU2,1.707317073170732,-13.414634146341465,-1.6463414634146343,-0.6484375,0.3349609375,0.609375
710,2.046,IMU0,1.6463414634146343,-15.000000000000002,0.1829268292682927,-0.58984375,0.275390625,0.5830078125
711,2.046,IMU1,4.573170731707317,-17.134146341463417,0.06097560975609757,-0.5673828125,0.38671875,0.5537109375
712,2.046,IMU2,2.6219512195121952,-15.426829268292684,-0.426829268292683,-0.572265625,0.4208984375,0.5556640625
713,2.056,IMU0,1.2195121951219514,-13.719512195121952,-0.7926829268292683,-0.5419921875,0.2734375,0.55859375
714,2.056,IMU1,4.207317073170732,-15.487804878048783,-0.6707317073170732,-0.5439453125,0.2578125,0.5751953125
715,2.056,IMU2,2.5609756097560976,-14.207317073170733,-1.2195121951219514,-0.5576171875,0.2734375,0.552734375
716,2.066,IMU0,0.0,-13.963414634146343,-1.6463414634146343,-0.4736328125,0.328125,0.5126953125
717,2.066,IMU1,2.682926829268293,-15.060975609756099,-1.524390243902439,-0.4716796875,0.34375,0.5146484375
718,2.066,IMU2,1.402439024390244,-13.04878048780488,-2.073170731707317,-0.4814453125,0.3369140625,0.5078125
719,2.076,IMU0,-0.7317073170731708,-11.829268292682928,-1.5853658536585367,-0.4853515625,0.255859375,0.505859375
720,2.076,IMU1,1.707317073170732,-12.987804878048781,-1.4634146341463417,-0.494140625,0.220703125,0.521484375
721,2.076,IMU2,0.24390243902439027,-11.52439024390244,-2.0121951219512195,-0.501953125,0.25,0.5185546875
722,2.086,IMU0,-1.1585365853658538,-12.134146341463415,-0.24390243902439027,-0.45703125,0.37890625,0.498046875
723,2.086,IMU1,1.6463414634146343,-13.353658536585368,0.06097560975609757,-0.45703125,0.359375,0.521484375
724,2.086,IMU2,0.06097560975609757,-11.158536585365855,-0.30487804878048785,-0.4833984375,0.3037109375,0.482421875
725,2.096,IMU0,-1.402439024390244,-11.28048780487805,0.6097560975609757,-0.4677734375,0.193359375,0.4912109375
726,2.096,IMU1,1.4634146341463417,-13.475609756097562,0.7317073170731708,-0.4541015625,0.232421875,0.486328125
727,2.096,IMU2,-0.426829268292683,-12.01219512195122,0.3658536585365854,-0.4736328125,0.1904296875,0.5009765625
728,2.106,IMU0,-2.0121951219512195,-13.231707317073171,2.439024390243903,-0.4072265625,0.287109375,0.458984375
729,2.106,IMU1,0.9756097560975611,-14.634146341463415,2.6219512195121952,-0.41015625,0.2919921875,0.44921875
730,2.106,IMU2,-0.9756097560975611,-12.621951219512196,2.1951219512195124,-0.4189453125,0.2880859375,0.46875
731,2.116,IMU0,-1.1585365853658538,-10.914634146341465,4.451219512195122,-0.3779296875,0.1630859375,0.4326171875
732,2.116,IMU1,1.6463414634146343,-12.500000000000002,4.817073170731708,-0.3701171875,0.189453125,0.447265625
733,2.116,IMU2,-0.12195121951219513,-10.853658536585368,4.2682926829268295,-0.384765625,0.162109375,0.43359375
734,2.126,IMU0,-0.426829268292683,-8.414634146341465,5.182926829268293,-0.3369140625,0.2978515625,0.439453125
735,2.126,IMU1,2.1341463414634148,-10.487804878048781,5.3048780487804885,-0.349609375,0.28125,0.4365234375
736,2.126,IMU2,0.853658536585366,-7.987804878048781,4.939024390243903,-0.3505859375,0.2998046875,0.419921875
737,2.136,IMU0,-0.7926829268292683,-9.51219512195122,3.536585365853659,-0.3984375,0.103515625,0.4326171875
738,2.136,IMU1,2.0121951219512195,-10.731707317073171,3.8414634146341466,-0.390625,0.15234375,0.4208984375
739,2.136,IMU2,0.426829268292683,-8.536585365853659,3.658536585365854,-0.4189453125,0.1044921875,0.4482421875
740,2.146,IMU0,-0.1829268292682927,-9.02439024390244,2.25609756097561,-0.3662109375,0.2119140625,0.423828125
741,2.146,IMU1,2.25609756097561,-10.914634146341465,2.439024390243903,-0.3583984375,0.271484375,0.4130859375
742,2.146,IMU2,0.7926829268292683,-8.658536585365855,1.9512195121951221,-0.365234375,0.287109375,0.4228515625
743,2.156,IMU0,-0.12195121951219513,-9.146341463414634,0.426829268292683,-0.373046875,0.1416015625,0.447265625
744,2.156,IMU1,2.5609756097560976,-10.060975609756099,0.7317073170731708,-0.3701171875,0.1708984375,0.4658203125
745,2.156,IMU2,1.0365853658536586,-7.865853658536586,0.30487804878048785,-0.388671875,0.13671875,0.4619140625
746,2.166,IMU0,-0.426829268292683,-11.036585365853659,-1.0365853658536586,-0.3349609375,0.205078125,0.388671875
747,2.166,IMU1,2.25609756097561,-12.500000000000002,-0.7926829268292683,-0.3359375,0.2333984375,0.384765625
748,2.166,IMU2,0.48780487804878053,-10.975609756097562,-1.2195121951219514,-0.3486328125,0.2373046875,0.36328125
749,2.176,IMU0,-0.9146341463414634,-12.317073170731708,-2.3170731707317076,-0.2998046875,0.1953125,0.404296875
750,2.176,IMU1,1.8902439024390245,-13.963414634146343,-2.1341463414634148,-0.3076171875,0.193359375,0.396484375
751,2.176,IMU2,0.12195121951219513,-12.256097560975611,-2.5609756097560976,-0.3203125,0.185546875,0.3876953125
752,2.186,IMU0,-0.6707317073170732,-13.04878048780488,-2.25609756097561,-0.3251953125,0.2236328125,0.3994140625
753,2.186,IMU1,1.8902439024390245,-14.390243902439027,-1.8902439024390245,-0.3291015625,0.2197265625,0.41015625
754,2.186,IMU2,0.48780487804878053,-12.500000000000002,-2.378048780487805,-0.34375,0.2021484375,0.419921875
755,2.196,IMU0,-0.30487804878048785,-13.658536585365855,-2.25609756097561,-0.3076171875,0.2197265625,0.4111328125
756,2.196,IMU1,1.829268292682927,-15.243902439024392,-1.9512195121951221,-0.3056640625,0.2509765625,0.43359375
757,2.196,IMU2,0.6707317073170732,-13.719512195121952,-2.5,-0.318359375,0.24609375,0.412109375
758,2.206,IMU0,-0.12195121951219513,-12.134146341463415,-2.987804878048781,-0.296875,0.1982421875,0.388671875
759,2.206,IMU1,2.378048780487805,-13.414634146341465,-2.7439024390243905,-0.2998046875,0.1787109375,0.400390625
760,2.206,IMU2,1.0365853658536586,-11.76829268292683,-3.2926829268292686,-0.3134765625,0.15625,0.3994140625
761,2.216,IMU0,0.3658536585365854,-12.560975609756099,-1.707317073170732,-0.2900390625,0.220703125,0.412109375
762,2.216,IMU1,2.8658536585365857,-14.329268292682928,-1.524390243902439,-0.283203125,0.25390625,0.4033203125
763,2.216,IMU2,1.3414634146341464,-12.621951219512196,-2.0121951219512195,-0.291015625,0.24609375,0.396484375
764,2.226,IMU0,1.0975609756097562,-11.28048780487805,0.7926829268292683,-0.310546875,0.1650390625,0.4169921875
765,2.226,IMU1,3.8414634146341466,-12.865853658536587,0.9146341463414634,-0.3095703125,0.1689453125,0.416015625
766,2.226,IMU2,2.1341463414634148,-11.341463414634147,0.426829268292683,-0.3173828125,0.1650390625,0.408203125
767,2.236,IMU0,1.2195121951219514,-10.731707317073171,0.1829268292682927,-0.3203125,0.2275390625,0.4013671875
768,2.236,IMU1,3.780487804878049,-12.134146341463415,0.48780487804878053,-0.326171875,0.220703125,0.408203125
769,2.236,IMU2,2.1951219512195124,-10.24390243902439,0.0,-0.337890625,0.20703125,0.3984375
770,2.246,IMU0,0.7317073170731708,-10.548780487804878,-0.48780487804878053,-0.3125,0.234375,0.4130859375
771,2.246,IMU1,3.2926829268292686,-12.256097560975611,-0.30487804878048785,-0.3115234375,0.25390625,0.3974609375
772,2.246,IMU2,1.5853658536585367,-10.670731707317074,-0.7926829268292683,-0.3203125,0.24609375,0.3837890625
773,2.256,IMU0,1.0365853658536586,-8.231707317073171,0.6097560975609757,-0.3271484375,0.1328125,0.4091796875
774,2.256,IMU1,4.024390243902439,-9.695121951219512,0.7317073170731708,-0.328125,0.16015625,0.431640625
775,2.256,IMU2,2.073170731707317,-8.231707317073171,0.3658536585365854,-0.3388671875,0.1630859375,0.4306640625
776,2.266,IMU0,0.6097560975609757,-5.609756097560976,0.5487804878048781,-0.33203125,0.25390625,0.4130859375
777,2.266,IMU1,3.2926829268292686,-6.951219512195123,0.6707317073170732,-0.3349609375,0.216796875,0.41015625
778,2.266,IMU2,1.707317073170732,-5.121951219512195,0.24390243902439027,-0.34375,0.1962890625,0.3984375
779,2.276,IMU0,1.3414634146341464,-2.9268292682926833,1.829268292682927,-0.3505859375,0.1953125,0.419921875
780,2.276,IMU1,4.024390243902439,-4.939024390243903,1.9512195121951221,-0.33984375,0.2568359375,0.4189453125
781,2.276,IMU2,2.378048780487805,-3.231707317073171,1.524390243902439,-0.3466796875,0.2568359375,0.408203125
782,2.286,IMU0,1.524390243902439,-0.7926829268292683,1.5853658536585367,-0.384765625,0.171875,0.4443359375
783,2.286,IMU1,4.207317073170732,-1.7682926829268295,1.829268292682927,-0.3896484375,0.142578125,0.443359375
784,2.286,IMU2,2.8658536585365857,-0.06097560975609757,1.3414634146341464,-0.4013671875,0.1318359375,0.4345703125
785,2.296,IMU0,1.0975609756097562,-1.9512195121951221,1.0365853658536586,-0.375,0.2685546875,0.412109375
786,2.296,IMU1,3.780487804878049,-3.536585365853659,1.1585365853658538,-0.37890625,0.2705078125,0.4169921875
787,2.296,IMU2,2.1951219512195124,-1.524390243902439,0.7317073170731708,-0.388671875,0.2607421875,0.4013671875
788,2.306,IMU0,1.6463414634146343,-1.2195121951219514,1.829268292682927,-0.404296875,0.1875,0.4873046875
789,2.306,IMU1,4.390243902439025,-2.7439024390243905,2.0121951219512195,-0.3984375,0.203125,0.498046875
790,2.306,IMU2,2.6219512195121952,-0.7926829268292683,1.524390243902439,-0.412109375,0.193359375,0.4912109375
791,2.316,IMU0,1.0365853658536586,-2.439024390243903,0.6707317073170732,-0.380859375,0.2158203125,0.4267578125
792,2.316,IMU1,3.780487804878049,-3.658536585365854,0.9756097560975611,-0.3857421875,0.205078125,0.4443359375
793,2.316,IMU2,2.3170731707317076,-1.8902439024390245,0.48780487804878053,-0.40234375,0.1982421875,0.431640625
794,2.326,IMU0,0.6707317073170732,-3.963414634146342,-1.524390243902439,-0.369140625,0.2939453125,0.4365234375
795,2.326,IMU1,3.048780487804878,-5.365853658536586,-1.2195121951219514,-0.37109375,0.29296875,0.4453125
796,2.326,IMU2,1.829268292682927,-3.536585365853659,-1.7682926829268295,-0.3828125,0.287109375,0.43359375
797,2.336,IMU0,0.3658536585365854,-1.9512195121951221,-2.439024390243903,-0.3974609375,0.1875,0.49609375
798,2.336,IMU1,2.7439024390243905,-3.4756097560975614,-2.25609756097561,-0.388671875,0.21875,0.4990234375
799,2.336,IMU2,1.5853658536585367,-1.524390243902439,-2.804878048780488,-0.40234375,0.2060546875,0.4873046875
800,2.346,IMU0,0.6707317073170732,-2.5,0.24390243902439027,-0.373046875,0.2646484375,0.400390625
801,2.346,IMU1,3.2926829268292686,-3.536585365853659,0.426829268292683,-0.3798828125,0.2431640625,0.423828125
802,2.346,IMU2,2.1951219512195124,-1.829268292682927,-0.06097560975609757,-0.3876953125,0.244140625,0.4033203125
803,2.356,IMU0,0.9756097560975611,-2.0121951219512195,0.6707317073170732,-0.404296875,0.2607421875,0.458984375
804,2.356,IMU1,3.536585365853659,-3.2926829268292686,0.853658536585366,-0.3984375,0.2822265625,0.4453125
805,2.356,IMU2,2.25609756097561,-1.402439024390244,0.30487804878048785,-0.412109375,0.2705078125,0.4423828125
806,2.366,IMU0,-0.7926829268292683,-3.414634146341464,-1.4634146341463417,-0.4072265625,0.2451171875,0.4609375
807,2.366,IMU1,1.5853658536585367,-4.878048780487806,-1.1585365853658538,-0.4140625,0.2529296875,0.470703125
808,2.366,IMU2,0.24390243902439027,-3.2926829268292686,-1.707317073170732,-0.427734375,0.2412109375,0.4609375
809,2.376,IMU0,-1.0975609756097562,-5.609756097560976,-2.378048780487805,-0.353515625,0.2138671875,0.404296875
810,2.376,IMU1,1.2804878048780488,-6.707317073170732,-2.073170731707317,-0.359375,0.21875,0.404296875
811,2.376,IMU2,0.12195121951219513,-5.3048780487804885,-2.682926829268293,-0.373046875,0.2099609375,0.390625
812,2.386,IMU0,-0.48780487804878053,-7.682926829268293,-3.536585365853659,-0.3271484375,0.2763671875,0.4267578125
813,2.386,IMU1,2.073170731707317,-8.658536585365855,-3.231707317073171,-0.3310546875,0.2685546875,0.4150390625
814,2.386,IMU2,0.48780487804878053,-7.073170731707318,-3.780487804878049,-0.3369140625,0.267578125,0.4189453125
815,2.396,IMU0,-0.48780487804878053,-6.829268292682928,-4.146341463414634,-0.3037109375,0.2080078125,0.4189453125
816,2.396,IMU1,1.8902439024390245,-8.658536585365855,-3.963414634146342,-0.298828125,0.25,0.427734375
817,2.396,IMU2,0.48780487804878053,-6.646341463414635,-4.451219512195122,-0.314453125,0.22265625,0.419921875
818,2.406,IMU0,-0.3658536585365854,-6.2804878048780495,-3.9024390243902443,-0.283203125,0.1611328125,0.37109375
819,2.406,IMU1,2.3170731707317076,-7.500000000000001,-3.658536585365854,-0.2900390625,0.1474609375,0.4033203125
820,2.406,IMU2,1.1585365853658538,-5.853658536585367,-4.207317073170732,-0.30078125,0.15234375,0.3720703125
821,2.416,IMU0,0.48780487804878053,-4.451219512195122,-2.682926829268293,-0.2421875,0.302734375,0.3642578125
822,2.416,IMU1,2.8658536585365857,-5.609756097560976,-2.439024390243903,-0.2470703125,0.2802734375,0.359375
823,2.416,IMU2,1.6463414634146343,-4.024390243902439,-2.9268292682926833,-0.2490234375,0.294921875,0.3447265625
824,2.426,IMU0,1.4634146341463417,-1.5853658536585367,-1.402439024390244,-0.2509765625,0.2490234375,0.375
825,2.426,IMU1,4.207317073170732,-2.5,-1.0365853658536586,-0.2431640625,0.2939453125,0.3671875
826,2.426,IMU2,2.804878048780488,-1.1585365853658538,-1.6463414634146343,-0.2578125,0.2568359375,0.3681640625
827,2.436,IMU0,2.3170731707317076,0.30487804878048785,0.1829268292682927,-0.2705078125,0.1708984375,0.3828125
828,2.436,IMU1,4.75609756097561,-1.1585365853658538,0.5487804878048781,-0.2646484375,0.1826171875,0.39453125
829,2.436,IMU2,3.5975609756097566,0.6707317073170732,0.0,-0.2783203125,0.1689453125,0.3916015625
830,2.446,IMU0,2.7439024390243905,0.1829268292682927,2.5609756097560976,-0.2734375,0.22265625,0.3583984375
831,2.446,IMU1,5.426829268292684,-1.402439024390244,2.9268292682926833,-0.2685546875,0.2685546875,0.3388671875
832,2.446,IMU2,3.963414634146342,0.3658536585365854,2.25609756097561,-0.28125,0.2197265625,0.359375
833,2.456,IMU0,2.6219512195121952,-0.06097560975609757,3.4756097560975614,-0.265625,0.2890625,0.341796875
834,2.456,IMU1,5.548780487804878,-1.6463414634146343,3.658536585365854,-0.2646484375,0.298828125,0.3603515625
835,2.456,IMU2,3.9024390243902443,0.1829268292682927,3.231707317073171,-0.2783203125,0.287109375,0.32421875
836,2.466,IMU0,3.2926829268292686,-0.7926829268292683,3.4756097560975614,-0.2666015625,0.2734375,0.3271484375
837,2.466,IMU1,6.036585365853659,-2.0121951219512195,3.8414634146341466,-0.275390625,0.2373046875,0.3525390625
838,2.466,IMU2,4.51219512195122,-0.5487804878048781,3.2926829268292686,-0.2763671875,0.2705078125,0.3193359375
839,2.476,IMU0,4.451219512195122,-0.9756097560975611,5.853658536585367,-0.2724609375,0.181640625,0.3310546875
840,2.476,IMU1,6.646341463414635,-2.378048780487805,6.219512195121951,-0.275390625,0.19140625,0.34765625
841,2.476,IMU2,5.609756097560976,-0.7926829268292683,5.670731707317073,-0.2822265625,0.1796875,0.34375
842,2.486,IMU0,5.365853658536586,-0.5487804878048781,8.597560975609756,-0.25390625,0.2099609375,0.3291015625
843,2.486,IMU1,7.743902439024391,-2.0121951219512195,9.02439024390244,-0.2421875,0.263671875,0.341796875
844,2.486,IMU2,6.52439024390244,-0.12195121951219513,8.414634146341465,-0.255859375,0.21484375,0.3232421875
845,2.496,IMU0,5.853658536585367,0.30487804878048785,10.182926829268293,-0.2265625,0.2666015625,0.328125
846,2.496,IMU1,8.475609756097562,-0.5487804878048781,10.609756097560977,-0.224609375,0.2607421875,0.30859375
847,2.496,IMU2,6.829268292682928,0.6707317073170732,9.939024390243903,-0.2333984375,0.263671875,0.3173828125
848,2.506,IMU0,6.646341463414635,1.6463414634146343,12.195121951219512,-0.2333984375,0.2060546875,0.2939453125
849,2.506,IMU1,9.390243902439025,0.0,12.439024390243903,-0.2314453125,0.2080078125,0.2890625
850,2.506,IMU2,7.926829268292684,2.0121951219512195,11.951219512195124,-0.2451171875,0.205078125,0.291015625
851,2.516,IMU0,6.7682926829268295,0.9146341463414634,12.500000000000002,-0.2158203125,0.21484375,0.26171875
852,2.516,IMU1,9.451219512195122,-1.0975609756097562,12.500000000000002,-0.21484375,0.244140625,0.2724609375
853,2.516,IMU2,8.048780487804878,1.2804878048780488,12.195121951219512,-0.23046875,0.21875,0.2685546875
854,2.526,IMU0,6.52439024390244,0.426829268292683,11.402439024390246,-0.1962890625,0.2548828125,0.25390625
855,2.526,IMU1,8.841463414634147,-0.6097560975609757,11.646341463414634,-0.19921875,0.25,0.294921875
856,2.526,IMU2,7.682926829268293,0.7926829268292683,11.158536585365855,-0.201171875,0.25390625,0.2724609375
857,2.536,IMU0,6.707317073170732,0.3658536585365854,11.097560975609756,-0.1748046875,0.2138671875,0.2939453125
858,2.536,IMU1,8.902439024390244,-0.3658536585365854,11.463414634146343,-0.181640625,0.2021484375,0.3076171875
859,2.536,IMU2,7.743902439024391,0.9146341463414634,10.914634146341465,-0.1845703125,0.2060546875,0.302734375
860,2.546,IMU0,8.170731707317074,0.7926829268292683,14.695121951219514,-0.1748046875,0.203125,0.3134765625
861,2.546,IMU1,10.548780487804878,0.30487804878048785,15.30487804878049,-0.17578125,0.193359375,0.3046875
862,2.546,IMU2,9.26829268292683,1.5853658536585367,14.51219512195122,-0.177734375,0.1943359375,0.30859375
863,2.556,IMU0,9.634146341463415,2.3170731707317076,18.29268292682927,-0.181640625,0.171875,0.3193359375
864,2.556,IMU1,12.256097560975611,1.0975609756097562,18.78048780487805,-0.1767578125,0.17578125,0.2763671875
865,2.556,IMU2,10.975609756097562,2.804878048780488,18.231707317073173,-0.19140625,0.166015625,0.3017578125
866,2.566,IMU0,10.853658536585368,2.1341463414634148,20.30487804878049,-0.1787109375,0.1396484375,0.2587890625
867,2.566,IMU1,13.78048780487805,-0.426829268292683,20.426829268292686,-0.1650390625,0.1796875,0.2548828125
868,2.566,IMU2,12.500000000000002,1.8902439024390245,20.0,-0.1865234375,0.1533203125,0.2470703125
869,2.576,IMU0,12.865853658536587,-0.9756097560975611,21.097560975609756,-0.177734375,0.1806640625,0.2578125
870,2.576,IMU1,15.487804878048783,-3.2926829268292686,21.097560975609756,-0.1767578125,0.23046875,0.2783203125
871,2.576,IMU2,14.207317073170733,-1.2195121951219514,20.731707317073173,-0.1865234375,0.2021484375,0.263671875
872,2.586,IMU0,13.963414634146343,-2.3170731707317076,20.60975609756098,-0.18359375,0.234375,0.2890625
873,2.586,IMU1,16.34146341463415,-2.804878048780488,20.914634146341466,-0.1943359375,0.236328125,0.3427734375
874,2.586,IMU2,14.634146341463415,-1.829268292682927,20.426829268292686,-0.193359375,0.2353515625,0.3193359375
875,2.596,IMU0,14.451219512195124,-0.9756097560975611,19.81707317073171,-0.212890625,0.1962890625,0.33203125
876,2.596,IMU1,16.70731707317073,-0.853658536585366,20.182926829268293,-0.232421875,0.1533203125,0.3388671875
877,2.596,IMU2,15.243902439024392,0.12195121951219513,19.695121951219512,-0.2392578125,0.1640625,0.3291015625
878,2.606,IMU0,14.817073170731708,-0.3658536585365854,19.634146341463417,-0.234375,0.126953125,0.3193359375
879,2.606,IMU1,17.378048780487806,-1.3414634146341464,19.75609756097561,-0.2421875,0.111328125,0.3076171875
880,2.606,IMU2,16.158536585365855,0.24390243902439027,19.390243902439025,-0.2587890625,0.1103515625,0.3076171875
881,2.616,IMU0,15.670731707317074,-0.48780487804878053,18.597560975609756,-0.240234375,0.09375,0.3056640625
882,2.616,IMU1,18.53658536585366,-2.682926829268293,18.658536585365855,-0.2294921875,0.142578125,0.2802734375
883,2.616,IMU2,17.439024390243905,-0.7926829268292683,18.29268292682927,-0.25,0.1181640625,0.2783203125
884,2.626,IMU0,16.82926829268293,-2.9268292682926833,17.621951219512198,-0.2236328125,0.1328125,0.2548828125
885,2.626,IMU1,19.695121951219512,-5.060975609756098,17.682926829268293,-0.208984375,0.185546875,0.2705078125
886,2.626,IMU2,18.414634146341466,-3.353658536585366,17.31707317073171,-0.2236328125,0.162109375,0.2646484375
887,2.636,IMU0,19.02439024390244,-5.0,17.5609756097561,-0.2041015625,0.193359375,0.263671875
888,2.636,IMU1,21.707317073170735,-5.914634146341464,17.743902439024392,-0.208984375,0.185546875,0.2919921875
889,2.636,IMU2,20.30487804878049,-4.573170731707317,17.31707317073171,-0.2158203125,0.1845703125,0.2705078125
890,2.646,IMU0,20.853658536585368,-4.390243902439025,16.82926829268293,-0.2177734375,0.15625,0.3037109375
891,2.646,IMU1,23.475609756097562,-4.51219512195122,17.31707317073171,-0.232421875,0.1123046875,0.3466796875
892,2.646,IMU2,21.951219512195124,-3.353658536585366,16.70731707317073,-0.2373046875,0.1201171875,0.3369140625
893,2.656,IMU0,23.29268292682927,-2.9268292682926833,17.134146341463417,-0.2392578125,0.0595703125,0.3271484375
894,2.656,IMU1,25.853658536585368,-2.987804878048781,17.439024390243905,-0.2529296875,0.041015625,0.3251953125
895,2.656,IMU2,24.451219512195124,-1.707317073170732,16.951219512195124,-0.2685546875,0.03515625,0.3154296875
896,2.666,IMU0,26.03658536585366,-2.0121951219512195,16.52439024390244,-0.25,0.0419921875,0.3310546875
897,2.666,IMU1,28.658536585365855,-3.536585365853659,16.646341463414636,-0.2470703125,0.0859375,0.30859375
898,2.666,IMU2,27.31707317073171,-2.0121951219512195,16.28048780487805,-0.2666015625,0.0693359375,0.3037109375
899,2.676,IMU0,28.475609756097562,-1.829268292682927,14.02439024390244,-0.2333984375,0.12109375,0.30078125
900,2.676,IMU1,31.34146341463415,-3.4756097560975614,14.207317073170733,-0.2197265625,0.1845703125,0.294921875
901,2.676,IMU2,29.87804878048781,-2.073170731707317,13.841463414634148,-0.232421875,0.16796875,0.2822265625
902,2.686,IMU0,31.158536585365855,-1.0975609756097562,11.158536585365855,-0.2333984375,0.1884765625,0.2978515625
903,2.686,IMU1,33.41463414634146,-2.5,11.646341463414634,-0.2421875,0.169921875,0.3125
904,2.686,IMU2,32.01219512195122,-1.3414634146341464,11.158536585365855,-0.251953125,0.16796875,0.2998046875
905,2.696,IMU0,34.08536585365854,0.6707317073170732,9.939024390243903,-0.2529296875,0.119140625,0.3154296875
906,2.696,IMU1,36.524390243902445,-0.5487804878048781,10.365853658536587,-0.271484375,0.06640625,0.322265625
907,2.696,IMU2,35.1219512195122,0.7926829268292683,10.0,-0.2841796875,0.060546875,0.3134765625
908,2.706,IMU0,36.768292682926834,0.426829268292683,8.841463414634147,-0.275390625,0.0654296875,0.3193359375
909,2.706,IMU1,39.32926829268293,-0.12195121951219513,9.390243902439025,-0.2822265625,0.056640625,0.3330078125
910,2.706,IMU2,37.80487804878049,1.0975609756097562,9.085365853658537,-0.2998046875,0.048828125,0.322265625
911,2.716,IMU0,39.87804878048781,-1.6463414634146343,7.01219512195122,-0.271484375,0.0703125,0.3095703125
912,2.716,IMU1,42.07317073170732,-1.9512195121951221,7.621951219512196,-0.2646484375,0.10546875,0.3115234375
913,2.716,IMU2,40.487804878048784,-0.6707317073170732,7.25609756097561,-0.27734375,0.09765625,0.2919921875
914,2.726,IMU0,43.10975609756098,-4.024390243902439,5.548780487804878,-0.2509765625,0.115234375,0.302734375
915,2.726,IMU1,45.426829268292686,-5.121951219512195,5.975609756097562,-0.2431640625,0.13671875,0.302734375
916,2.726,IMU2,43.71951219512196,-3.780487804878049,5.609756097560976,-0.2529296875,0.126953125,0.2890625
917,2.736,IMU0,46.58536585365854,-4.939024390243903,7.01219512195122,-0.2470703125,0.0458984375,0.3251953125
918,2.736,IMU1,48.90243902439025,-6.219512195121951,7.378048780487806,-0.2373046875,0.0830078125,0.3291015625
919,2.736,IMU2,47.31707317073171,-5.0,7.01219512195122,-0.248046875,0.072265625,0.3203125
920,2.746,IMU0,49.69512195121952,-4.634146341463415,7.987804878048781,-0.2001953125,0.0263671875,0.271484375
921,2.746,IMU1,52.01219512195122,-5.670731707317073,8.475609756097562,-0.1943359375,0.05078125,0.2939453125
922,2.746,IMU2,50.670731707317074,-4.634146341463415,8.109756097560977,-0.208984375,0.0390625,0.279296875
923,2.756,IMU0,51.768292682926834,-5.060975609756098,9.26829268292683,-0.1689453125,0.0380859375,0.24609375
924,2.756,IMU1,54.39024390243903,-5.609756097560976,9.878048780487806,-0.171875,0.04296875,0.2548828125
925,2.756,IMU2,53.10975609756098,-4.573170731707317,9.573170731707318,-0.1875,0.03515625,0.2451171875
926,2.766,IMU0,53.10975609756098,-4.634146341463415,9.573170731707318,-0.134765625,0.068359375,0.236328125
927,2.766,IMU1,55.85365853658537,-4.939024390243903,10.24390243902439,-0.1455078125,0.060546875,0.2373046875
928,2.766,IMU2,54.268292682926834,-4.085365853658537,9.878048780487806,-0.158203125,0.0576171875,0.2265625
929,2.776,IMU0,53.71951219512196,-4.085365853658537,10.609756097560977,-0.1103515625,0.0703125,0.232421875
930,2.776,IMU1,56.28048780487806,-4.207317073170732,11.158536585365855,-0.1171875,0.07421875,0.232421875
931,2.776,IMU2,54.81707317073171,-3.414634146341464,10.792682926829269,-0.126953125,0.0654296875,0.2275390625
932,2.786,IMU0,54.024390243902445,-2.9268292682926833,11.829268292682928,-0.0791015625,0.072265625,0.203125
933,2.786,IMU1,56.524390243902445,-3.353658536585366,12.500000000000002,-0.0849609375,0.087890625,0.2109375
934,2.786,IMU2,55.243902439024396,-2.378048780487805,12.134146341463415,-0.0966796875,0.076171875,0.2041015625
935,2.796,IMU0,54.146341463414636,-2.378048780487805,12.80487804878049,-0.041015625,0.0966796875,0.1787109375
936,2.796,IMU1,56.89024390243903,-3.2926829268292686,13.353658536585368,-0.0478515625,0.11328125,0.1845703125
937,2.796,IMU2,55.487804878048784,-2.073170731707317,12.987804878048781,-0.0556640625,0.09765625,0.189453125
938,2.806,IMU0,53.71951219512196,-2.25609756097561,12.80487804878049,-0.0205078125,0.125,0.130859375
939,2.806,IMU1,56.28048780487806,-3.1097560975609757,13.353658536585368,-0.025390625,0.138671875,0.13671875
940,2.806,IMU2,55.00000000000001,-1.9512195121951221,13.04878048780488,-0.029296875,0.1240234375,0.138671875
941,2.816,IMU0,52.01219512195122,-3.353658536585366,13.353658536585368,-0.009765625,0.134765625,0.1123046875
942,2.816,IMU1,54.51219512195122,-3.8414634146341466,13.963414634146343,-0.021484375,0.13671875,0.1357421875
943,2.816,IMU2,53.17073170731708,-2.8658536585365857,13.658536585365855,-0.0205078125,0.1298828125,0.1279296875
944,2.826,IMU0,49.75609756097561,-3.231707317073171,14.02439024390244,-0.0068359375,0.08984375,0.125
945,2.826,IMU1,52.13414634146342,-3.353658536585366,14.756097560975611,-0.0185546875,0.0888671875,0.146484375
946,2.826,IMU2,50.97560975609756,-2.6219512195121952,14.26829268292683,-0.025390625,0.0849609375,0.1220703125
947,2.836,IMU0,48.23170731707317,-1.2195121951219514,14.634146341463415,0.0283203125,0.078125,0.16015625
948,2.836,IMU1,50.85365853658537,-1.9512195121951221,15.121951219512196,0.0341796875,0.0947265625,0.1591796875
949,2.836,IMU2,49.51219512195122,-0.853658536585366,14.695121951219514,0.01171875,0.078125,0.1552734375
950,2.846,IMU0,48.10975609756098,-2.9268292682926833,13.719512195121952,0.091796875,0.111328125,0.1240234375
951,2.846,IMU1,50.85365853658537,-3.9024390243902443,14.207317073170733,0.0869140625,0.1259765625,0.125
952,2.846,IMU2,49.207317073170735,-2.439024390243903,13.902439024390246,0.0791015625,0.111328125,0.1337890625
953,2.856,IMU0,46.951219512195124,-3.536585365853659,13.963414634146343,0.0537109375,0.1005859375,0.076171875
954,2.856,IMU1,49.51219512195122,-3.8414634146341466,14.573170731707318,0.0322265625,0.103515625,0.0888671875
955,2.856,IMU2,48.170731707317074,-3.048780487804878,14.207317073170733,0.04296875,0.0986328125,0.0888671875
956,2.866,IMU0,43.963414634146346,-0.3658536585365854,15.609756097560977,0.00390625,0.0654296875,0.125
957,2.866,IMU1,46.524390243902445,-0.9756097560975611,16.158536585365855,0.013671875,0.0908203125,0.1357421875
958,2.866,IMU2,45.304878048780495,0.06097560975609757,15.731707317073171,-0.0146484375,0.064453125,0.1142578125
959,2.876,IMU0,43.41463414634147,-3.2926829268292686,16.03658536585366,0.0947265625,0.1328125,0.1044921875
960,2.876,IMU1,46.28048780487805,-4.634146341463415,16.463414634146343,0.1005859375,0.1328125,0.111328125
961,2.876,IMU2,44.390243902439025,-2.804878048780488,16.097560975609756,0.087890625,0.130859375,0.111328125
962,2.886,IMU0,43.170731707317074,-2.3170731707317076,16.52439024390244,0.029296875,0.015625,0.1181640625
963,2.886,IMU1,45.670731707317074,-2.073170731707317,17.25609756097561,0.0009765625,0.0224609375,0.12890625
964,2.886,IMU2,44.390243902439025,-2.0121951219512195,16.646341463414636,0.0146484375,0.015625,0.1240234375
965,2.896,IMU0,41.768292682926834,1.0365853658536586,17.195121951219512,-0.009765625,0.0908203125,0.126953125
966,2.896,IMU1,44.390243902439025,-0.30487804878048785,17.621951219512198,0.00390625,0.126953125,0.1220703125
967,2.896,IMU2,43.23170731707317,1.3414634146341464,17.31707317073171,-0.0302734375,0.08203125,0.1201171875
968,2.906,IMU0,41.58536585365854,-3.780487804878049,15.487804878048783,0.072265625,0.1396484375,0.1015625
969,2.906,IMU1,44.207317073170735,-4.939024390243903,15.914634146341465,0.0712890625,0.1162109375,0.119140625
970,2.906,IMU2,42.50000000000001,-3.1097560975609757,15.609756097560977,0.068359375,0.1435546875,0.109375
971,2.916,IMU0,40.670731707317074,-1.3414634146341464,15.670731707317074,-0.0234375,-0.0185546875,0.142578125
972,2.916,IMU1,43.23170731707317,-0.9756097560975611,16.402439024390244,-0.0400390625,-0.0078125,0.1572265625
973,2.916,IMU2,42.07317073170732,-1.2804878048780488,15.670731707317074,-0.0419921875,-0.0185546875,0.1376953125
974,2.926,IMU0,39.51219512195122,0.12195121951219513,14.817073170731708,0.0166015625,0.1318359375,0.138671875
975,2.926,IMU1,42.13414634146342,-1.7682926829268295,15.060975609756099,0.0302734375,0.1630859375,0.134765625
976,2.926,IMU2,40.670731707317074,0.7317073170731708,14.939024390243905,-0.005859375,0.119140625,0.1435546875
977,2.936,IMU0,39.146341463414636,-4.329268292682928,13.414634146341465,0.0283203125,0.076171875,0.0927734375
978,2.936,IMU1,41.768292682926834,-4.878048780487806,14.02439024390244,0.0087890625,0.0615234375,0.1123046875
979,2.936,IMU2,40.1829268292683,-3.9024390243902443,13.536585365853659,0.029296875,0.0849609375,0.1044921875
980,2.946,IMU0,38.35365853658537,1.3414634146341464,14.878048780487806,-0.0517578125,0.0361328125,0.1513671875
981,2.946,IMU1,40.91463414634147,0.7317073170731708,15.365853658536587,-0.041015625,0.060546875,0.1630859375
982,2.946,IMU2,39.75609756097561,1.402439024390244,14.878048780487806,-0.0751953125,0.02734375,0.1435546875
983,2.956,IMU0,38.53658536585366,-0.9756097560975611,15.487804878048783,0.0380859375,0.099609375,0.1435546875
984,2.956,IMU1,41.03658536585366,-2.439024390243903,15.853658536585368,0.0400390625,0.09375,0.15234375
985,2.956,IMU2,39.390243902439025,-0.12195121951219513,15.609756097560977,0.0302734375,0.1083984375,0.146484375
986,2.966,IMU0,39.146341463414636,0.48780487804878053,17.804878048780488,-0.068359375,-0.0126953125,0.1357421875
987,2.966,IMU1,41.646341463414636,0.48780487804878053,18.231707317073173,-0.083984375,0.0029296875,0.142578125
988,2.966,IMU2,40.36585365853659,0.30487804878048785,17.743902439024392,-0.0712890625,-0.0126953125,0.138671875
989,2.976,IMU0,38.53658536585366,2.378048780487805,19.512195121951223,-0.0341796875,0.134765625,0.1337890625
990,2.976,IMU1,41.21951219512196,0.48780487804878053,19.634146341463417,-0.015625,0.15625,0.1376953125
991,2.976,IMU2,40.0,3.353658536585366,19.634146341463417,-0.05859375,0.119140625,0.126953125
992,2.986,IMU0,38.59756097560976,-2.804878048780488,18.902439024390244,-0.0234375,0.0517578125,0.123046875
993,2.986,IMU1,40.79268292682927,-3.414634146341464,19.085365853658537,-0.0400390625,0.02734375,0.1435546875
994,2.986,IMU2,39.390243902439025,-2.5,18.78048780487805,-0.021484375,0.078125,0.123046875
995,2.996,IMU0,37.07317073170732,2.5609756097560976,18.414634146341466,-0.0869140625,0.0244140625,0.16015625
996,2.996,IMU1,39.81707317073171,0.1829268292682927,18.353658536585368,-0.0830078125,0.06640625,0.162109375
997,2.996,IMU2,38.59756097560976,2.378048780487805,18.231707317073173,-0.123046875,-0.0009765625,0.162109375
998,3.006,IMU0,35.487804878048784,-2.7439024390243905,15.30487804878049,-0.0146484375,0.14453125,0.099609375
999,3.006,IMU1,37.743902439024396,-1.6463414634146343,15.914634146341465,-0.0234375,0.158203125,0.1337890625
1000,3.006,IMU2,36.463414634146346,-1.2195121951219514,15.426829268292684,-0.0263671875,0.1484375,0.1201171875
1001,3.016,IMU0,34.390243902439025,-2.6219512195121952,14.756097560975611,-0.103515625,-0.001953125,0.1142578125
1002,3.016,IMU1,37.13414634146342,-5.365853658536586,14.939024390243905,-0.1142578125,0.0029296875,0.134765625
1003,3.016,IMU2,35.79268292682927,-3.414634146341464,14.634146341463415,-0.1103515625,0.0087890625,0.1044921875
1004,3.026,IMU0,33.23170731707317,-1.402439024390244,14.573170731707318,-0.01953125,0.109375,0.1455078125
1005,3.026,IMU1,35.73170731707317,-1.4634146341463417,15.060975609756099,-0.056640625,0.087890625,0.1484375
1006,3.026,IMU2,34.390243902439025,-0.30487804878048785,14.634146341463415,-0.0546875,0.0908203125,0.142578125
1007,3.036,IMU0,33.35365853658537,-5.0,14.085365853658537,-0.02734375,0.0078125,0.099609375
1008,3.036,IMU1,35.670731707317074,-6.463414634146342,14.329268292682928,0.0029296875,0.0546875,0.115234375
1009,3.036,IMU2,34.207317073170735,-4.878048780487806,13.963414634146343,-0.0166015625,0.03125,0.1044921875
1010,3.046,IMU0,33.04878048780488,-0.7317073170731708,14.878048780487806,-0.048828125,0.0625,0.0947265625
1011,3.046,IMU1,35.79268292682927,-1.7682926829268295,15.487804878048783,-0.06640625,0.0302734375,0.1015625
1012,3.046,IMU2,34.51219512195122,-0.426829268292683,15.000000000000002,-0.076171875,0.03125,0.0986328125
1013,3.056,IMU0,33.29268292682927,-4.878048780487806,15.853658536585368,0.03515625,0.056640625,0.087890625
1014,3.056,IMU1,35.73170731707317,-5.182926829268293,16.28048780487805,0.0302734375,0.1005859375,0.0947265625
1015,3.056,IMU2,34.146341463414636,-4.024390243902439,15.853658536585368,0.0263671875,0.0810546875,0.0859375
1016,3.066,IMU0,33.65853658536586,-1.2195121951219514,17.073170731707318,-0.0205078125,-0.0087890625,0.083984375
1017,3.066,IMU1,36.09756097560976,-3.231707317073171,17.439024390243905,-0.021484375,-0.0146484375,0.1005859375
1018,3.066,IMU2,34.69512195121951,-1.5853658536585367,17.012195121951223,-0.0341796875,-0.0244140625,0.09765625
1019,3.076,IMU0,33.84146341463415,-1.707317073170732,18.10975609756098,0.015625,0.064453125,0.0947265625
1020,3.076,IMU1,36.707317073170735,-2.073170731707317,18.597560975609756,0.015625,0.0693359375,0.1015625
1021,3.076,IMU2,35.243902439024396,-0.9146341463414634,18.170731707317074,0.0078125,0.0595703125,0.0947265625
1022,3.086,IMU0,33.35365853658537,-1.5853658536585367,18.84146341463415,-0.0322265625,0.0263671875,0.07421875
1023,3.086,IMU1,35.85365853658537,-2.439024390243903,19.390243902439025,-0.0380859375,0.0400390625,0.080078125
1024,3.086,IMU2,34.451219512195124,-1.0975609756097562,18.902439024390244,-0.046875,0.0263671875,0.0703125
1025,3.096,IMU0,34.32926829268293,-0.1829268292682927,19.390243902439025,0.03515625,0.0068359375,0.111328125
1026,3.096,IMU1,36.768292682926834,-1.6463414634146343,19.695121951219512,0.0283203125,0.03125,0.111328125
1027,3.096,IMU2,35.426829268292686,-0.24390243902439027,19.32926829268293,0.0205078125,0.0166015625,0.107421875
1028,3.106,IMU0,34.32926829268293,1.8902439024390245,21.219512195121954,-0.0107421875,0.0361328125,0.060546875
1029,3.106,IMU1,36.951219512195124,1.829268292682927,21.951219512195124,-0.0029296875,0.015625,0.091796875
1030,3.106,IMU2,35.54878048780488,2.987804878048781,21.52439024390244,-0.0126953125,0.0068359375,0.078125
1031,3.116,IMU0,35.426829268292686,-1.2804878048780488,22.195121951219512,0.03125,-0.0107421875,0.0654296875
1032,3.116,IMU1,38.35365853658537,-3.1707317073170733,22.439024390243905,0.0283203125,0.0400390625,0.0302734375
1033,3.116,IMU2,36.82926829268293,-1.8902439024390245,22.012195121951223,0.0224609375,0.0263671875,0.021484375
1034,3.126,IMU0,36.34146341463415,5.670731707317073,24.390243902439025,0.033203125,0.041015625,0.0537109375
1035,3.126,IMU1,38.71951219512196,6.219512195121951,25.0609756097561,0.021484375,-0.005859375,0.12109375
1036,3.126,IMU2,37.37804878048781,7.621951219512196,24.695121951219516,0.0068359375,-0.017578125,0.1142578125
1037,3.136,IMU0,35.97560975609756,-1.0975609756097562,23.414634146341466,-0.0009765625,-0.01171875,0.0693359375
1038,3.136,IMU1,38.90243902439025,-3.536585365853659,23.53658536585366,0.0146484375,0.06640625,0.0224609375
1039,3.136,IMU2,37.5,-2.439024390243903,23.170731707317074,0.0087890625,0.0576171875,0.0068359375
1040,3.146,IMU0,36.524390243902445,6.52439024390244,23.902439024390247,0.02734375,0.068359375,0.0595703125
1041,3.146,IMU1,38.59756097560976,7.439024390243903,24.695121951219516,0.00390625,0.0068359375,0.1240234375
1042,3.146,IMU2,37.31707317073171,8.841463414634147,24.32926829268293,-0.0126953125,-0.0107421875,0.125
1043,3.156,IMU0,35.54878048780488,0.426829268292683,23.719512195121954,-0.01171875,-0.0341796875,0.1005859375
1044,3.156,IMU1,38.59756097560976,-2.378048780487805,23.719512195121954,0.0087890625,0.0439453125,0.06640625
1045,3.156,IMU2,37.31707317073171,-1.2195121951219514,23.353658536585368,0.00390625,0.0400390625,0.046875
1046,3.166,IMU0,37.6829268292683,2.987804878048781,25.000000000000004,0.03125,0.0703125,0.0478515625
1047,3.166,IMU1,39.93902439024391,3.8414634146341466,25.914634146341466,0.015625,0.0263671875,0.083984375
1048,3.166,IMU2,38.59756097560976,5.182926829268293,25.54878048780488,0.00390625,0.0068359375,0.08203125
1049,3.176,IMU0,37.43902439024391,0.30487804878048785,27.865853658536587,-0.0087890625,-0.0419921875,0.1025390625
1050,3.176,IMU1,40.36585365853659,-2.0121951219512195,28.10975609756098,0.0068359375,-0.0029296875,0.0849609375
1051,3.176,IMU2,38.963414634146346,-0.9146341463414634,27.743902439024392,0.0009765625,-0.0068359375,0.0693359375
1052,3.186,IMU0,39.207317073170735,-1.2195121951219514,30.0609756097561,0.046875,0.06640625,0.025390625
1053,3.186,IMU1,42.13414634146342,-1.2195121951219514,30.670731707317074,0.04296875,0.0751953125,0.033203125
1054,3.186,IMU2,40.73170731707317,0.24390243902439027,30.365853658536587,0.03515625,0.060546875,0.03125
1055,3.196,IMU0,39.207317073170735,-1.3414634146341464,31.402439024390247,0.0576171875,0.0234375,0.044921875
1056,3.196,IMU1,41.646341463414636,-2.682926829268293,31.76829268292683,0.0556640625,0.013671875,0.0625
1057,3.196,IMU2,40.1219512195122,-1.707317073170732,31.34146341463415,0.0439453125,-0.0009765625,0.0615234375
1058,3.206,IMU0,38.04878048780488,-4.390243902439025,31.09756097560976,0.0654296875,-0.00390625,0.0341796875
1059,3.206,IMU1,40.73170731707317,-5.3048780487804885,31.280487804878053,0.056640625,0.009765625,0.0400390625
1060,3.206,IMU2,39.268292682926834,-4.024390243902439,30.914634146341466,0.046875,0.001953125,0.0263671875
1061,3.216,IMU0,38.59756097560976,-4.207317073170732,30.54878048780488,0.0693359375,0.0263671875,0.0380859375
1062,3.216,IMU1,41.58536585365854,-4.634146341463415,30.914634146341466,0.0703125,0.052734375,0.0478515625
1063,3.216,IMU2,40.1219512195122,-3.1707317073170733,30.54878048780488,0.0625,0.0439453125,0.0380859375
1064,3.226,IMU0,39.207317073170735,-4.146341463414634,30.000000000000004,0.0888671875,0.0380859375,0.037109375
1065,3.226,IMU1,41.951219512195124,-5.182926829268293,30.426829268292686,0.087890625,0.0439453125,0.0478515625
1066,3.226,IMU2,40.426829268292686,-4.024390243902439,30.000000000000004,0.0791015625,0.0283203125,0.041015625
1067,3.236,IMU0,38.71951219512196,-5.3048780487804885,29.512195121951223,0.11328125,0.0224609375,0.0146484375
1068,3.236,IMU1,41.28048780487805,-6.219512195121951,29.87804878048781,0.10546875,0.015625,0.021484375
1069,3.236,IMU2,39.69512195121951,-4.878048780487806,29.512195121951223,0.091796875,-0.0048828125,0.0185546875
1070,3.246,IMU0,38.23170731707317,-4.878048780487806,28.963414634146343,0.1171875,-0.009765625,0.0185546875
1071,3.246,IMU1,41.03658536585366,-5.731707317073171,29.39024390243903,0.1083984375,-0.01171875,0.029296875
1072,3.246,IMU2,39.451219512195124,-4.390243902439025,28.963414634146343,0.0947265625,-0.0244140625,0.0234375
1073,3.256,IMU0,37.987804878048784,-4.573170731707317,28.04878048780488,0.126953125,-0.0107421875,0.0087890625
1074,3.256,IMU1,40.670731707317074,-5.487804878048781,28.53658536585366,0.1181640625,0.0,0.01171875
1075,3.256,IMU2,39.268292682926834,-4.207317073170732,28.10975609756098,0.10546875,-0.0087890625,0.0009765625
1076,3.266,IMU0,37.987804878048784,-3.5975609756097566,27.134146341463417,0.1357421875,0.0078125,0.0
1077,3.266,IMU1,40.60975609756098,-4.51219512195122,27.5609756097561,0.1318359375,0.013671875,0.0009765625
1078,3.266,IMU2,39.146341463414636,-3.1707317073170733,27.134146341463417,0.1201171875,0.005859375,-0.0078125
1079,3.276,IMU0,37.86585365853659,-4.085365853658537,26.951219512195124,0.154296875,0.0087890625,-0.017578125
1080,3.276,IMU1,40.54878048780488,-4.878048780487806,27.25609756097561,0.150390625,0.0107421875,-0.0146484375
1081,3.276,IMU2,39.08536585365854,-3.5975609756097566,26.82926829268293,0.138671875,0.0068359375,-0.0283203125
1082,3.286,IMU0,38.41463414634147,-4.451219512195122,27.31707317073171,0.1728515625,-0.0087890625,-0.0234375
1083,3.286,IMU1,41.09756097560976,-5.182926829268293,27.682926829268297,0.169921875,-0.0126953125,-0.01953125
1084,3.286,IMU2,39.63414634146342,-4.024390243902439,27.31707317073171,0.1591796875,-0.0087890625,-0.03125
1085,3.296,IMU0,39.08536585365854,-4.817073170731708,27.682926829268297,0.1923828125,-0.02734375,-0.0400390625
1086,3.296,IMU1,41.58536585365854,-5.609756097560976,28.04878048780488,0.19140625,-0.0087890625,-0.03125
1087,3.296,IMU2,40.36585365853659,-4.329268292682928,27.743902439024392,0.1806640625,-0.029296875,-0.0419921875
1088,3.306,IMU0,39.390243902439025,-5.0,28.414634146341466,0.2099609375,-0.0107421875,-0.0400390625
1089,3.306,IMU1,41.951219512195124,-5.853658536585367,28.780487804878053,0.2060546875,-0.0009765625,-0.0390625
1090,3.306,IMU2,40.60975609756098,-4.51219512195122,28.475609756097562,0.1982421875,-0.013671875,-0.048828125
1091,3.316,IMU0,39.63414634146342,-5.365853658536586,29.39024390243903,0.205078125,-0.0322265625,-0.0693359375
1092,3.316,IMU1,42.25609756097561,-6.219512195121951,29.75609756097561,0.2001953125,-0.013671875,-0.0615234375
1093,3.316,IMU2,40.91463414634147,-4.817073170731708,29.39024390243903,0.1943359375,-0.037109375,-0.068359375
1094,3.326,IMU0,40.54878048780488,-5.182926829268293,30.60975609756098,0.1884765625,-0.0322265625,-0.0908203125
1095,3.326,IMU1,43.47560975609756,-5.853658536585367,30.975609756097565,0.181640625,-0.017578125,-0.0791015625
1096,3.326,IMU2,41.768292682926834,-4.817073170731708,30.54878048780488,0.173828125,-0.0341796875,-0.080078125
1097,3.336,IMU0,42.31707317073171,-3.963414634146342,31.52439024390244,0.1962890625,-0.0009765625,-0.06640625
1098,3.336,IMU1,45.36585365853659,-4.634146341463415,31.82926829268293,0.1962890625,0.0087890625,-0.0537109375
1099,3.336,IMU2,43.59756097560976,-3.536585365853659,31.52439024390244,0.1826171875,-0.0029296875,-0.0576171875
1100,3.346,IMU0,43.04878048780488,-3.353658536585366,31.646341463414636,0.22265625,-0.01171875,-0.05078125
1101,3.346,IMU1,45.670731707317074,-4.207317073170732,31.82926829268293,0.224609375,-0.005859375,-0.0458984375
1102,3.346,IMU2,44.268292682926834,-2.804878048780488,31.76829268292683,0.212890625,-0.0126953125,-0.0556640625
1103,3.356,IMU0,42.01219512195122,-4.024390243902439,31.89024390243903,0.2060546875,-0.0439453125,-0.0634765625
1104,3.356,IMU1,44.63414634146342,-4.939024390243903,32.19512195121951,0.2041015625,-0.029296875,-0.060546875
1105,3.356,IMU2,43.35365853658537,-3.414634146341464,31.951219512195124,0.1943359375,-0.048828125,-0.0703125
1106,3.366,IMU0,42.43902439024391,-4.024390243902439,32.6829268292683,0.201171875,-0.0390625,-0.078125
1107,3.366,IMU1,45.243902439024396,-4.817073170731708,33.109756097560975,0.1962890625,-0.0185546875,-0.07421875
1108,3.366,IMU2,43.71951219512196,-3.414634146341464,32.6219512195122,0.181640625,-0.0478515625,-0.07421875
1109,3.376,IMU0,45.79268292682927,-4.024390243902439,32.743902439024396,0.197265625,-0.033203125,-0.0927734375
