,ts,id,Gx,Gy,Gz,Ax,Ay,Az
0,-0.331,IMU0,11.646341463414634,0.06097560975609757,-5.975609756097562,-0.0400390625,1.03515625,0.087890625
1,-0.331,IMU1,0.853658536585366,0.7317073170731708,-0.06097560975609757,0.0263671875,0.9921875,0.1376953125
2,-0.321,IMU0,11.28048780487805,-0.3658536585365854,-6.036585365853659,-0.0244140625,1.02734375,0.0927734375
3,-0.321,IMU1,0.9756097560975611,0.7926829268292683,-0.12195121951219513,0.0263671875,0.9921875,0.1357421875
4,-0.311,IMU0,11.28048780487805,-0.1829268292682927,-6.097560975609756,-0.0283203125,1.0283203125,0.0947265625
5,-0.311,IMU1,0.9146341463414634,0.7317073170731708,-0.06097560975609757,0.0263671875,0.9921875,0.1376953125
6,-0.301,IMU0,11.402439024390246,0.06097560975609757,-5.548780487804878,-0.0224609375,1.0205078125,0.103515625
7,-0.301,IMU1,0.853658536585366,0.6707317073170732,-0.06097560975609757,0.0263671875,0.9912109375,0.13671875
8,-0.291,IMU0,11.829268292682928,0.1829268292682927,-5.426829268292684,-0.03125,1.0244140625,0.1064453125
9,-0.291,IMU1,0.9146341463414634,0.7317073170731708,-0.06097560975609757,0.02734375,0.9912109375,0.138671875
10,-0.281,IMU0,11.829268292682928,0.24390243902439027,-5.853658536585367,-0.0361328125,1.0341796875,0.1044921875
11,-0.281,IMU1,0.9146341463414634,0.7317073170731708,-0.12195121951219513,0.0263671875,0.9921875,0.138671875
12,-0.271,IMU0,11.707317073170733,0.30487804878048785,-6.036585365853659,-0.0244140625,1.0341796875,0.0908203125
13,-0.271,IMU1,0.9756097560975611,0.7317073170731708,-0.12195121951219513,0.02734375,0.9931640625,0.1396484375
14,-0.261,IMU0,11.707317073170733,0.0,-5.975609756097562,-0.0322265625,1.0361328125,0.1015625
15,-0.261,IMU1,0.9756097560975611,0.7926829268292683,-0.12195121951219513,0.025390625,0.9931640625,0.1376953125
16,-0.251,IMU0,11.951219512195124,0.1829268292682927,-6.341463414634147,-0.0224609375,1.0322265625,0.091796875
17,-0.251,IMU1,0.9756097560975611,0.7317073170731708,-0.12195121951219513,0.0263671875,0.9921875,0.1376953125
18,-0.241,IMU0,11.097560975609756,0.12195121951219513,-6.341463414634147,-0.03125,1.0341796875,0.087890625
19,-0.241,IMU1,0.9756097560975611,0.7317073170731708,-0.12195121951219513,0.02734375,0.9931640625,0.13671875
20,-0.231,IMU0,11.463414634146343,0.7317073170731708,-6.52439024390244,-0.0419921875,1.0283203125,0.0849609375
21,-0.231,IMU1,0.9756097560975611,0.7317073170731708,-0.12195121951219513,0.0263671875,0.9931640625,0.13671875
22,-0.221,IMU0,11.951219512195124,0.426829268292683,-5.914634146341464,-0.0244140625,1.0244140625,0.087890625
23,-0.221,IMU1,0.9146341463414634,0.7926829268292683,-0.12195121951219513,0.02734375,0.9921875,0.13671875
24,-0.211,IMU0,12.01219512195122,0.1829268292682927,-6.036585365853659,-0.0283203125,1.0166015625,0.103515625
25,-0.211,IMU1,0.9146341463414634,0.7317073170731708,-0.12195121951219513,0.02734375,0.9921875,0.13671875
26,-0.201,IMU0,11.585365853658537,0.3658536585365854,-6.219512195121951,-0.0234375,1.0234375,0.1103515625
27,-0.201,IMU1,0.9146341463414634,0.7317073170731708,-0.12195121951219513,0.0263671875,0.9921875,0.1357421875
28,-0.191,IMU0,11.52439024390244,0.1829268292682927,-6.158536585365854,-0.0234375,1.029296875,0.1005859375
29,-0.191,IMU1,0.9756097560975611,0.7317073170731708,-0.12195121951219513,0.0263671875,0.9931640625,0.13671875
30,-0.181,IMU0,11.341463414634147,0.30487804878048785,-6.402439024390245,-0.0263671875,1.0263671875,0.0927734375
31,-0.181,IMU1,0.9756097560975611,0.7317073170731708,-0.06097560975609757,0.025390625,0.9921875,0.1357421875
32,-0.171,IMU0,11.707317073170733,0.30487804878048785,-6.2804878048780495,-0.0244140625,1.01953125,0.099609375
33,-0.171,IMU1,0.9756097560975611,0.7317073170731708,-0.06097560975609757,0.0263671875,0.9921875,0.1376953125
34,-0.161,IMU0,11.52439024390244,0.06097560975609757,-5.7926829268292686,-0.03515625,1.0234375,0.08984375
35,-0.161,IMU1,0.9146341463414634,0.7926829268292683,0.0,0.025390625,0.9921875,0.1376953125
36,-0.151,IMU0,11.036585365853659,0.1829268292682927,-6.219512195121951,-0.0302734375,1.0185546875,0.078125
37,-0.151,IMU1,0.9146341463414634,0.7317073170731708,-0.06097560975609757,0.0263671875,0.9921875,0.13671875
38,-0.141,IMU0,11.463414634146343,0.12195121951219513,-6.341463414634147,-0.025390625,1.0244140625,0.0908203125
39,-0.141,IMU1,0.853658536585366,0.7317073170731708,-0.06097560975609757,0.0263671875,0.9921875,0.13671875
40,-0.131,IMU0,11.402439024390246,0.30487804878048785,-6.158536585365854,-0.0263671875,1.0322265625,0.0947265625
41,-0.131,IMU1,0.853658536585366,0.7317073170731708,-0.06097560975609757,0.0263671875,0.9921875,0.13671875
42,-0.121,IMU0,11.402439024390246,0.0,-5.914634146341464,-0.0146484375,1.0302734375,0.08984375
43,-0.121,IMU1,0.9146341463414634,0.7317073170731708,-0.06097560975609757,0.02734375,0.9921875,0.13671875
44,-0.111,IMU0,11.646341463414634,0.0,-6.097560975609756,-0.0263671875,1.0302734375,0.099609375
45,-0.111,IMU1,0.853658536585366,0.7317073170731708,-0.06097560975609757,0.0244140625,0.9921875,0.13671875
46,-0.101,IMU0,12.195121951219512,-0.5487804878048781,-6.2804878048780495,-0.033203125,1.0849609375,0.0810546875
47,-0.101,IMU1,0.853658536585366,0.6707317073170732,-0.06097560975609757,0.0146484375,1.0537109375,0.1376953125
48,-0.091,IMU0,11.829268292682928,-0.9146341463414634,-6.890243902439025,-0.1318359375,3.349609375,0.0283203125
49,-0.091,IMU1,0.7317073170731708,0.06097560975609757,-0.24390243902439027,-0.048828125,3.490234375,0.142578125
50,-0.081,IMU0,11.707317073170733,0.6097560975609757,-6.219512195121951,-0.052734375,7.181640625,0.0029296875
51,-0.081,IMU1,0.9146341463414634,1.4634146341463417,-0.1829268292682927,0.0400390625,7.302734375,0.2490234375
52,-0.071,IMU0,11.707317073170733,1.8902439024390245,-5.3048780487804885,-0.060546875,9.23828125,0.02734375
53,-0.071,IMU1,0.3658536585365854,2.804878048780488,0.7317073170731708,0.0390625,9.3310546875,0.314453125
54,-0.061,IMU0,11.341463414634147,3.353658536585366,-4.695121951219512,-0.0966796875,10.009765625,-0.041015625
55,-0.061,IMU1,0.0,4.878048780487806,1.3414634146341464,0.0205078125,10.0859375,0.259765625
56,-0.051,IMU0,9.939024390243903,7.500000000000001,-6.097560975609756,-0.046875,9.9716796875,0.248046875
57,-0.051,IMU1,-0.6097560975609757,9.26829268292683,-0.5487804878048781,0.0693359375,9.98828125,0.576171875
58,-0.041,IMU0,11.646341463414634,11.036585365853659,-4.390243902439025,-0.0615234375,10.787109375,-0.015625
59,-0.041,IMU1,0.853658536585366,13.109756097560977,0.7317073170731708,0.05078125,10.5078125,0.5966796875
60,-0.031,IMU0,10.670731707317074,10.914634146341465,-5.487804878048781,-0.07421875,10.9248046875,0.0478515625
61,-0.031,IMU1,0.06097560975609757,12.865853658536587,-0.06097560975609757,0.048828125,10.8232421875,0.5537109375
62,-0.021,IMU0,9.695121951219512,10.30487804878049,-6.7682926829268295,-0.044921875,11.1162109375,-0.005859375
63,-0.021,IMU1,0.0,11.463414634146343,-0.6707317073170732,0.0712890625,11.1103515625,0.404296875
64,-0.011,IMU0,10.548780487804878,9.51219512195122,-7.134146341463415,-0.0791015625,11.2578125,0.0234375
65,-0.011,IMU1,0.1829268292682927,10.975609756097562,-0.9146341463414634,0.0478515625,11.2841796875,0.39453125
66,-0.001,IMU0,10.548780487804878,10.548780487804878,-7.560975609756098,-0.072265625,11.412109375,0.0322265625
67,-0.001,IMU1,0.12195121951219513,11.646341463414634,-1.0975609756097562,0.0390625,11.470703125,0.4013671875
68,0.009,IMU0,10.731707317073171,10.731707317073171,-7.378048780487806,-0.0966796875,11.5224609375,0.03515625
69,0.009,IMU1,0.1829268292682927,12.439024390243903,-1.0975609756097562,0.029296875,11.58203125,0.3818359375
70,0.019,IMU0,11.585365853658537,11.585365853658537,-6.7682926829268295,-0.076171875,11.55078125,0.068359375
71,0.019,IMU1,0.6097560975609757,13.475609756097562,-0.5487804878048781,0.048828125,11.6201171875,0.40234375
72,0.029,IMU0,11.76829268292683,12.865853658536587,-6.097560975609756,-0.0673828125,11.5693359375,0.03125
73,0.029,IMU1,0.853658536585366,14.451219512195124,0.30487804878048785,0.0322265625,11.630859375,0.3974609375
74,0.039,IMU0,12.01219512195122,15.853658536585368,-5.2439024390243905,-0.0576171875,11.5537109375,0.04296875
75,0.039,IMU1,1.524390243902439,16.890243902439025,0.7926829268292683,0.044921875,11.6142578125,0.412109375
76,0.049,IMU0,12.256097560975611,15.487804878048783,-5.3048780487804885,-0.0498046875,11.5888671875,-0.015625
77,0.049,IMU1,1.8902439024390245,16.402439024390244,1.1585365853658538,0.0517578125,11.650390625,0.3486328125
78,0.059,IMU0,12.987804878048781,14.329268292682928,-4.695121951219512,0.0048828125,11.650390625,0.1103515625
79,0.059,IMU1,2.378048780487805,15.060975609756099,1.524390243902439,0.078125,11.71484375,0.5244140625
80,0.069,IMU0,12.378048780487806,14.573170731707318,-4.207317073170732,-0.0703125,11.6796875,0.033203125
81,0.069,IMU1,2.3170731707317076,14.939024390243905,1.402439024390244,0.0361328125,11.744140625,0.3759765625
82,0.079,IMU0,13.29268292682927,15.000000000000002,-5.121951219512195,-0.0498046875,11.646484375,0.07421875
83,0.079,IMU1,3.048780487804878,16.03658536585366,1.0365853658536586,0.068359375,11.7109375,0.4052734375
84,0.089,IMU0,13.658536585365855,17.134146341463417,-4.634146341463415,-0.0224609375,11.626953125,0.087890625
85,0.089,IMU1,2.8658536585365857,17.98780487804878,1.402439024390244,0.0859375,11.69140625,0.423828125
86,0.099,IMU0,13.353658536585368,17.012195121951223,-4.024390243902439,-0.01171875,11.642578125,0.0234375
87,0.099,IMU1,2.7439024390243905,18.10975609756098,2.1341463414634148,0.080078125,11.7099609375,0.388671875
88,0.109,IMU0,13.841463414634148,17.865853658536587,-3.1097560975609757,-0.041015625,11.630859375,0.0712890625
89,0.109,IMU1,2.8658536585365857,18.902439024390244,2.804878048780488,0.064453125,11.7021484375,0.427734375
90,0.119,IMU0,13.414634146341465,18.963414634146343,-2.6219512195121952,-0.0302734375,11.6162109375,0.0634765625
91,0.119,IMU1,2.987804878048781,19.634146341463417,3.4756097560975614,0.08203125,11.681640625,0.4111328125
92,0.129,IMU0,13.536585365853659,19.085365853658537,-2.1341463414634148,-0.037109375,11.5791015625,0.0751953125
93,0.129,IMU1,3.048780487804878,20.30487804878049,4.085365853658537,0.0615234375,11.642578125,0.431640625
94,0.139,IMU0,13.78048780487805,19.32926829268293,-2.1341463414634148,-0.033203125,11.564453125,0.052734375
95,0.139,IMU1,2.8658536585365857,20.60975609756098,4.634146341463415,0.072265625,11.638671875,0.4111328125
96,0.149,IMU0,13.29268292682927,20.0609756097561,-1.7682926829268295,-0.0537109375,11.583984375,0.07421875
97,0.149,IMU1,2.8658536585365857,21.219512195121954,5.121951219512195,0.05859375,11.6494140625,0.4150390625
98,0.159,IMU0,13.231707317073171,20.853658536585368,-1.7682926829268295,-0.052734375,11.5498046875,0.109375
99,0.159,IMU1,2.5,22.134146341463417,5.426829268292684,0.05078125,11.6171875,0.4423828125
100,0.169,IMU0,12.865853658536587,21.82926829268293,-1.3414634146341464,-0.07421875,11.48828125,0.1044921875
101,0.169,IMU1,1.7682926829268295,23.231707317073173,5.670731707317073,0.0439453125,11.5576171875,0.439453125
102,0.179,IMU0,11.76829268292683,23.10975609756098,-1.7682926829268295,-0.0751953125,11.4453125,0.09765625
103,0.179,IMU1,0.9146341463414634,24.146341463414636,5.670731707317073,0.0458984375,11.5126953125,0.4453125
104,0.189,IMU0,10.914634146341465,24.085365853658537,-1.707317073170732,-0.0732421875,11.4267578125,0.083984375
105,0.189,IMU1,0.0,25.0609756097561,5.731707317073171,0.03515625,11.4970703125,0.44140625
106,0.199,IMU0,10.0,24.451219512195124,-0.9756097560975611,-0.0703125,11.41015625,0.1025390625
107,0.199,IMU1,-1.0975609756097562,25.853658536585368,5.731707317073171,0.0439453125,11.4814453125,0.4560546875
108,0.209,IMU0,8.658536585365855,25.670731707317074,-1.3414634146341464,-0.0712890625,11.4052734375,0.0986328125
109,0.209,IMU1,-2.439024390243903,26.34146341463415,5.670731707317073,0.03515625,11.466796875,0.4521484375
110,0.219,IMU0,7.01219512195122,25.54878048780488,-1.8902439024390245,-0.080078125,11.3818359375,0.1083984375
111,0.219,IMU1,-3.780487804878049,26.707317073170735,5.487804878048781,0.0341796875,11.4345703125,0.462890625
112,0.229,IMU0,6.036585365853659,25.914634146341466,-1.8902439024390245,-0.076171875,11.3466796875,0.1201171875
113,0.229,IMU1,-4.878048780487806,27.5609756097561,5.2439024390243905,0.0341796875,11.41015625,0.46875
114,0.239,IMU0,5.060975609756098,26.82926829268293,-2.073170731707317,-0.0751953125,11.333984375,0.119140625
115,0.239,IMU1,-5.7926829268292686,28.353658536585368,5.0,0.0322265625,11.3974609375,0.47265625
116,0.249,IMU0,4.451219512195122,28.10975609756098,-2.25609756097561,-0.09765625,11.3115234375,0.103515625
117,0.249,IMU1,-6.585365853658537,28.658536585365855,4.75609756097561,0.0087890625,11.365234375,0.478515625
118,0.259,IMU0,4.695121951219512,29.939024390243905,-2.5609756097560976,-0.0537109375,11.1865234375,0.10546875
119,0.259,IMU1,-6.2804878048780495,30.670731707317074,5.0,0.0625,11.244140625,0.4462890625
120,0.269,IMU0,4.695121951219512,31.52439024390244,-1.4634146341463417,-0.052734375,11.0517578125,0.130859375
121,0.269,IMU1,-5.853658536585367,32.6829268292683,5.853658536585367,0.041015625,11.1171875,0.474609375
122,0.279,IMU0,5.365853658536586,34.024390243902445,-0.6097560975609757,-0.060546875,10.927734375,0.130859375
123,0.279,IMU1,-5.609756097560976,35.243902439024396,6.585365853658537,0.0380859375,10.9931640625,0.4658203125
124,0.289,IMU0,5.3048780487804885,36.951219512195124,0.06097560975609757,-0.076171875,10.85546875,0.1669921875
125,0.289,IMU1,-5.487804878048781,37.80487804878049,7.01219512195122,0.01171875,10.912109375,0.4951171875
126,0.299,IMU0,4.51219512195122,39.451219512195124,-0.3658536585365854,-0.08984375,10.818359375,0.173828125
127,0.299,IMU1,-5.548780487804878,40.243902439024396,7.134146341463415,0.0078125,10.873046875,0.501953125
128,0.309,IMU0,4.878048780487806,41.21951219512196,-0.7926829268292683,-0.091796875,10.78515625,0.1962890625
129,0.309,IMU1,-5.548780487804878,42.13414634146342,7.073170731707318,0.0048828125,10.8349609375,0.5087890625
130,0.319,IMU0,5.182926829268293,42.6219512195122,-1.0365853658536586,-0.103515625,10.744140625,0.185546875
131,0.319,IMU1,-5.670731707317073,43.59756097560976,6.7682926829268295,-0.0009765625,10.7841796875,0.4990234375
132,0.329,IMU0,4.451219512195122,44.207317073170735,-1.2804878048780488,-0.0947265625,10.6962890625,0.189453125
133,0.329,IMU1,-6.036585365853659,45.54878048780488,6.463414634146342,0.0,10.734375,0.5107421875
134,0.339,IMU0,3.780487804878049,45.73170731707317,-1.5853658536585367,-0.0966796875,10.6357421875,0.2099609375
135,0.339,IMU1,-6.7682926829268295,47.6219512195122,6.097560975609756,0.013671875,10.6748046875,0.52734375
136,0.349,IMU0,3.1707317073170733,47.804878048780495,-1.9512195121951221,-0.1015625,10.5771484375,0.2001953125
137,0.349,IMU1,-7.500000000000001,49.69512195121952,5.670731707317073,0.001953125,10.6259765625,0.517578125
138,0.359,IMU0,2.1341463414634148,49.87804878048781,-2.0121951219512195,-0.1240234375,10.517578125,0.1923828125
139,0.359,IMU1,-8.231707317073171,51.585365853658544,5.3048780487804885,-0.013671875,10.5732421875,0.5146484375
140,0.369,IMU0,1.7682926829268295,51.768292682926834,-2.1341463414634148,-0.12109375,10.49609375,0.1953125
141,0.369,IMU1,-9.085365853658537,53.53658536585366,4.939024390243903,-0.0107421875,10.54296875,0.5087890625
142,0.379,IMU0,0.853658536585366,54.085365853658544,-2.6219512195121952,-0.1328125,10.453125,0.203125
143,0.379,IMU1,-10.121951219512196,56.03658536585366,4.451219512195122,-0.03125,10.4931640625,0.5146484375
144,0.389,IMU0,0.1829268292682927,56.646341463414636,-3.536585365853659,-0.1259765625,10.400390625,0.162109375
145,0.389,IMU1,-10.975609756097562,58.65853658536586,3.658536585365854,-0.0244140625,10.4462890625,0.4853515625
146,0.399,IMU0,-0.30487804878048785,57.926829268292686,-4.878048780487806,-0.12890625,10.337890625,0.162109375
147,0.399,IMU1,-11.646341463414634,59.69512195121952,2.8658536585365857,-0.03125,10.392578125,0.470703125
148,0.409,IMU0,-1.402439024390244,58.17073170731708,-4.817073170731708,-0.1083984375,10.29296875,0.1376953125
149,0.409,IMU1,-12.073170731707318,60.00000000000001,2.25609756097561,-0.013671875,10.349609375,0.4521484375
150,0.419,IMU0,-1.9512195121951221,59.146341463414636,-4.329268292682928,-0.09375,10.236328125,0.10546875
151,0.419,IMU1,-12.439024390243903,60.426829268292686,1.9512195121951221,0.0,10.2939453125,0.4306640625
152,0.429,IMU0,-2.0121951219512195,59.69512195121952,-4.939024390243903,-0.1318359375,10.17578125,0.1025390625
153,0.429,IMU1,-12.439024390243903,60.91463414634147,1.7682926829268295,-0.017578125,10.236328125,0.4296875
154,0.439,IMU0,-1.7682926829268295,60.243902439024396,-4.878048780487806,-0.1171875,10.111328125,0.076171875
155,0.439,IMU1,-12.256097560975611,61.768292682926834,1.5853658536585367,-0.0078125,10.1689453125,0.39453125
156,0.449,IMU0,-0.9146341463414634,60.97560975609757,-5.426829268292684,-0.1240234375,10.0400390625,0.0693359375
157,0.449,IMU1,-11.890243902439025,62.6219512195122,1.2804878048780488,-0.0234375,10.103515625,0.3779296875
158,0.459,IMU0,-0.426829268292683,62.01219512195122,-6.951219512195123,-0.1279296875,9.9716796875,0.060546875
159,0.459,IMU1,-11.463414634146343,63.963414634146346,0.6097560975609757,-0.0263671875,10.03515625,0.3662109375
160,0.469,IMU0,0.24390243902439027,63.963414634146346,-8.048780487804878,-0.091796875,9.90625,0.03515625
161,0.469,IMU1,-10.670731707317074,66.52439024390245,-0.24390243902439027,-0.001953125,9.966796875,0.333984375
162,0.479,IMU0,1.0975609756097562,67.92682926829269,-8.78048780487805,-0.08984375,9.8544921875,0.0400390625
163,0.479,IMU1,-9.817073170731708,70.1829268292683,-0.853658536585366,0.0,9.908203125,0.3349609375
164,0.489,IMU0,1.707317073170732,71.09756097560977,-9.26829268292683,-0.0654296875,9.7509765625,0.0166015625
165,0.489,IMU1,-8.719512195121952,73.41463414634147,-1.3414634146341464,0.029296875,9.810546875,0.31640625
166,0.499,IMU0,3.048780487804878,72.98780487804879,-9.878048780487806,-0.080078125,9.638671875,0.001953125
167,0.499,IMU1,-7.195121951219513,75.73170731707317,-2.1951219512195124,0.0009765625,9.689453125,0.2998046875
168,0.509,IMU0,4.573170731707317,75.1829268292683,-10.975609756097562,-0.046875,9.5556640625,0.0185546875
169,0.509,IMU1,-5.487804878048781,77.8658536585366,-3.1097560975609757,0.0341796875,9.6025390625,0.3056640625
170,0.519,IMU0,6.097560975609756,77.01219512195122,-11.951219512195124,-0.0859375,9.4521484375,0.0166015625
171,0.519,IMU1,-3.963414634146342,79.87804878048782,-4.024390243902439,0.0087890625,9.4970703125,0.296875
172,0.529,IMU0,7.500000000000001,78.29268292682927,-12.256097560975611,-0.052734375,9.3447265625,0.02734375
173,0.529,IMU1,-2.804878048780488,81.21951219512196,-4.695121951219512,0.044921875,9.39453125,0.306640625
174,0.539,IMU0,8.658536585365855,79.14634146341464,-13.231707317073171,-0.0791015625,9.26171875,0.0029296875
175,0.539,IMU1,-1.6463414634146343,81.95121951219512,-5.365853658536586,0.0263671875,9.3037109375,0.265625
176,0.549,IMU0,9.817073170731708,79.57317073170732,-13.78048780487805,-0.0458984375,9.1669921875,-0.0146484375
177,0.549,IMU1,-0.3658536585365854,82.5609756097561,-5.975609756097562,0.046875,9.2158203125,0.26171875
178,0.559,IMU0,11.158536585365855,80.54878048780489,-14.878048780487806,-0.05078125,9.078125,-0.0498046875
179,0.559,IMU1,1.0365853658536586,83.35365853658537,-6.52439024390244,0.037109375,9.1298828125,0.2197265625
180,0.569,IMU0,12.926829268292684,81.28048780487805,-14.451219512195124,-0.0380859375,8.98046875,-0.025390625
181,0.569,IMU1,2.682926829268293,84.14634146341464,-6.829268292682928,0.052734375,9.03515625,0.244140625
182,0.579,IMU0,14.51219512195122,82.13414634146342,-15.000000000000002,-0.0498046875,8.8759765625,-0.046875
183,0.579,IMU1,4.451219512195122,85.0609756097561,-7.195121951219513,0.044921875,8.9306640625,0.21875
184,0.589,IMU0,15.853658536585368,83.47560975609757,-15.731707317073171,-0.02734375,8.771484375,0.0087890625
185,0.589,IMU1,6.2804878048780495,86.34146341463415,-7.743902439024391,0.0576171875,8.82421875,0.2734375
186,0.599,IMU0,17.5,84.45121951219512,-15.975609756097562,0.021484375,8.685546875,-0.0078125
187,0.599,IMU1,7.8048780487804885,87.92682926829269,-8.353658536585366,0.099609375,8.728515625,0.26171875
188,0.609,IMU0,18.78048780487805,86.70731707317074,-16.34146341463415,0.0546875,8.591796875,0.0673828125
189,0.609,IMU1,8.963414634146343,89.75609756097562,-8.597560975609756,0.1337890625,8.6279296875,0.32421875
190,0.619,IMU0,19.634146341463417,89.57317073170732,-16.097560975609756,0.087890625,8.4814453125,0.0927734375
191,0.619,IMU1,9.939024390243903,92.25609756097562,-8.170731707317074,0.1650390625,8.51171875,0.3515625
192,0.629,IMU0,20.0,92.13414634146342,-15.609756097560977,0.099609375,8.365234375,0.0908203125
193,0.629,IMU1,10.30487804878049,95.0609756097561,-7.500000000000001,0.1796875,8.3974609375,0.357421875
194,0.639,IMU0,19.207317073170735,93.96341463414635,-15.243902439024392,0.0869140625,8.2802734375,0.169921875
195,0.639,IMU1,9.939024390243903,97.07317073170732,-6.7682926829268295,0.166015625,8.2998046875,0.41796875
196,0.649,IMU0,19.02439024390244,95.0609756097561,-14.085365853658537,0.12109375,8.17578125,0.1025390625
197,0.649,IMU1,9.634146341463415,98.10975609756099,-5.914634146341464,0.19921875,8.19140625,0.35546875
198,0.659,IMU0,18.78048780487805,97.01219512195122,-13.475609756097562,0.0791015625,8.044921875,0.1396484375
199,0.659,IMU1,9.817073170731708,99.87804878048782,-5.365853658536586,0.1669921875,8.068359375,0.40234375
200,0.669,IMU0,18.29268292682927,98.04878048780489,-12.926829268292684,0.1220703125,7.9345703125,0.1533203125
201,0.669,IMU1,9.573170731707318,101.21951219512196,-4.695121951219512,0.208984375,7.9677734375,0.4052734375
202,0.679,IMU0,18.658536585365855,99.75609756097562,-12.378048780487806,0.109375,7.845703125,0.1796875
203,0.679,IMU1,9.207317073170733,103.04878048780489,-4.085365853658537,0.19921875,7.8720703125,0.4267578125
204,0.689,IMU0,17.926829268292686,101.82926829268294,-11.707317073170733,0.162109375,7.7451171875,0.2294921875
205,0.689,IMU1,8.841463414634147,105.1829268292683,-3.353658536585366,0.234375,7.7685546875,0.46484375
206,0.699,IMU0,17.743902439024392,104.14634146341464,-11.890243902439025,0.1533203125,7.6357421875,0.259765625
207,0.699,IMU1,8.170731707317074,107.56097560975611,-2.7439024390243905,0.22265625,7.6572265625,0.49609375
208,0.709,IMU0,17.378048780487806,106.28048780487806,-11.28048780487805,0.1826171875,7.5185546875,0.275390625
209,0.709,IMU1,7.134146341463415,109.45121951219514,-1.9512195121951221,0.259765625,7.5390625,0.517578125
210,0.719,IMU0,15.670731707317074,106.40243902439025,-10.121951219512196,0.173828125,7.41796875,0.2822265625
211,0.719,IMU1,5.731707317073171,110.1219512195122,-1.2195121951219514,0.25390625,7.4287109375,0.5205078125
212,0.729,IMU0,14.390243902439027,107.19512195121952,-9.451219512195122,0.21484375,7.2958984375,0.3017578125
213,0.729,IMU1,4.207317073170732,110.60975609756099,-0.30487804878048785,0.2861328125,7.298828125,0.537109375
214,0.739,IMU0,12.865853658536587,107.92682926829269,-8.231707317073171,0.1748046875,7.1826171875,0.3115234375
215,0.739,IMU1,2.682926829268293,111.58536585365854,0.7926829268292683,0.26171875,7.185546875,0.5380859375
216,0.749,IMU0,11.707317073170733,109.57317073170732,-6.951219512195123,0.1845703125,7.06640625,0.314453125
217,0.749,IMU1,1.0365853658536586,112.56097560975611,2.0121951219512195,0.2568359375,7.078125,0.537109375
218,0.759,IMU0,9.939024390243903,111.34146341463416,-5.914634146341464,0.1357421875,6.9716796875,0.3310546875
219,0.759,IMU1,-0.7317073170731708,113.84146341463416,2.804878048780488,0.205078125,6.9765625,0.55078125
220,0.769,IMU0,8.170731707317074,113.04878048780489,-5.426829268292684,0.1142578125,6.84765625,0.328125
221,0.769,IMU1,-2.5609756097560976,114.81707317073172,3.1097560975609757,0.197265625,6.8466796875,0.5380859375
222,0.779,IMU0,6.402439024390245,113.84146341463416,-5.2439024390243905,0.1123046875,6.720703125,0.314453125
223,0.779,IMU1,-4.146341463414634,115.91463414634147,3.1707317073170733,0.197265625,6.716796875,0.5283203125
224,0.789,IMU0,4.939024390243903,113.53658536585367,-5.670731707317073,0.1279296875,6.60546875,0.2744140625
225,0.789,IMU1,-5.914634146341464,116.40243902439025,3.048780487804878,0.2109375,6.6025390625,0.4921875
226,0.799,IMU0,3.414634146341464,112.8658536585366,-5.609756097560976,0.14453125,6.5087890625,0.2607421875
227,0.799,IMU1,-7.439024390243903,115.97560975609757,3.1707317073170733,0.2314453125,6.515625,0.466796875
228,0.809,IMU0,2.073170731707317,112.37804878048782,-4.75609756097561,0.150390625,6.4189453125,0.228515625
229,0.809,IMU1,-8.353658536585366,115.00000000000001,3.5975609756097566,0.2314453125,6.4228515625,0.421875
230,0.819,IMU0,1.829268292682927,111.21951219512196,-4.634146341463415,0.12890625,6.3046875,0.1962890625
231,0.819,IMU1,-9.207317073170733,113.78048780487806,3.963414634146342,0.203125,6.3076171875,0.3876953125
232,0.829,IMU0,1.4634146341463417,111.03658536585367,-4.878048780487806,0.0966796875,6.1865234375,0.1484375
233,0.829,IMU1,-9.573170731707318,113.65853658536587,3.658536585365854,0.177734375,6.1943359375,0.33203125
234,0.839,IMU0,1.7682926829268295,111.40243902439025,-5.2439024390243905,0.109375,6.0703125,0.1357421875
235,0.839,IMU1,-9.26829268292683,114.08536585365854,3.231707317073171,0.1865234375,6.0810546875,0.3076171875
236,0.849,IMU0,2.3170731707317076,111.70731707317074,-5.548780487804878,0.083984375,5.9580078125,0.0947265625
237,0.849,IMU1,-8.78048780487805,114.20731707317074,2.804878048780488,0.17578125,5.974609375,0.2783203125
238,0.859,IMU0,2.682926829268293,112.31707317073172,-6.402439024390245,0.087890625,5.849609375,0.1083984375
239,0.859,IMU1,-7.926829268292684,114.75609756097562,2.25609756097561,0.1728515625,5.8623046875,0.283203125
240,0.869,IMU0,3.353658536585366,112.6829268292683,-7.01219512195122,0.0986328125,5.7158203125,0.0849609375
241,0.869,IMU1,-7.134146341463415,115.42682926829269,1.7682926829268295,0.1806640625,5.7294921875,0.255859375
242,0.879,IMU0,3.658536585365854,113.59756097560977,-7.560975609756098,0.1083984375,5.5263671875,0.076171875
243,0.879,IMU1,-6.402439024390245,116.15853658536587,1.402439024390244,0.181640625,5.5302734375,0.2509765625
244,0.889,IMU0,4.207317073170732,114.26829268292684,-7.560975609756098,0.107421875,5.1904296875,0.0361328125
245,0.889,IMU1,-5.670731707317073,116.95121951219514,1.2195121951219514,0.193359375,5.189453125,0.2021484375
246,0.899,IMU0,5.365853658536586,115.3658536585366,-7.317073170731708,0.1083984375,4.7138671875,0.0068359375
247,0.899,IMU1,-4.695121951219512,117.56097560975611,1.2195121951219514,0.185546875,4.7001953125,0.1640625
248,0.909,IMU0,5.975609756097562,115.79268292682927,-7.560975609756098,0.1181640625,4.0947265625,-0.0302734375
249,0.909,IMU1,-3.658536585365854,118.04878048780489,1.2195121951219514,0.1845703125,4.0654296875,0.1064453125
250,0.919,IMU0,7.926829268292684,115.3048780487805,-7.439024390243903,0.123046875,3.357421875,-0.0341796875
251,0.919,IMU1,-2.073170731707317,117.98780487804879,1.1585365853658538,0.1787109375,3.3115234375,0.0712890625
252,0.929,IMU0,9.817073170731708,116.28048780487806,-7.926829268292684,0.1220703125,2.5947265625,-0.025390625
253,0.929,IMU1,-0.5487804878048781,118.84146341463416,1.0975609756097562,0.177734375,2.5400390625,0.056640625
254,0.939,IMU0,10.975609756097562,116.52439024390245,-6.829268292682928,0.119140625,1.9052734375,0.0048828125
255,0.939,IMU1,1.0365853658536586,119.26829268292684,1.3414634146341464,0.185546875,1.8466796875,0.0615234375
256,0.949,IMU0,12.439024390243903,116.52439024390245,-6.646341463414635,0.134765625,1.2939453125,0.0107421875
257,0.949,IMU1,2.7439024390243905,119.08536585365854,1.524390243902439,0.1845703125,1.2421875,0.06640625
258,0.959,IMU0,13.353658536585368,116.70731707317074,-6.341463414634147,0.1298828125,0.763671875,0.0361328125
259,0.959,IMU1,3.8414634146341466,118.96341463414635,2.1341463414634148,0.189453125,0.708984375,0.0830078125
260,0.969,IMU0,13.902439024390246,116.89024390243904,-5.7926829268292686,0.1318359375,0.3056640625,0.048828125
261,0.969,IMU1,4.329268292682928,119.20731707317074,2.9268292682926833,0.1806640625,0.25,0.0751953125
262,0.979,IMU0,14.329268292682928,117.31707317073172,-4.75609756097561,0.111328125,-0.05859375,0.0546875
263,0.979,IMU1,4.817073170731708,119.69512195121952,3.536585365853659,0.1630859375,-0.111328125,0.0615234375
264,0.989,IMU0,15.30487804878049,117.07317073170732,-4.51219512195122,0.1015625,-0.3134765625,0.0439453125
265,0.989,IMU1,5.548780487804878,119.39024390243904,4.085365853658537,0.150390625,-0.3544921875,0.0458984375
266,0.999,IMU0,16.03658536585366,116.82926829268294,-4.207317073170732,0.064453125,-0.4794921875,0.0810546875
267,0.999,IMU1,6.2804878048780495,119.08536585365854,4.390243902439025,0.1142578125,-0.5146484375,0.0849609375
268,1.009,IMU0,16.34146341463415,117.01219512195122,-4.207317073170732,0.0693359375,-0.5751953125,0.1171875
269,1.009,IMU1,6.829268292682928,119.08536585365854,4.451219512195122,0.1181640625,-0.6162109375,0.1103515625
270,1.019,IMU0,16.646341463414636,116.89024390243904,-4.451219512195122,0.0634765625,-0.6376953125,0.1328125
271,1.019,IMU1,7.01219512195122,119.57317073170732,4.51219512195122,0.1123046875,-0.6865234375,0.1416015625
272,1.029,IMU0,16.951219512195124,117.37804878048782,-3.4756097560975614,0.0673828125,-0.6611328125,0.1787109375
273,1.029,IMU1,6.7682926829268295,120.1829268292683,4.817073170731708,0.111328125,-0.71484375,0.173828125
274,1.039,IMU0,16.28048780487805,118.23170731707319,-3.353658536585366,0.0556640625,-0.673828125,0.205078125
275,1.039,IMU1,6.158536585365854,120.85365853658537,5.121951219512195,0.091796875,-0.7275390625,0.205078125
276,1.049,IMU0,15.487804878048783,118.65853658536587,-3.4756097560975614,0.0166015625,-0.67578125,0.240234375
277,1.049,IMU1,5.365853658536586,121.46341463414635,5.2439024390243905,0.068359375,-0.732421875,0.2314453125
278,1.059,IMU0,14.26829268292683,118.96341463414635,-3.5975609756097566,0.005859375,-0.69921875,0.2578125
279,1.059,IMU1,4.2682926829268295,122.01219512195124,5.182926829268293,0.052734375,-0.7373046875,0.255859375
280,1.069,IMU0,13.536585365853659,119.51219512195124,-4.207317073170732,0.0009765625,-0.6904296875,0.2529296875
281,1.069,IMU1,3.048780487804878,122.56097560975611,4.939024390243903,0.0419921875,-0.73828125,0.2529296875
282,1.079,IMU0,12.378048780487806,119.39024390243904,-4.329268292682928,-0.013671875,-0.689453125,0.255859375
283,1.079,IMU1,1.8902439024390245,122.6829268292683,4.573170731707317,0.0283203125,-0.7451171875,0.259765625
284,1.089,IMU0,11.097560975609756,119.81707317073172,-4.390243902439025,-0.017578125,-0.697265625,0.26953125
285,1.089,IMU1,0.7317073170731708,123.04878048780489,4.024390243902439,0.0166015625,-0.7451171875,0.2587890625
286,1.099,IMU0,9.878048780487806,120.2439024390244,-5.731707317073171,-0.037109375,-0.6943359375,0.2509765625
287,1.099,IMU1,-0.426829268292683,123.29268292682927,3.2926829268292686,-0.001953125,-0.7451171875,0.248046875
288,1.109,IMU0,8.536585365853659,120.60975609756099,-6.402439024390245,-0.02734375,-0.6865234375,0.2392578125
289,1.109,IMU1,-1.3414634146341464,123.59756097560977,2.5609756097560976,0.001953125,-0.74609375,0.232421875
290,1.119,IMU0,7.560975609756098,120.54878048780489,-7.317073170731708,-0.0556640625,-0.6943359375,0.2529296875
291,1.119,IMU1,-2.1951219512195124,123.53658536585367,1.5853658536585367,-0.013671875,-0.744140625,0.2333984375
292,1.129,IMU0,7.195121951219513,120.54878048780489,-8.414634146341465,-0.0361328125,-0.6865234375,0.236328125
293,1.129,IMU1,-2.804878048780488,123.47560975609757,0.7317073170731708,0.015625,-0.7431640625,0.2138671875
294,1.139,IMU0,6.707317073170732,120.60975609756099,-9.451219512195122,-0.037109375,-0.69921875,0.236328125
295,1.139,IMU1,-3.2926829268292686,123.90243902439026,-0.24390243902439027,0.0087890625,-0.748046875,0.2255859375
296,1.149,IMU0,6.158536585365854,121.76829268292684,-10.30487804878049,-0.0087890625,-0.7021484375,0.2255859375
297,1.149,IMU1,-3.7195121951219514,124.51219512195124,-1.0975609756097562,0.0224609375,-0.7451171875,0.2265625
298,1.159,IMU0,5.853658536585367,121.76829268292684,-10.24390243902439,0.02734375,-0.6865234375,0.20703125
299,1.159,IMU1,-4.2682926829268295,124.69512195121952,-1.524390243902439,0.0537109375,-0.736328125,0.1962890625
300,1.169,IMU0,5.548780487804878,121.09756097560977,-10.914634146341465,-0.0166015625,-0.6875,0.1826171875
301,1.169,IMU1,-4.634146341463415,124.14634146341464,-1.7682926829268295,0.037109375,-0.7431640625,0.16796875
302,1.179,IMU0,5.609756097560976,120.06097560975611,-11.463414634146343,-0.005859375,-0.6826171875,0.1376953125
303,1.179,IMU1,-4.75609756097561,123.23170731707319,-2.073170731707317,0.05078125,-0.740234375,0.125
304,1.189,IMU0,6.097560975609756,119.20731707317074,-11.585365853658537,-0.0078125,-0.67578125,0.0888671875
305,1.189,IMU1,-4.51219512195122,122.19512195121952,-2.378048780487805,0.0498046875,-0.7265625,0.0849609375
306,1.199,IMU0,6.646341463414635,117.7439024390244,-11.585365853658537,0.0185546875,-0.68359375,0.046875
307,1.199,IMU1,-3.963414634146342,120.85365853658537,-2.6219512195121952,0.0634765625,-0.7265625,0.044921875
308,1.209,IMU0,7.439024390243903,116.34146341463416,-12.256097560975611,0.0087890625,-0.677734375,0.0048828125
309,1.209,IMU1,-2.987804878048781,119.51219512195124,-2.804878048780488,0.05859375,-0.7236328125,0.0009765625
310,1.219,IMU0,8.231707317073171,114.81707317073172,-11.951219512195124,0.029296875,-0.6845703125,-0.046875
311,1.219,IMU1,-1.9512195121951221,117.92682926829269,-2.987804878048781,0.0791015625,-0.720703125,-0.0517578125
312,1.229,IMU0,9.695121951219512,113.71951219512196,-12.195121951219512,0.0234375,-0.677734375,-0.06640625
313,1.229,IMU1,-0.426829268292683,116.70731707317074,-3.048780487804878,0.0888671875,-0.7197265625,-0.080078125
314,1.239,IMU0,11.585365853658537,113.53658536585367,-12.01219512195122,0.060546875,-0.6748046875,-0.078125
315,1.239,IMU1,1.707317073170732,116.09756097560977,-2.7439024390243905,0.115234375,-0.7099609375,-0.0908203125
316,1.249,IMU0,13.29268292682927,112.56097560975611,-11.341463414634147,0.0595703125,-0.6591796875,-0.0361328125
317,1.249,IMU1,3.780487804878049,115.3048780487805,-2.25609756097561,0.1083984375,-0.701171875,-0.0546875
318,1.259,IMU0,15.182926829268293,111.52439024390245,-11.341463414634147,0.0751953125,-0.6552734375,-0.0205078125
319,1.259,IMU1,5.670731707317073,114.45121951219514,-1.6463414634146343,0.126953125,-0.7021484375,-0.0390625
320,1.269,IMU0,16.70731707317073,111.21951219512196,-10.487804878048781,0.0693359375,-0.6572265625,0.0595703125
321,1.269,IMU1,7.073170731707318,113.96341463414635,-1.0975609756097562,0.107421875,-0.69921875,0.037109375
322,1.279,IMU0,17.865853658536587,111.28048780487806,-9.573170731707318,0.08984375,-0.642578125,0.09375
323,1.279,IMU1,8.414634146341465,113.90243902439025,-0.5487804878048781,0.1279296875,-0.6953125,0.0791015625
324,1.289,IMU0,18.414634146341466,110.3048780487805,-9.26829268292683,0.0859375,-0.6328125,0.1611328125
325,1.289,IMU1,9.02439024390244,113.29268292682927,-0.06097560975609757,0.130859375,-0.701171875,0.1474609375
326,1.299,IMU0,18.658536585365855,109.81707317073172,-8.170731707317074,0.095703125,-0.6337890625,0.2216796875
327,1.299,IMU1,8.963414634146343,113.04878048780489,0.6097560975609757,0.1416015625,-0.6904296875,0.2119140625
328,1.309,IMU0,18.29268292682927,110.06097560975611,-7.743902439024391,0.07421875,-0.6298828125,0.24609375
329,1.309,IMU1,8.170731707317074,112.92682926829269,1.2195121951219514,0.1259765625,-0.68359375,0.244140625
330,1.319,IMU0,16.70731707317073,110.73170731707319,-7.439024390243903,0.0869140625,-0.6279296875,0.275390625
331,1.319,IMU1,6.890243902439025,113.23170731707319,1.6463414634146343,0.119140625,-0.6826171875,0.279296875
332,1.329,IMU0,15.609756097560977,110.97560975609757,-6.585365853658537,0.0888671875,-0.6279296875,0.265625
333,1.329,IMU1,5.487804878048781,113.35365853658537,1.8902439024390245,0.1318359375,-0.6865234375,0.263671875
334,1.339,IMU0,14.146341463414636,110.1829268292683,-6.829268292682928,0.0859375,-0.6337890625,0.29296875
335,1.339,IMU1,3.963414634146342,112.6829268292683,2.073170731707317,0.1298828125,-0.68359375,0.2939453125
336,1.349,IMU0,12.682926829268293,110.00000000000001,-6.036585365853659,0.1162109375,-0.623046875,0.2734375
337,1.349,IMU1,2.7439024390243905,112.31707317073172,2.5609756097560976,0.1552734375,-0.6767578125,0.2783203125
338,1.359,IMU0,11.28048780487805,109.63414634146342,-5.182926829268293,0.0859375,-0.62890625,0.2763671875
339,1.359,IMU1,1.4634146341463417,112.31707317073172,2.9268292682926833,0.1298828125,-0.6787109375,0.2822265625
340,1.369,IMU0,10.30487804878049,109.45121951219514,-4.390243902439025,0.0751953125,-0.611328125,0.2734375
341,1.369,IMU1,0.0,112.25609756097562,3.353658536585366,0.12109375,-0.6689453125,0.26953125
342,1.379,IMU0,9.390243902439025,109.51219512195122,-3.963414634146342,0.056640625,-0.5966796875,0.2451171875
343,1.379,IMU1,-1.524390243902439,112.01219512195122,3.8414634146341466,0.1015625,-0.65234375,0.24609375
344,1.389,IMU0,7.621951219512196,108.84146341463416,-3.963414634146342,0.04296875,-0.609375,0.2265625
345,1.389,IMU1,-2.987804878048781,111.21951219512196,4.2682926829268295,0.091796875,-0.6533203125,0.2197265625
346,1.399,IMU0,6.7682926829268295,107.8048780487805,-4.024390243902439,-0.0126953125,-0.6025390625,0.1572265625
347,1.399,IMU1,-3.8414634146341466,110.2439024390244,4.390243902439025,0.0498046875,-0.6474609375,0.1474609375
348,1.409,IMU0,6.219512195121951,107.25609756097562,-4.573170731707317,-0.0283203125,-0.6005859375,0.1298828125
349,1.409,IMU1,-4.085365853658537,109.57317073170732,4.146341463414634,0.0439453125,-0.650390625,0.1201171875
350,1.419,IMU0,6.2804878048780495,106.89024390243904,-4.939024390243903,-0.044921875,-0.61328125,0.095703125
351,1.419,IMU1,-3.8414634146341466,109.08536585365854,3.536585365853659,0.0166015625,-0.6572265625,0.09375
352,1.429,IMU0,6.707317073170732,105.73170731707317,-4.939024390243903,-0.02734375,-0.607421875,0.0947265625
353,1.429,IMU1,-3.2926829268292686,108.10975609756099,3.1097560975609757,0.0263671875,-0.6484375,0.0810546875
354,1.439,IMU0,7.8048780487804885,105.73170731707317,-5.853658536585367,-0.05078125,-0.6044921875,0.1064453125
355,1.439,IMU1,-2.6219512195121952,107.92682926829269,2.5,-0.001953125,-0.6533203125,0.103515625
356,1.449,IMU0,7.865853658536586,105.91463414634147,-6.158536585365854,-0.056640625,-0.5986328125,0.1318359375
357,1.449,IMU1,-2.0121951219512195,107.8658536585366,1.829268292682927,-0.009765625,-0.6513671875,0.123046875
358,1.459,IMU0,8.841463414634147,105.48780487804879,-7.500000000000001,-0.0419921875,-0.58984375,0.1318359375
359,1.459,IMU1,-1.524390243902439,107.31707317073172,1.0365853658536586,0.013671875,-0.64453125,0.1298828125
360,1.469,IMU0,9.26829268292683,105.1219512195122,-8.475609756097562,-0.03515625,-0.599609375,0.17578125
361,1.469,IMU1,-1.2195121951219514,107.19512195121952,0.12195121951219513,0.0078125,-0.650390625,0.1728515625
362,1.479,IMU0,9.146341463414634,104.87804878048782,-8.841463414634147,0.0224609375,-0.5830078125,0.166015625
363,1.479,IMU1,-0.9756097560975611,107.31707317073172,-0.3658536585365854,0.0634765625,-0.6435546875,0.1640625
364,1.489,IMU0,9.390243902439025,105.3048780487805,-8.902439024390244,0.009765625,-0.5595703125,0.1953125
365,1.489,IMU1,-1.0975609756097562,107.43902439024392,-0.48780487804878053,0.0537109375,-0.62890625,0.1875
366,1.499,IMU0,8.841463414634147,105.06097560975611,-8.719512195121952,0.00390625,-0.568359375,0.171875
367,1.499,IMU1,-1.524390243902439,107.43902439024392,-0.48780487804878053,0.056640625,-0.6279296875,0.171875
368,1.509,IMU0,8.170731707317074,104.45121951219514,-8.597560975609756,0.0146484375,-0.5673828125,0.150390625
369,1.509,IMU1,-1.829268292682927,107.25609756097562,-0.48780487804878053,0.056640625,-0.630859375,0.16015625
370,1.519,IMU0,8.475609756097562,104.51219512195122,-8.658536585365855,-0.0029296875,-0.5693359375,0.1044921875
371,1.519,IMU1,-1.7682926829268295,107.25609756097562,-0.5487804878048781,0.05078125,-0.62890625,0.1162109375
372,1.529,IMU0,8.963414634146343,104.69512195121952,-9.085365853658537,0.001953125,-0.5703125,0.130859375
373,1.529,IMU1,-1.6463414634146343,107.37804878048782,-0.7317073170731708,0.0576171875,-0.6298828125,0.14453125
374,1.539,IMU0,8.78048780487805,104.93902439024392,-8.963414634146343,0.0,-0.5859375,0.115234375
375,1.539,IMU1,-1.524390243902439,107.31707317073172,-0.853658536585366,0.0576171875,-0.6337890625,0.109375
376,1.549,IMU0,9.02439024390244,104.26829268292684,-9.207317073170733,0.005859375,-0.5927734375,0.1171875
377,1.549,IMU1,-1.3414634146341464,107.07317073170732,-0.853658536585366,0.0556640625,-0.6337890625,0.1103515625
378,1.559,IMU0,9.207317073170733,104.20731707317074,-9.329268292682928,-0.001953125,-0.5849609375,0.119140625
379,1.559,IMU1,-0.853658536585366,107.25609756097562,-0.7926829268292683,0.0419921875,-0.630859375,0.1064453125
380,1.569,IMU0,9.817073170731708,104.57317073170732,-9.146341463414634,0.0048828125,-0.5849609375,0.109375
381,1.569,IMU1,-0.426829268292683,107.50000000000001,-0.9146341463414634,0.0458984375,-0.6279296875,0.0966796875
382,1.579,IMU0,10.060975609756099,105.00000000000001,-9.634146341463415,-0.01171875,-0.572265625,0.1552734375
383,1.579,IMU1,-0.1829268292682927,107.6219512195122,-1.2804878048780488,0.021484375,-0.619140625,0.1337890625
384,1.589,IMU0,11.219512195121952,104.93902439024392,-10.24390243902439,0.0107421875,-0.5712890625,0.1357421875
385,1.589,IMU1,0.0,107.6829268292683,-1.5853658536585367,0.046875,-0.6103515625,0.12890625
386,1.599,IMU0,10.731707317073171,104.81707317073172,-10.609756097560977,0.0048828125,-0.5693359375,0.1318359375
387,1.599,IMU1,0.30487804878048785,107.50000000000001,-1.7682926829268295,0.0341796875,-0.61328125,0.1220703125
388,1.609,IMU0,10.487804878048781,104.51219512195122,-10.30487804878049,0.029296875,-0.5771484375,0.1630859375
389,1.609,IMU1,0.5487804878048781,107.31707317073172,-1.9512195121951221,0.0576171875,-0.6201171875,0.150390625
390,1.619,IMU0,10.731707317073171,104.14634146341464,-10.426829268292684,0.0185546875,-0.5703125,0.158203125
391,1.619,IMU1,0.5487804878048781,107.31707317073172,-2.073170731707317,0.0400390625,-0.6181640625,0.1455078125
392,1.629,IMU0,10.548780487804878,104.87804878048782,-10.914634146341465,0.033203125,-0.5615234375,0.162109375
393,1.629,IMU1,0.3658536585365854,107.56097560975611,-2.1951219512195124,0.0703125,-0.6083984375,0.154296875
394,1.639,IMU0,10.060975609756099,105.00000000000001,-10.975609756097562,0.0458984375,-0.5546875,0.1376953125
395,1.639,IMU1,0.06097560975609757,107.6829268292683,-2.25609756097561,0.0859375,-0.599609375,0.125
396,1.649,IMU0,9.939024390243903,104.75609756097562,-11.219512195121952,0.0556640625,-0.5439453125,0.138671875
397,1.649,IMU1,0.0,107.6829268292683,-2.0121951219512195,0.1005859375,-0.5908203125,0.1259765625
398,1.659,IMU0,10.731707317073171,104.69512195121952,-9.756097560975611,0.0693359375,-0.5341796875,0.1259765625
399,1.659,IMU1,0.1829268292682927,107.13414634146342,-1.5853658536585367,0.1220703125,-0.5810546875,0.111328125
400,1.669,IMU0,10.487804878048781,104.02439024390245,-9.51219512195122,0.056640625,-0.5341796875,0.0966796875
401,1.669,IMU1,0.3658536585365854,106.34146341463416,-1.2804878048780488,0.1103515625,-0.5830078125,0.099609375
402,1.679,IMU0,10.487804878048781,103.59756097560977,-9.146341463414634,0.08203125,-0.5390625,0.09765625
403,1.679,IMU1,0.24390243902439027,105.97560975609757,-0.853658536585366,0.1318359375,-0.5849609375,0.107421875
404,1.689,IMU0,10.853658536585368,102.8658536585366,-8.597560975609756,0.087890625,-0.5361328125,0.0419921875
405,1.689,IMU1,0.5487804878048781,105.73170731707317,-0.1829268292682927,0.1396484375,-0.5849609375,0.056640625
406,1.699,IMU0,11.402439024390246,102.56097560975611,-7.621951219512196,0.0791015625,-0.5234375,0.0693359375
407,1.699,IMU1,1.2195121951219514,105.3048780487805,0.426829268292683,0.134765625,-0.5771484375,0.0859375
408,1.709,IMU0,12.317073170731708,102.07317073170732,-7.25609756097561,0.08203125,-0.529296875,0.07421875
409,1.709,IMU1,1.7682926829268295,104.81707317073172,1.1585365853658538,0.1337890625,-0.5791015625,0.083984375
410,1.719,IMU0,12.134146341463415,102.01219512195122,-6.585365853658537,0.078125,-0.533203125,0.0947265625
411,1.719,IMU1,2.1951219512195124,104.63414634146342,1.707317073170732,0.1357421875,-0.5810546875,0.1044921875
412,1.729,IMU0,12.500000000000002,102.37804878048782,-6.52439024390244,0.056640625,-0.5341796875,0.0927734375
413,1.729,IMU1,2.378048780487805,104.93902439024392,2.25609756097561,0.1259765625,-0.5859375,0.0888671875
414,1.739,IMU0,12.500000000000002,102.01219512195122,-5.731707317073171,0.0888671875,-0.5361328125,0.1240234375
415,1.739,IMU1,2.439024390243903,104.87804878048782,2.9268292682926833,0.138671875,-0.5791015625,0.1123046875
416,1.749,IMU0,12.317073170731708,102.25609756097562,-4.329268292682928,0.0576171875,-0.5283203125,0.1279296875
417,1.749,IMU1,2.6219512195121952,104.87804878048782,3.5975609756097566,0.1044921875,-0.5732421875,0.115234375
418,1.759,IMU0,12.195121951219512,102.7439024390244,-3.658536585365854,0.0634765625,-0.513671875,0.130859375
419,1.759,IMU1,2.378048780487805,105.3048780487805,4.024390243902439,0.1015625,-0.5673828125,0.13671875
420,1.769,IMU0,12.01219512195122,103.17073170731709,-4.024390243902439,0.0498046875,-0.5146484375,0.12890625
421,1.769,IMU1,2.1341463414634148,105.54878048780489,4.146341463414634,0.083984375,-0.5625,0.1279296875
422,1.779,IMU0,12.378048780487806,102.8658536585366,-3.9024390243902443,0.05078125,-0.521484375,0.1279296875
423,1.779,IMU1,2.0121951219512195,105.3048780487805,4.2682926829268295,0.0947265625,-0.568359375,0.1259765625
424,1.789,IMU0,11.829268292682928,102.6219512195122,-4.146341463414634,0.0283203125,-0.5244140625,0.1376953125
425,1.789,IMU1,1.8902439024390245,105.1219512195122,4.207317073170732,0.0703125,-0.5673828125,0.1298828125
426,1.799,IMU0,12.073170731707318,102.8658536585366,-4.390243902439025,0.037109375,-0.5185546875,0.119140625
427,1.799,IMU1,1.9512195121951221,105.48780487804879,4.2682926829268295,0.08203125,-0.56640625,0.1279296875
428,1.809,IMU0,12.073170731707318,102.56097560975611,-4.146341463414634,0.005859375,-0.517578125,0.1376953125
429,1.809,IMU1,1.7682926829268295,105.54878048780489,4.329268292682928,0.0625,-0.5673828125,0.1259765625
430,1.819,IMU0,12.439024390243903,103.35365853658537,-4.207317073170732,0.0185546875,-0.4912109375,0.1396484375
431,1.819,IMU1,1.5853658536585367,105.54878048780489,4.2682926829268295,0.0556640625,-0.5556640625,0.140625
432,1.829,IMU0,11.951219512195124,102.7439024390244,-4.573170731707317,0.0234375,-0.490234375,0.1015625
433,1.829,IMU1,1.6463414634146343,105.2439024390244,4.146341463414634,0.060546875,-0.5439453125,0.0986328125
434,1.839,IMU0,11.890243902439025,102.7439024390244,-4.451219512195122,0.0087890625,-0.5009765625,0.1298828125
435,1.839,IMU1,1.7682926829268295,105.1829268292683,4.085365853658537,0.0498046875,-0.5458984375,0.130859375
436,1.849,IMU0,12.134146341463415,102.7439024390244,-4.817073170731708,0.0244140625,-0.498046875,0.1005859375
437,1.849,IMU1,1.829268292682927,104.93902439024392,3.8414634146341466,0.080078125,-0.5439453125,0.1064453125
438,1.859,IMU0,11.890243902439025,102.31707317073172,-4.939024390243903,0.0078125,-0.4990234375,0.1474609375
439,1.859,IMU1,1.9512195121951221,105.00000000000001,3.414634146341464,0.0654296875,-0.541015625,0.14453125
440,1.869,IMU0,11.646341463414634,101.52439024390245,-5.0,0.064453125,-0.490234375,0.1376953125
441,1.869,IMU1,1.8902439024390245,104.45121951219514,3.2926829268292686,0.111328125,-0.53515625,0.142578125
442,1.879,IMU0,11.463414634146343,101.52439024390245,-4.695121951219512,0.0498046875,-0.4755859375,0.146484375
443,1.879,IMU1,1.5853658536585367,104.02439024390245,3.658536585365854,0.09375,-0.5244140625,0.150390625
444,1.889,IMU0,11.707317073170733,100.67073170731709,-3.7195121951219514,0.052734375,-0.48828125,0.140625
445,1.889,IMU1,1.2804878048780488,103.78048780487806,4.207317073170732,0.09375,-0.5341796875,0.1435546875
446,1.899,IMU0,11.52439024390244,100.3658536585366,-3.5975609756097566,0.021484375,-0.484375,0.15625
447,1.899,IMU1,1.0975609756097562,103.10975609756099,4.2682926829268295,0.0576171875,-0.529296875,0.1396484375
448,1.909,IMU0,11.463414634146343,100.00000000000001,-3.4756097560975614,0.01953125,-0.48046875,0.1611328125
449,1.909,IMU1,1.0975609756097562,102.6219512195122,4.085365853658537,0.0546875,-0.5283203125,0.1552734375
450,1.919,IMU0,11.158536585365855,99.87804878048782,-3.963414634146342,0.0126953125,-0.4833984375,0.15234375
451,1.919,IMU1,0.9146341463414634,102.37804878048782,3.963414634146342,0.06640625,-0.529296875,0.142578125
452,1.929,IMU0,10.548780487804878,100.42682926829269,-4.329268292682928,-0.0166015625,-0.490234375,0.1689453125
453,1.929,IMU1,0.6097560975609757,102.6829268292683,3.963414634146342,0.03515625,-0.533203125,0.166015625
454,1.939,IMU0,10.30487804878049,100.48780487804879,-3.963414634146342,-0.009765625,-0.4833984375,0.1533203125
455,1.939,IMU1,0.30487804878048785,102.6829268292683,3.9024390243902443,0.0439453125,-0.525390625,0.142578125
456,1.949,IMU0,10.182926829268293,100.42682926829269,-4.573170731707317,-0.0478515625,-0.4765625,0.1533203125
457,1.949,IMU1,0.12195121951219513,102.6829268292683,3.536585365853659,-0.0029296875,-0.517578125,0.142578125
458,1.959,IMU0,10.121951219512196,100.1829268292683,-5.2439024390243905,-0.033203125,-0.4833984375,0.1533203125
459,1.959,IMU1,0.12195121951219513,102.7439024390244,2.987804878048781,0.0078125,-0.51953125,0.1455078125
460,1.969,IMU0,10.670731707317074,100.3658536585366,-5.670731707317073,-0.0517578125,-0.4873046875,0.1591796875
461,1.969,IMU1,0.0,103.04878048780489,2.439024390243903,-0.0087890625,-0.521484375,0.154296875
462,1.979,IMU0,10.24390243902439,100.54878048780489,-5.975609756097562,-0.044921875,-0.46875,0.1708984375
463,1.979,IMU1,-0.06097560975609757,103.53658536585367,1.9512195121951221,0.0048828125,-0.5146484375,0.1572265625
464,1.989,IMU0,10.182926829268293,101.15853658536587,-6.7682926829268295,-0.0625,-0.4580078125,0.16796875
465,1.989,IMU1,-0.24390243902439027,103.53658536585367,1.3414634146341464,-0.0146484375,-0.513671875,0.1591796875
466,1.999,IMU0,9.573170731707318,101.28048780487806,-7.926829268292684,-0.0361328125,-0.4521484375,0.1640625
467,1.999,IMU1,-0.5487804878048781,103.41463414634147,0.5487804878048781,0.0029296875,-0.515625,0.1640625
468,2.009,IMU0,9.329268292682928,100.85365853658537,-8.170731707317074,-0.037109375,-0.4619140625,0.1591796875
469,2.009,IMU1,-0.9146341463414634,103.35365853658537,-0.06097560975609757,0.0029296875,-0.517578125,0.1484375
470,2.019,IMU0,9.390243902439025,100.73170731707317,-8.292682926829269,-0.0263671875,-0.455078125,0.1552734375
471,2.019,IMU1,-1.2804878048780488,103.29268292682927,-0.426829268292683,0.0107421875,-0.505859375,0.1484375
472,2.029,IMU0,9.451219512195122,100.60975609756099,-8.719512195121952,-0.037109375,-0.4619140625,0.1201171875
473,2.029,IMU1,-1.402439024390244,102.92682926829269,-0.9146341463414634,0.0068359375,-0.5078125,0.1123046875
474,2.039,IMU0,9.695121951219512,100.3048780487805,-9.26829268292683,-0.029296875,-0.4541015625,0.125
475,2.039,IMU1,-1.4634146341463417,102.98780487804879,-1.402439024390244,0.0126953125,-0.5048828125,0.1162109375
476,2.049,IMU0,9.573170731707318,100.3658536585366,-10.182926829268293,-0.0302734375,-0.4521484375,0.080078125
477,2.049,IMU1,-1.402439024390244,103.04878048780489,-1.6463414634146343,0.0283203125,-0.5009765625,0.0703125
478,2.059,IMU0,9.878048780487806,100.3048780487805,-10.548780487804878,-0.01953125,-0.44140625,0.080078125
479,2.059,IMU1,-1.1585365853658538,102.7439024390244,-2.0121951219512195,0.029296875,-0.5,0.0654296875
480,2.069,IMU0,9.695121951219512,100.2439024390244,-10.487804878048781,-0.005859375,-0.4443359375,0.033203125
481,2.069,IMU1,-0.30487804878048785,102.31707317073172,-2.1341463414634148,0.03515625,-0.498046875,0.0224609375
482,2.079,IMU0,9.939024390243903,98.84146341463415,-10.487804878048781,-0.00390625,-0.4423828125,0.046875
483,2.079,IMU1,0.426829268292683,101.40243902439025,-2.1341463414634148,0.0517578125,-0.494140625,0.0341796875
484,2.089,IMU0,11.341463414634147,97.92682926829269,-10.548780487804878,-0.029296875,-0.443359375,0.037109375
485,2.089,IMU1,1.0365853658536586,100.2439024390244,-2.1951219512195124,0.037109375,-0.4892578125,0.025390625
486,2.099,IMU0,12.073170731707318,96.95121951219512,-10.487804878048781,0.0078125,-0.443359375,0.01171875
487,2.099,IMU1,2.0121951219512195,99.51219512195122,-2.1341463414634148,0.05859375,-0.494140625,0.0068359375
488,2.109,IMU0,12.439024390243903,96.21951219512196,-10.24390243902439,0.0029296875,-0.431640625,0.02734375
489,2.109,IMU1,2.9268292682926833,98.78048780487806,-2.073170731707317,0.05078125,-0.4892578125,0.01953125
490,2.119,IMU0,13.29268292682927,95.91463414634147,-10.0,0.0224609375,-0.4287109375,0.01171875
491,2.119,IMU1,3.8414634146341466,97.98780487804879,-1.8902439024390245,0.0732421875,-0.478515625,0.0166015625
492,2.129,IMU0,14.634146341463415,94.26829268292684,-9.634146341463415,0.013671875,-0.4345703125,0.015625
493,2.129,IMU1,4.695121951219512,96.70731707317074,-1.5853658536585367,0.078125,-0.4833984375,0.0234375
494,2.139,IMU0,15.243902439024392,93.84146341463415,-9.085365853658537,0.0234375,-0.44140625,0.021484375
495,2.139,IMU1,5.609756097560976,96.15853658536587,-1.1585365853658538,0.0830078125,-0.48046875,0.0185546875
496,2.149,IMU0,15.853658536585368,93.29268292682927,-8.841463414634147,0.0380859375,-0.4306640625,0.0498046875
497,2.149,IMU1,6.219512195121951,95.91463414634147,-0.6097560975609757,0.09765625,-0.4814453125,0.044921875
498,2.159,IMU0,16.52439024390244,92.92682926829269,-8.353658536585366,0.0234375,-0.431640625,0.0244140625
499,2.159,IMU1,6.7682926829268295,95.97560975609757,-0.1829268292682927,0.080078125,-0.478515625,0.03515625
500,2.169,IMU0,16.890243902439025,92.98780487804879,-8.109756097560977,0.04296875,-0.423828125,0.056640625
501,2.169,IMU1,7.317073170731708,95.73170731707317,0.1829268292682927,0.087890625,-0.47265625,0.0615234375
502,2.179,IMU0,17.5609756097561,92.8048780487805,-8.048780487804878,0.0322265625,-0.42578125,0.046875
503,2.179,IMU1,7.926829268292684,95.54878048780489,0.5487804878048781,0.0810546875,-0.474609375,0.0556640625
504,2.189,IMU0,18.475609756097562,92.31707317073172,-6.951219512195123,0.0302734375,-0.4248046875,0.09375
505,2.189,IMU1,8.414634146341465,95.1219512195122,1.0975609756097562,0.087890625,-0.47265625,0.1015625
506,2.199,IMU0,18.78048780487805,92.25609756097562,-6.7682926829268295,0.0185546875,-0.4111328125,0.1083984375
507,2.199,IMU1,8.475609756097562,94.87804878048782,1.5853658536585367,0.072265625,-0.466796875,0.1103515625
508,2.209,IMU0,18.597560975609756,91.89024390243904,-6.341463414634147,0.009765625,-0.416015625,0.1171875
509,2.209,IMU1,8.475609756097562,94.69512195121952,2.073170731707317,0.0751953125,-0.466796875,0.1279296875
510,2.219,IMU0,18.53658536585366,91.76829268292684,-5.731707317073171,0.0009765625,-0.416015625,0.1357421875
511,2.219,IMU1,8.536585365853659,94.63414634146342,2.5609756097560976,0.060546875,-0.462890625,0.1396484375
512,2.229,IMU0,18.53658536585366,92.8658536585366,-5.121951219512195,0.0244140625,-0.4140625,0.16015625
513,2.229,IMU1,8.597560975609756,95.3048780487805,2.9268292682926833,0.0732421875,-0.4638671875,0.1708984375
514,2.239,IMU0,17.804878048780488,94.02439024390245,-5.060975609756098,0.0048828125,-0.4130859375,0.1689453125
515,2.239,IMU1,8.170731707317074,96.28048780487806,3.1097560975609757,0.0537109375,-0.4560546875,0.1884765625
516,2.249,IMU0,17.5,94.75609756097562,-5.182926829268293,0.025390625,-0.400390625,0.21484375
517,2.249,IMU1,7.317073170731708,97.19512195121952,3.2926829268292686,0.0771484375,-0.4560546875,0.2138671875
518,2.259,IMU0,16.28048780487805,95.73170731707317,-4.146341463414634,0.0107421875,-0.41015625,0.2041015625
519,2.259,IMU1,6.402439024390245,97.8048780487805,3.658536585365854,0.0703125,-0.4560546875,0.2041015625
520,2.269,IMU0,15.670731707317074,95.73170731707317,-4.207317073170732,0.0126953125,-0.3955078125,0.1953125
521,2.269,IMU1,5.731707317073171,98.29268292682927,4.085365853658537,0.0732421875,-0.4541015625,0.2060546875
522,2.279,IMU0,15.000000000000002,96.15853658536587,-4.2682926829268295,0.00390625,-0.40234375,0.1982421875
523,2.279,IMU1,4.817073170731708,98.53658536585367,4.390243902439025,0.0537109375,-0.453125,0.2080078125
524,2.289,IMU0,14.146341463414636,96.28048780487806,-3.7195121951219514,-0.009765625,-0.4091796875,0.220703125
525,2.289,IMU1,3.8414634146341466,98.71951219512196,4.573170731707317,0.0439453125,-0.45703125,0.2177734375
526,2.299,IMU0,13.353658536585368,96.28048780487806,-3.963414634146342,-0.0126953125,-0.4013671875,0.2099609375
527,2.299,IMU1,2.682926829268293,98.65853658536587,4.573170731707317,0.037109375,-0.455078125,0.2060546875
528,2.309,IMU0,12.439024390243903,96.28048780487806,-4.085365853658537,-0.0283203125,-0.3994140625,0.197265625
529,2.309,IMU1,1.7682926829268295,98.71951219512196,4.390243902439025,0.0166015625,-0.44921875,0.201171875
530,2.319,IMU0,11.707317073170733,95.85365853658537,-3.8414634146341466,-0.02734375,-0.3916015625,0.1826171875
531,2.319,IMU1,0.9146341463414634,98.71951219512196,4.085365853658537,0.0166015625,-0.44140625,0.18359375
532,2.329,IMU0,10.426829268292684,95.73170731707317,-3.5975609756097566,-0.03125,-0.3818359375,0.17578125
533,2.329,IMU1,0.0,98.17073170731709,3.658536585365854,0.015625,-0.4384765625,0.1689453125
534,2.339,IMU0,9.51219512195122,95.73170731707317,-4.390243902439025,-0.0263671875,-0.3935546875,0.15234375
535,2.339,IMU1,-0.5487804878048781,97.8048780487805,3.2926829268292686,0.013671875,-0.439453125,0.1474609375
536,2.349,IMU0,8.658536585365855,95.3048780487805,-4.2682926829268295,-0.0400390625,-0.3896484375,0.1142578125
537,2.349,IMU1,-1.0365853658536586,97.50000000000001,3.048780487804878,0.0166015625,-0.4384765625,0.1181640625
538,2.359,IMU0,8.902439024390244,94.57317073170732,-5.060975609756098,-0.0263671875,-0.390625,0.09375
539,2.359,IMU1,-1.402439024390244,96.89024390243904,2.804878048780488,0.0205078125,-0.431640625,0.1025390625
540,2.369,IMU0,9.085365853658537,93.78048780487806,-5.426829268292684,-0.0419921875,-0.375,0.0712890625
541,2.369,IMU1,-1.2804878048780488,96.15853658536587,2.378048780487805,0.005859375,-0.423828125,0.0791015625
542,2.379,IMU0,9.695121951219512,93.10975609756099,-5.853658536585367,-0.025390625,-0.37890625,0.0849609375
543,2.379,IMU1,-0.9146341463414634,95.48780487804879,1.8902439024390245,0.0205078125,-0.421875,0.08203125
544,2.389,IMU0,10.0,92.13414634146342,-6.2804878048780495,-0.033203125,-0.3779296875,0.0791015625
545,2.389,IMU1,-0.426829268292683,94.93902439024392,1.402439024390244,0.0224609375,-0.423828125,0.0791015625
546,2.399,IMU0,10.609756097560977,91.58536585365854,-7.01219512195122,-0.0166015625,-0.3720703125,0.0986328125
547,2.399,IMU1,0.0,94.26829268292684,0.9756097560975611,0.0400390625,-0.423828125,0.091796875
548,2.409,IMU0,11.097560975609756,90.85365853658537,-7.378048780487806,0.001953125,-0.3720703125,0.09765625
549,2.409,IMU1,0.426829268292683,93.65853658536587,0.7317073170731708,0.0546875,-0.427734375,0.09375
550,2.419,IMU0,10.975609756097562,90.91463414634147,-7.439024390243903,0.0068359375,-0.3681640625,0.1279296875
551,2.419,IMU1,0.9146341463414634,93.47560975609757,0.48780487804878053,0.0546875,-0.431640625,0.1318359375
552,2.429,IMU0,11.158536585365855,90.73170731707317,-7.317073170731708,0.013671875,-0.365234375,0.138671875
553,2.429,IMU1,1.0365853658536586,93.53658536585367,0.7317073170731708,0.0498046875,-0.42578125,0.1318359375
554,2.439,IMU0,11.402439024390246,90.67073170731707,-6.463414634146342,0.0087890625,-0.359375,0.181640625
555,2.439,IMU1,0.9756097560975611,93.59756097560977,1.4634146341463417,0.052734375,-0.41796875,0.16796875
556,2.449,IMU0,11.707317073170733,91.46341463414635,-5.670731707317073,-0.0400390625,-0.3603515625,0.158203125
557,2.449,IMU1,0.853658536585366,94.08536585365854,1.9512195121951221,-0.0068359375,-0.4189453125,0.15625
558,2.459,IMU0,11.52439024390244,91.82926829268294,-5.7926829268292686,-0.0712890625,-0.369140625,0.1796875
559,2.459,IMU1,0.9756097560975611,94.69512195121952,1.9512195121951221,-0.025390625,-0.421875,0.1689453125
560,2.469,IMU0,10.792682926829269,91.95121951219512,-6.463414634146342,-0.09375,-0.3701171875,0.2216796875
561,2.469,IMU1,0.6097560975609757,95.0609756097561,1.4634146341463417,-0.0380859375,-0.4248046875,0.2041015625
562,2.479,IMU0,10.365853658536587,92.19512195121952,-7.195121951219513,-0.1083984375,-0.3857421875,0.2138671875
563,2.479,IMU1,0.12195121951219513,95.42682926829269,0.9756097560975611,-0.068359375,-0.42578125,0.197265625
564,2.489,IMU0,9.451219512195122,92.50000000000001,-7.439024390243903,-0.0947265625,-0.3671875,0.2216796875
565,2.489,IMU1,-0.426829268292683,95.1219512195122,0.5487804878048781,-0.0576171875,-0.4208984375,0.2060546875
566,2.499,IMU0,8.719512195121952,91.64634146341464,-8.231707317073171,-0.1611328125,-0.3525390625,0.1845703125
567,2.499,IMU1,-1.1585365853658538,94.14634146341464,-0.426829268292683,-0.111328125,-0.4140625,0.185546875
568,2.509,IMU0,8.536585365853659,91.70731707317074,-9.756097560975611,-0.1484375,-0.3525390625,0.171875
569,2.509,IMU1,-1.829268292682927,94.32926829268294,-1.7682926829268295,-0.0966796875,-0.4130859375,0.1787109375
570,2.519,IMU0,7.378048780487806,92.31707317073172,-10.853658536585368,-0.15234375,-0.3583984375,0.1279296875
571,2.519,IMU1,-2.5609756097560976,95.1829268292683,-3.231707317073171,-0.099609375,-0.41015625,0.1376953125
572,2.529,IMU0,7.500000000000001,92.5609756097561,-12.195121951219512,-0.1259765625,-0.357421875,0.12109375
573,2.529,IMU1,-2.9268292682926833,95.60975609756099,-4.573170731707317,-0.0751953125,-0.4072265625,0.1220703125
574,2.539,IMU0,7.560975609756098,92.98780487804879,-13.536585365853659,-0.1044921875,-0.3466796875,0.087890625
575,2.539,IMU1,-2.9268292682926833,95.67073170731709,-5.670731707317073,-0.0498046875,-0.404296875,0.08984375
576,2.549,IMU0,7.073170731707318,93.17073170731707,-14.085365853658537,-0.0888671875,-0.33984375,0.064453125
577,2.549,IMU1,-2.439024390243903,95.73170731707317,-6.341463414634147,-0.037109375,-0.3994140625,0.0625
578,2.559,IMU0,7.8048780487804885,92.43902439024392,-14.26829268292683,-0.060546875,-0.3447265625,0.064453125
579,2.559,IMU1,-1.9512195121951221,95.1829268292683,-6.7682926829268295,-0.015625,-0.3984375,0.0615234375
580,2.569,IMU0,8.78048780487805,91.21951219512196,-15.182926829268293,-0.0712890625,-0.3525390625,0.044921875
581,2.569,IMU1,-1.3414634146341464,93.71951219512196,-7.317073170731708,-0.0224609375,-0.40234375,0.0419921875
582,2.579,IMU0,9.634146341463415,90.2439024390244,-15.79268292682927,-0.0458984375,-0.3447265625,0.0380859375
583,2.579,IMU1,-0.5487804878048781,92.8048780487805,-7.743902439024391,0.0078125,-0.40234375,0.0361328125
584,2.589,IMU0,10.975609756097562,89.32926829268294,-15.609756097560977,-0.0244140625,-0.3427734375,0.044921875
585,2.589,IMU1,0.30487804878048785,92.25609756097562,-7.865853658536586,0.025390625,-0.3974609375,0.037109375
586,2.599,IMU0,11.463414634146343,88.35365853658537,-15.54878048780488,-0.0146484375,-0.3388671875,0.05078125
587,2.599,IMU1,1.1585365853658538,91.21951219512196,-7.743902439024391,0.0390625,-0.3916015625,0.0380859375
588,2.609,IMU0,11.890243902439025,87.50000000000001,-14.878048780487806,-0.0068359375,-0.3388671875,0.0546875
589,2.609,IMU1,1.8902439024390245,90.1219512195122,-7.560975609756098,0.048828125,-0.3896484375,0.0400390625
590,2.619,IMU0,12.439024390243903,86.15853658536587,-14.51219512195122,-0.0107421875,-0.3515625,0.052734375
591,2.619,IMU1,2.6219512195121952,88.90243902439025,-7.195121951219513,0.044921875,-0.38671875,0.0478515625
592,2.629,IMU0,12.987804878048781,85.42682926829269,-13.536585365853659,0.0,-0.3427734375,0.0546875
593,2.629,IMU1,3.2926829268292686,88.23170731707317,-6.829268292682928,0.0546875,-0.38671875,0.0517578125
594,2.639,IMU0,13.78048780487805,85.00000000000001,-13.170731707317074,0.005859375,-0.33984375,0.064453125
595,2.639,IMU1,3.9024390243902443,87.6219512195122,-6.463414634146342,0.052734375,-0.3828125,0.0595703125
596,2.649,IMU0,14.695121951219514,84.51219512195122,-13.719512195121952,0.0234375,-0.333984375,0.064453125
597,2.649,IMU1,4.451219512195122,87.13414634146342,-6.097560975609756,0.07421875,-0.37890625,0.056640625
598,2.659,IMU0,14.573170731707318,83.65853658536587,-13.536585365853659,0.0263671875,-0.3271484375,0.068359375
599,2.659,IMU1,4.939024390243903,86.46341463414635,-5.731707317073171,0.064453125,-0.375,0.0615234375
600,2.669,IMU0,15.670731707317074,82.25609756097562,-12.682926829268293,0.0361328125,-0.3212890625,0.0517578125
601,2.669,IMU1,5.3048780487804885,85.42682926829269,-5.0,0.0849609375,-0.3720703125,0.052734375
602,2.679,IMU0,16.097560975609756,80.3048780487805,-11.890243902439025,0.0205078125,-0.3251953125,0.0517578125
603,2.679,IMU1,5.670731707317073,83.71951219512196,-4.207317073170732,0.0693359375,-0.373046875,0.048828125
604,2.689,IMU0,16.402439024390244,78.29268292682927,-10.853658536585368,0.0048828125,-0.326171875,0.0361328125
605,2.689,IMU1,6.219512195121951,81.89024390243902,-3.536585365853659,0.0615234375,-0.369140625,0.0478515625
606,2.699,IMU0,16.82926829268293,76.95121951219512,-10.487804878048781,0.0029296875,-0.326171875,0.0380859375
607,2.699,IMU1,6.951219512195123,80.48780487804879,-2.9268292682926833,0.05859375,-0.3701171875,0.041015625
608,2.709,IMU0,17.012195121951223,76.09756097560977,-10.24390243902439,-0.0078125,-0.3310546875,0.046875
609,2.709,IMU1,7.682926829268293,79.75609756097562,-2.5609756097560976,0.0517578125,-0.3759765625,0.0537109375
610,2.719,IMU0,17.98780487804878,75.79268292682927,-10.365853658536587,-0.0029296875,-0.3271484375,0.078125
611,2.719,IMU1,8.292682926829269,79.32926829268294,-2.1951219512195124,0.0576171875,-0.373046875,0.076171875
612,2.729,IMU0,18.53658536585366,75.54878048780489,-10.0,-0.01171875,-0.3251953125,0.0986328125
613,2.729,IMU1,8.78048780487805,79.14634146341464,-1.9512195121951221,0.0537109375,-0.37109375,0.0927734375
614,2.739,IMU0,18.53658536585366,75.48780487804879,-9.329268292682928,0.009765625,-0.310546875,0.09375
615,2.739,IMU1,9.02439024390244,78.59756097560977,-1.5853658536585367,0.0595703125,-0.3642578125,0.1015625
616,2.749,IMU0,18.53658536585366,75.54878048780489,-8.597560975609756,0.00390625,-0.31640625,0.1279296875
617,2.749,IMU1,8.963414634146343,78.53658536585367,-1.1585365853658538,0.05078125,-0.3662109375,0.1240234375
618,2.759,IMU0,18.963414634146343,75.1829268292683,-8.048780487804878,0.009765625,-0.3212890625,0.125
619,2.759,IMU1,8.78048780487805,78.41463414634147,-0.7317073170731708,0.060546875,-0.3681640625,0.1328125
620,2.769,IMU0,18.597560975609756,75.2439024390244,-7.621951219512196,-0.0126953125,-0.3134765625,0.1357421875
621,2.769,IMU1,8.719512195121952,77.7439024390244,-0.426829268292683,0.037109375,-0.361328125,0.1435546875
622,2.779,IMU0,18.658536585365855,75.1829268292683,-7.560975609756098,0.0126953125,-0.3076171875,0.16015625
623,2.779,IMU1,8.597560975609756,76.89024390243902,-0.12195121951219513,0.05859375,-0.3564453125,0.1728515625
624,2.789,IMU0,18.231707317073173,75.2439024390244,-7.25609756097561,-0.005859375,-0.310546875,0.1787109375
625,2.789,IMU1,8.170731707317074,76.28048780487805,0.24390243902439027,0.03515625,-0.3583984375,0.1884765625
626,2.799,IMU0,17.682926829268293,75.3048780487805,-7.073170731707318,-0.0107421875,-0.302734375,0.1953125
627,2.799,IMU1,7.682926829268293,75.91463414634147,0.5487804878048781,0.037109375,-0.3544921875,0.19921875
628,2.809,IMU0,17.134146341463417,74.87804878048782,-6.890243902439025,-0.017578125,-0.3095703125,0.224609375
629,2.809,IMU1,6.829268292682928,75.79268292682927,0.7926829268292683,0.033203125,-0.35546875,0.2333984375
630,2.819,IMU0,16.402439024390244,75.0609756097561,-6.585365853658537,-0.029296875,-0.3046875,0.1904296875
631,2.819,IMU1,5.670731707317073,75.91463414634147,0.9146341463414634,0.0166015625,-0.3623046875,0.19921875
632,2.829,IMU0,14.634146341463415,75.3048780487805,-6.707317073170732,-0.0322265625,-0.3095703125,0.1962890625
633,2.829,IMU1,4.451219512195122,76.40243902439025,0.9756097560975611,0.0185546875,-0.3603515625,0.220703125
634,2.839,IMU0,13.78048780487805,75.42682926829269,-6.951219512195123,-0.0234375,-0.306640625,0.177734375
635,2.839,IMU1,3.414634146341464,77.01219512195122,0.9756097560975611,0.0224609375,-0.3544921875,0.1875
636,2.849,IMU0,13.170731707317074,75.1829268292683,-6.585365853658537,-0.0380859375,-0.302734375,0.1845703125
637,2.849,IMU1,2.682926829268293,77.5609756097561,0.853658536585366,0.0107421875,-0.3505859375,0.1884765625
638,2.859,IMU0,11.890243902439025,75.48780487804879,-7.439024390243903,-0.0185546875,-0.2939453125,0.19140625
639,2.859,IMU1,2.1341463414634148,78.10975609756099,0.6097560975609757,0.0283203125,-0.3486328125,0.1865234375
640,2.869,IMU0,11.646341463414634,76.03658536585367,-7.621951219512196,-0.0263671875,-0.29296875,0.1875
641,2.869,IMU1,1.402439024390244,79.02439024390245,0.30487804878048785,0.021484375,-0.349609375,0.193359375
642,2.879,IMU0,11.097560975609756,75.79268292682927,-8.109756097560977,0.0146484375,-0.2900390625,0.1884765625
643,2.879,IMU1,0.6707317073170732,79.63414634146342,0.12195121951219513,0.05859375,-0.345703125,0.1875
644,2.889,IMU0,10.609756097560977,76.70731707317074,-7.743902439024391,0.037109375,-0.2900390625,0.181640625
645,2.889,IMU1,0.0,80.0,0.12195121951219513,0.0732421875,-0.345703125,0.177734375
646,2.899,IMU0,10.060975609756099,76.64634146341464,-7.926829268292684,0.0400390625,-0.2958984375,0.173828125
647,2.899,IMU1,-0.5487804878048781,80.3658536585366,0.1829268292682927,0.091796875,-0.3408203125,0.1689453125
648,2.909,IMU0,9.634146341463415,76.52439024390245,-7.682926829268293,0.0537109375,-0.2880859375,0.1728515625
649,2.909,IMU1,-1.0975609756097562,80.54878048780489,0.48780487804878053,0.109375,-0.337890625,0.1708984375
650,2.919,IMU0,8.597560975609756,77.13414634146342,-7.01219512195122,0.0791015625,-0.2822265625,0.1630859375
651,2.919,IMU1,-1.6463414634146343,80.67073170731707,0.9756097560975611,0.1240234375,-0.3369140625,0.1650390625
652,2.929,IMU0,9.085365853658537,78.04878048780489,-6.646341463414635,0.08984375,-0.2802734375,0.181640625
653,2.929,IMU1,-1.8902439024390245,80.97560975609757,1.7682926829268295,0.1376953125,-0.3349609375,0.1689453125
654,2.939,IMU0,8.719512195121952,78.17073170731707,-5.182926829268293,0.091796875,-0.2841796875,0.177734375
655,2.939,IMU1,-2.1341463414634148,81.21951219512196,2.6219512195121952,0.1435546875,-0.33203125,0.1728515625
656,2.949,IMU0,8.475609756097562,78.59756097560977,-4.451219512195122,0.080078125,-0.2705078125,0.17578125
657,2.949,IMU1,-2.378048780487805,81.34146341463415,3.4756097560975614,0.1298828125,-0.3271484375,0.185546875
658,2.959,IMU0,7.682926829268293,78.29268292682927,-3.658536585365854,0.0947265625,-0.2626953125,0.19140625
659,2.959,IMU1,-2.9268292682926833,81.34146341463415,4.329268292682928,0.150390625,-0.32421875,0.2041015625
660,2.969,IMU0,7.073170731707318,79.02439024390245,-3.048780487804878,0.08203125,-0.265625,0.1650390625
661,2.969,IMU1,-3.7195121951219514,81.28048780487805,5.2439024390243905,0.1337890625,-0.3271484375,0.177734375
662,2.979,IMU0,6.158536585365854,79.08536585365854,-2.5,0.0732421875,-0.2646484375,0.1787109375
663,2.979,IMU1,-4.390243902439025,81.58536585365854,6.036585365853659,0.126953125,-0.3251953125,0.185546875
664,2.989,IMU0,5.365853658536586,79.14634146341464,-1.5853658536585367,0.07421875,-0.2685546875,0.1552734375
665,2.989,IMU1,-5.0,81.46341463414635,6.890243902439025,0.12109375,-0.3212890625,0.1552734375
666,2.999,IMU0,5.426829268292684,78.84146341463415,-0.7926829268292683,0.0595703125,-0.271484375,0.138671875
667,2.999,IMU1,-5.2439024390243905,81.34146341463415,7.621951219512196,0.1015625,-0.3212890625,0.1494140625
668,3.009,IMU0,5.0,78.17073170731707,-0.6097560975609757,0.0322265625,-0.2763671875,0.123046875
669,3.009,IMU1,-5.548780487804878,81.28048780487805,8.231707317073171,0.0888671875,-0.3232421875,0.142578125
670,3.019,IMU0,5.2439024390243905,78.59756097560977,0.0,0.0234375,-0.271484375,0.123046875
671,3.019,IMU1,-5.853658536585367,81.28048780487805,8.658536585365855,0.0634765625,-0.3212890625,0.1337890625
672,3.029,IMU0,4.817073170731708,78.78048780487805,0.9146341463414634,-0.0068359375,-0.267578125,0.1025390625
673,3.029,IMU1,-6.036585365853659,81.09756097560977,9.02439024390244,0.0458984375,-0.3173828125,0.109375
674,3.039,IMU0,5.2439024390243905,78.29268292682927,0.9756097560975611,-0.0224609375,-0.271484375,0.0947265625
675,3.039,IMU1,-6.158536585365854,80.91463414634147,9.390243902439025,0.0244140625,-0.3203125,0.0947265625
676,3.049,IMU0,4.75609756097561,77.07317073170732,1.0365853658536586,-0.0400390625,-0.2724609375,0.072265625
677,3.049,IMU1,-5.975609756097562,80.3658536585366,9.51219512195122,0.0,-0.3173828125,0.07421875
678,3.059,IMU0,4.817073170731708,76.52439024390245,0.48780487804878053,-0.0791015625,-0.279296875,0.0537109375
679,3.059,IMU1,-5.609756097560976,79.75609756097562,9.02439024390244,-0.0322265625,-0.31640625,0.046875
680,3.069,IMU0,5.548780487804878,76.82926829268294,-0.06097560975609757,-0.08203125,-0.2763671875,0.041015625
681,3.069,IMU1,-4.939024390243903,79.39024390243902,8.414634146341465,-0.03125,-0.31640625,0.0419921875
682,3.079,IMU0,6.158536585365854,76.03658536585367,-0.7926829268292683,-0.095703125,-0.26953125,0.04296875
683,3.079,IMU1,-4.146341463414634,79.02439024390245,7.8048780487804885,-0.048828125,-0.31640625,0.0322265625
684,3.089,IMU0,6.951219512195123,75.67073170731707,-0.9756097560975611,-0.0888671875,-0.2646484375,0.033203125
685,3.089,IMU1,-3.414634146341464,78.65853658536587,7.073170731707318,-0.048828125,-0.314453125,0.0302734375
686,3.099,IMU0,8.109756097560977,75.54878048780489,-1.524390243902439,-0.10546875,-0.2705078125,0.0390625
687,3.099,IMU1,-2.804878048780488,78.41463414634147,6.158536585365854,-0.0595703125,-0.314453125,0.041015625
688,3.109,IMU0,9.085365853658537,75.3658536585366,-2.5,-0.087890625,-0.2822265625,0.021484375
689,3.109,IMU1,-2.1341463414634148,78.53658536585367,5.365853658536586,-0.0517578125,-0.3115234375,0.0302734375
690,3.119,IMU0,9.939024390243903,75.3658536585366,-2.8658536585365857,-0.1044921875,-0.271484375,0.0224609375
691,3.119,IMU1,-1.2804878048780488,78.47560975609757,4.51219512195122,-0.0595703125,-0.30859375,0.033203125
692,3.129,IMU0,10.060975609756099,75.3048780487805,-3.780487804878049,-0.103515625,-0.2841796875,0.03515625
693,3.129,IMU1,-0.7317073170731708,78.47560975609757,3.658536585365854,-0.0537109375,-0.3095703125,0.0400390625
694,3.139,IMU0,10.121951219512196,75.3048780487805,-4.634146341463415,-0.0986328125,-0.2744140625,0.0361328125
695,3.139,IMU1,-0.24390243902439027,78.35365853658537,2.682926829268293,-0.046875,-0.306640625,0.03515625
696,3.149,IMU0,11.158536585365855,75.1829268292683,-5.7926829268292686,-0.091796875,-0.2763671875,0.0361328125
697,3.149,IMU1,0.426829268292683,77.92682926829269,1.829268292682927,-0.0390625,-0.306640625,0.02734375
698,3.159,IMU0,11.28048780487805,75.3048780487805,-6.890243902439025,-0.0654296875,-0.2587890625,0.0390625
699,3.159,IMU1,1.2195121951219514,77.6829268292683,1.1585365853658538,-0.021484375,-0.3046875,0.029296875
700,3.169,IMU0,11.890243902439025,75.42682926829269,-7.987804878048781,-0.05078125,-0.2568359375,0.0380859375
701,3.169,IMU1,2.1341463414634148,77.6219512195122,0.6707317073170732,-0.0126953125,-0.3037109375,0.03125
702,3.179,IMU0,13.29268292682927,75.3048780487805,-7.865853658536586,-0.0556640625,-0.2490234375,0.0419921875
703,3.179,IMU1,3.048780487804878,77.6219512195122,0.30487804878048785,-0.0087890625,-0.3017578125,0.041015625
704,3.189,IMU0,13.353658536585368,75.1829268292683,-8.353658536585366,-0.048828125,-0.25390625,0.0458984375
705,3.189,IMU1,3.658536585365854,77.37804878048782,0.06097560975609757,-0.001953125,-0.3017578125,0.0546875
706,3.199,IMU0,14.634146341463415,75.2439024390244,-8.658536585365855,-0.0390625,-0.2587890625,0.0693359375
707,3.199,IMU1,4.207317073170732,76.95121951219512,-0.1829268292682927,-0.001953125,-0.2998046875,0.05859375
708,3.209,IMU0,14.573170731707318,75.3658536585366,-8.231707317073171,-0.03125,-0.248046875,0.0595703125
709,3.209,IMU1,4.573170731707317,76.46341463414635,-0.24390243902439027,0.01171875,-0.294921875,0.060546875
710,3.219,IMU0,14.390243902439027,75.3048780487805,-8.597560975609756,-0.041015625,-0.2412109375,0.0625
711,3.219,IMU1,4.939024390243903,76.15853658536587,-0.3658536585365854,0.0078125,-0.2890625,0.060546875
712,3.229,IMU0,15.30487804878049,75.1829268292683,-8.231707317073171,-0.0390625,-0.2353515625,0.08203125
713,3.229,IMU1,5.3048780487804885,75.73170731707317,-0.426829268292683,0.013671875,-0.2880859375,0.06640625
714,3.239,IMU0,15.426829268292684,74.69512195121952,-7.8048780487804885,-0.0380859375,-0.23828125,0.091796875
715,3.239,IMU1,5.7926829268292686,75.42682926829269,-0.3658536585365854,0.0126953125,-0.2890625,0.072265625
716,3.249,IMU0,16.463414634146343,74.75609756097562,-7.926829268292684,-0.0263671875,-0.23828125,0.08984375
717,3.249,IMU1,6.2804878048780495,75.3048780487805,-0.30487804878048785,0.017578125,-0.287109375,0.0849609375
718,3.259,IMU0,16.34146341463415,74.45121951219512,-7.25609756097561,-0.013671875,-0.2333984375,0.1025390625
719,3.259,IMU1,6.52439024390244,75.3658536585366,-0.12195121951219513,0.01953125,-0.28515625,0.0859375
720,3.269,IMU0,16.646341463414636,74.14634146341464,-8.048780487804878,-0.025390625,-0.23828125,0.1025390625
721,3.269,IMU1,6.52439024390244,75.3658536585366,0.0,0.0146484375,-0.28515625,0.1005859375
722,3.279,IMU0,16.951219512195124,74.69512195121952,-7.743902439024391,-0.0224609375,-0.24609375,0.1103515625
723,3.279,IMU1,6.707317073170732,75.42682926829269,0.12195121951219513,0.0205078125,-0.2822265625,0.099609375
724,3.289,IMU0,17.25609756097561,74.93902439024392,-7.621951219512196,0.0,-0.244140625,0.1083984375
725,3.289,IMU1,6.951219512195123,75.48780487804879,0.24390243902439027,0.0263671875,-0.28125,0.1015625
726,3.299,IMU0,17.25609756097561,74.63414634146342,-7.500000000000001,-0.0166015625,-0.228515625,0.1123046875
727,3.299,IMU1,6.951219512195123,75.42682926829269,0.3658536585365854,0.0224609375,-0.279296875,0.107421875
728,3.309,IMU0,17.25609756097561,74.57317073170732,-7.378048780487806,-0.0048828125,-0.2333984375,0.107421875
729,3.309,IMU1,6.951219512195123,75.2439024390244,0.6707317073170732,0.0302734375,-0.2744140625,0.1103515625
730,3.319,IMU0,17.134146341463417,74.39024390243902,-6.951219512195123,-0.0009765625,-0.234375,0.11328125
731,3.319,IMU1,6.890243902439025,74.87804878048782,0.853658536585366,0.03125,-0.27734375,0.11328125
732,3.329,IMU0,16.890243902439025,73.65853658536587,-6.585365853658537,-0.01171875,-0.2373046875,0.115234375
733,3.329,IMU1,6.890243902439025,74.75609756097562,1.0975609756097562,0.021484375,-0.2802734375,0.1181640625
734,3.339,IMU0,17.134146341463417,74.20731707317074,-6.646341463414635,-0.01953125,-0.232421875,0.1201171875
735,3.339,IMU1,6.829268292682928,74.75609756097562,1.2195121951219514,0.0234375,-0.27734375,0.1259765625
736,3.349,IMU0,17.134146341463417,73.41463414634147,-6.036585365853659,-0.015625,-0.2294921875,0.1435546875
737,3.349,IMU1,6.646341463414635,74.81707317073172,1.2804878048780488,0.021484375,-0.2763671875,0.1396484375
738,3.359,IMU0,16.82926829268293,73.59756097560977,-6.2804878048780495,-0.017578125,-0.2275390625,0.14453125
739,3.359,IMU1,6.463414634146342,74.81707317073172,1.2804878048780488,0.021484375,-0.271484375,0.138671875
740,3.369,IMU0,16.76829268292683,73.23170731707317,-6.646341463414635,-0.0224609375,-0.2197265625,0.150390625
741,3.369,IMU1,6.158536585365854,74.87804878048782,1.2804878048780488,0.0244140625,-0.2734375,0.1494140625
742,3.379,IMU0,15.670731707317074,73.59756097560977,-6.585365853658537,-0.03125,-0.2333984375,0.146484375
743,3.379,IMU1,5.731707317073171,74.87804878048782,1.3414634146341464,0.025390625,-0.2763671875,0.1513671875
744,3.389,IMU0,15.54878048780488,73.71951219512195,-5.670731707317073,-0.01953125,-0.2158203125,0.1591796875
745,3.389,IMU1,5.365853658536586,75.0,1.402439024390244,0.0341796875,-0.2744140625,0.16015625
746,3.399,IMU0,15.487804878048783,74.51219512195122,-5.975609756097562,-0.017578125,-0.21484375,0.1787109375
747,3.399,IMU1,5.060975609756098,75.2439024390244,1.4634146341463417,0.0244140625,-0.2705078125,0.1650390625
748,3.409,IMU0,14.756097560975611,74.81707317073172,-5.7926829268292686,-0.0126953125,-0.2109375,0.189453125
749,3.409,IMU1,4.634146341463415,75.2439024390244,1.524390243902439,0.0283203125,-0.2705078125,0.1787109375
750,3.419,IMU0,14.451219512195124,74.02439024390245,-5.7926829268292686,-0.0244140625,-0.201171875,0.19140625
751,3.419,IMU1,4.085365853658537,75.0609756097561,1.7682926829268295,0.0234375,-0.265625,0.185546875
752,3.429,IMU0,14.02439024390244,74.02439024390245,-5.670731707317073,-0.03125,-0.20703125,0.18359375
753,3.429,IMU1,3.414634146341464,75.1829268292683,2.073170731707317,0.0234375,-0.2626953125,0.1875
754,3.439,IMU0,13.170731707317074,74.63414634146342,-5.548780487804878,-0.0419921875,-0.203125,0.18359375
755,3.439,IMU1,2.804878048780488,75.42682926829269,2.25609756097561,0.0166015625,-0.2587890625,0.19140625
756,3.449,IMU0,12.560975609756099,74.45121951219512,-5.609756097560976,-0.0458984375,-0.1962890625,0.19140625
757,3.449,IMU1,2.073170731707317,75.97560975609757,2.25609756097561,0.0068359375,-0.2568359375,0.1943359375
758,3.459,IMU0,12.073170731707318,74.75609756097562,-5.975609756097562,-0.0458984375,-0.1962890625,0.1806640625
759,3.459,IMU1,1.2804878048780488,76.40243902439025,2.073170731707317,0.005859375,-0.2548828125,0.1923828125
760,3.469,IMU0,11.646341463414634,75.0609756097561,-5.7926829268292686,-0.0458984375,-0.19921875,0.1806640625
761,3.469,IMU1,0.5487804878048781,76.58536585365854,1.829268292682927,0.005859375,-0.255859375,0.1865234375
762,3.479,IMU0,10.853658536585368,75.0609756097561,-6.036585365853659,-0.0517578125,-0.1943359375,0.1728515625
763,3.479,IMU1,-0.06097560975609757,76.52439024390245,1.6463414634146343,0.01171875,-0.259765625,0.1787109375
764,3.489,IMU0,10.182926829268293,75.1829268292683,-5.731707317073171,-0.0419921875,-0.208984375,0.1611328125
765,3.489,IMU1,-0.5487804878048781,76.34146341463415,1.5853658536585367,0.0205078125,-0.2587890625,0.169921875
766,3.499,IMU0,9.878048780487806,75.3048780487805,-5.731707317073171,-0.0341796875,-0.2119140625,0.15234375
767,3.499,IMU1,-0.9756097560975611,76.15853658536587,1.524390243902439,0.017578125,-0.2578125,0.1728515625
768,3.509,IMU0,9.085365853658537,75.3048780487805,-5.7926829268292686,-0.025390625,-0.2109375,0.146484375
769,3.509,IMU1,-1.524390243902439,75.60975609756098,1.4634146341463417,0.0205078125,-0.25390625,0.16015625
770,3.519,IMU0,8.597560975609756,74.75609756097562,-5.609756097560976,-0.037109375,-0.2041015625,0.1455078125
771,3.519,IMU1,-1.8902439024390245,75.2439024390244,1.4634146341463417,0.0185546875,-0.2509765625,0.162109375
772,3.529,IMU0,7.8048780487804885,73.78048780487805,-5.548780487804878,-0.0380859375,-0.2099609375,0.1513671875
773,3.529,IMU1,-2.378048780487805,74.87804878048782,1.2804878048780488,0.0166015625,-0.251953125,0.1552734375
774,3.539,IMU0,7.378048780487806,73.47560975609757,-6.402439024390245,-0.033203125,-0.19140625,0.1396484375
775,3.539,IMU1,-2.682926829268293,74.69512195121952,1.2195121951219514,0.0166015625,-0.2490234375,0.1474609375
776,3.549,IMU0,7.195121951219513,74.14634146341464,-5.914634146341464,-0.03125,-0.197265625,0.1396484375
777,3.549,IMU1,-3.048780487804878,74.69512195121952,1.2195121951219514,0.0234375,-0.2470703125,0.1416015625
778,3.559,IMU0,7.25609756097561,74.08536585365854,-5.914634146341464,-0.0419921875,-0.1943359375,0.1328125
779,3.559,IMU1,-3.1707317073170733,74.69512195121952,1.1585365853658538,0.0146484375,-0.248046875,0.1337890625
780,3.569,IMU0,6.951219512195123,73.53658536585367,-6.341463414634147,-0.0244140625,-0.1943359375,0.1240234375
781,3.569,IMU1,-3.2926829268292686,74.39024390243902,1.1585365853658538,0.0224609375,-0.25,0.126953125
782,3.579,IMU0,7.439024390243903,72.19512195121952,-6.52439024390244,-0.02734375,-0.2001953125,0.1181640625
783,3.579,IMU1,-3.414634146341464,74.08536585365854,1.2804878048780488,0.017578125,-0.2490234375,0.1181640625
784,3.589,IMU0,7.195121951219513,72.13414634146342,-6.402439024390245,-0.0380859375,-0.1943359375,0.1171875
785,3.589,IMU1,-3.353658536585366,73.78048780487805,1.2195121951219514,0.01171875,-0.2431640625,0.1171875
786,3.599,IMU0,7.439024390243903,72.19512195121952,-6.951219512195123,-0.0400390625,-0.1796875,0.12109375
787,3.599,IMU1,-3.414634146341464,73.53658536585367,1.2195121951219514,0.01171875,-0.236328125,0.11328125
788,3.609,IMU0,7.195121951219513,71.95121951219512,-6.219512195121951,-0.0400390625,-0.1796875,0.1162109375
789,3.609,IMU1,-3.414634146341464,73.47560975609757,1.2195121951219514,0.013671875,-0.236328125,0.107421875
790,3.619,IMU0,7.073170731707318,71.58536585365854,-6.585365853658537,-0.0390625,-0.1884765625,0.1064453125
791,3.619,IMU1,-3.4756097560975614,73.53658536585367,1.2195121951219514,0.0126953125,-0.236328125,0.0986328125
792,3.629,IMU0,7.560975609756098,71.70731707317074,-6.52439024390244,-0.033203125,-0.1826171875,0.09765625
793,3.629,IMU1,-3.1707317073170733,73.78048780487805,1.1585365853658538,0.0107421875,-0.2353515625,0.0966796875
794,3.639,IMU0,8.109756097560977,71.58536585365854,-6.2804878048780495,-0.0302734375,-0.181640625,0.09375
795,3.639,IMU1,-2.8658536585365857,73.65853658536587,1.0365853658536586,0.0087890625,-0.2333984375,0.0947265625
796,3.649,IMU0,8.353658536585366,72.5609756097561,-6.951219512195123,-0.0322265625,-0.1845703125,0.0947265625
797,3.649,IMU1,-2.6219512195121952,73.35365853658537,0.9146341463414634,0.009765625,-0.232421875,0.09375
798,3.659,IMU0,8.536585365853659,71.58536585365854,-6.402439024390245,-0.0205078125,-0.1904296875,0.099609375
799,3.659,IMU1,-2.378048780487805,72.8658536585366,0.853658536585366,0.015625,-0.2353515625,0.095703125
800,3.669,IMU0,8.536585365853659,71.58536585365854,-6.402439024390245,-0.0205078125,-0.1904296875,0.099609375
801,3.669,IMU1,-2.25609756097561,72.5,0.7317073170731708,0.0185546875,-0.236328125,0.091796875
802,3.679,IMU0,8.170731707317074,70.79268292682927,-7.378048780487806,-0.021484375,-0.177734375,0.103515625
803,3.679,IMU1,-2.0121951219512195,72.07317073170732,0.6097560975609757,0.021484375,-0.2333984375,0.0869140625
804,3.689,IMU0,8.475609756097562,70.2439024390244,-6.829268292682928,-0.0244140625,-0.1796875,0.095703125
805,3.689,IMU1,-1.8902439024390245,71.70731707317074,0.48780487804878053,0.0302734375,-0.232421875,0.0849609375
806,3.699,IMU0,8.902439024390244,69.57317073170732,-7.317073170731708,-0.025390625,-0.181640625,0.072265625
807,3.699,IMU1,-1.5853658536585367,71.15853658536587,0.48780487804878053,0.0322265625,-0.2314453125,0.076171875
808,3.709,IMU0,8.902439024390244,69.63414634146342,-7.073170731707318,-0.0068359375,-0.177734375,0.072265625
809,3.709,IMU1,-1.2804878048780488,70.73170731707317,0.5487804878048781,0.0458984375,-0.2275390625,0.076171875
810,3.719,IMU0,9.02439024390244,69.26829268292684,-6.890243902439025,0.01171875,-0.1787109375,0.076171875
811,3.719,IMU1,-0.9146341463414634,70.48780487804879,0.7926829268292683,0.05078125,-0.2265625,0.0673828125
812,3.729,IMU0,9.634146341463415,69.02439024390245,-6.402439024390245,-0.0068359375,-0.181640625,0.076171875
813,3.729,IMU1,-0.426829268292683,70.1219512195122,1.1585365853658538,0.048828125,-0.2255859375,0.0654296875
814,3.739,IMU0,10.548780487804878,68.47560975609757,-5.975609756097562,-0.01171875,-0.1865234375,0.0703125
815,3.739,IMU1,-0.06097560975609757,69.63414634146342,1.524390243902439,0.0439453125,-0.228515625,0.078125
816,3.749,IMU0,10.548780487804878,68.47560975609757,-5.7926829268292686,-0.017578125,-0.1845703125,0.0703125
817,3.749,IMU1,0.426829268292683,69.39024390243902,1.829268292682927,0.0419921875,-0.228515625,0.0791015625
818,3.759,IMU0,11.036585365853659,68.29268292682927,-5.548780487804878,-0.01171875,-0.1806640625,0.0927734375
819,3.759,IMU1,0.853658536585366,69.20731707317074,2.1341463414634148,0.0380859375,-0.2275390625,0.0869140625
820,3.769,IMU0,11.402439024390246,68.29268292682927,-4.817073170731708,-0.0146484375,-0.181640625,0.0947265625
821,3.769,IMU1,1.0975609756097562,69.02439024390245,2.439024390243903,0.0361328125,-0.2265625,0.087890625
822,3.779,IMU0,11.036585365853659,67.98780487804879,-5.2439024390243905,-0.02734375,-0.181640625,0.0927734375
823,3.779,IMU1,1.2804878048780488,68.96341463414635,2.6219512195121952,0.037109375,-0.224609375,0.0966796875
824,3.789,IMU0,12.317073170731708,67.43902439024392,-5.609756097560976,-0.0224609375,-0.1728515625,0.1025390625
825,3.789,IMU1,1.4634146341463417,68.78048780487805,2.7439024390243905,0.0341796875,-0.21875,0.0927734375
826,3.799,IMU0,12.073170731707318,66.82926829268293,-4.75609756097561,-0.01171875,-0.166015625,0.1171875
827,3.799,IMU1,1.6463414634146343,68.53658536585367,2.8658536585365857,0.0341796875,-0.21875,0.0986328125
828,3.809,IMU0,12.378048780487806,66.34146341463415,-4.51219512195122,-0.0078125,-0.177734375,0.1005859375
829,3.809,IMU1,1.829268292682927,67.92682926829269,3.048780487804878,0.041015625,-0.2197265625,0.0947265625
830,3.819,IMU0,12.682926829268293,65.67073170731707,-3.780487804878049,-0.009765625,-0.173828125,0.111328125
831,3.819,IMU1,2.0121951219512195,67.43902439024392,3.353658536585366,0.0390625,-0.2216796875,0.099609375
832,3.829,IMU0,12.80487804878049,65.1829268292683,-2.987804878048781,-0.009765625,-0.162109375,0.1083984375
833,3.829,IMU1,2.1341463414634148,66.95121951219512,3.780487804878049,0.03125,-0.21875,0.1025390625
834,3.839,IMU0,12.74390243902439,64.39024390243902,-2.5609756097560976,-0.0380859375,-0.1591796875,0.111328125
835,3.839,IMU1,2.1341463414634148,66.40243902439025,4.024390243902439,0.01953125,-0.2138671875,0.109375
836,3.849,IMU0,12.256097560975611,64.51219512195122,-2.439024390243903,-0.0458984375,-0.162109375,0.1083984375
837,3.849,IMU1,2.073170731707317,66.28048780487805,4.2682926829268295,0.0107421875,-0.2099609375,0.1015625
838,3.859,IMU0,12.195121951219512,64.75609756097562,-2.439024390243903,-0.0380859375,-0.169921875,0.119140625
839,3.859,IMU1,2.073170731707317,66.15853658536587,4.207317073170732,0.001953125,-0.212890625,0.10546875
840,3.869,IMU0,12.500000000000002,64.32926829268293,-3.048780487804878,-0.0341796875,-0.166015625,0.109375
841,3.869,IMU1,2.073170731707317,65.97560975609757,4.085365853658537,0.0068359375,-0.212890625,0.095703125
842,3.879,IMU0,12.439024390243903,64.39024390243902,-3.4756097560975614,-0.041015625,-0.1630859375,0.1015625
843,3.879,IMU1,2.073170731707317,65.97560975609757,3.9024390243902443,0.0048828125,-0.2119140625,0.099609375
844,3.889,IMU0,12.500000000000002,64.45121951219512,-3.4756097560975614,-0.0361328125,-0.162109375,0.0947265625
845,3.889,IMU1,1.9512195121951221,66.03658536585367,3.7195121951219514,0.0078125,-0.208984375,0.09765625
846,3.899,IMU0,12.317073170731708,64.26829268292684,-3.9024390243902443,-0.0244140625,-0.16015625,0.1015625
847,3.899,IMU1,2.0121951219512195,66.09756097560977,3.5975609756097566,0.013671875,-0.2060546875,0.09765625
848,3.909,IMU0,12.378048780487806,64.32926829268293,-3.8414634146341466,-0.0283203125,-0.1630859375,0.103515625
849,3.909,IMU1,2.1951219512195124,65.97560975609757,3.5975609756097566,0.01953125,-0.205078125,0.095703125
850,3.919,IMU0,12.682926829268293,64.02439024390245,-4.2682926829268295,-0.0380859375,-0.1572265625,0.1025390625
851,3.919,IMU1,2.1951219512195124,66.09756097560977,3.658536585365854,0.0146484375,-0.2060546875,0.103515625
852,3.929,IMU0,12.74390243902439,64.39024390243902,-3.8414634146341466,-0.0224609375,-0.150390625,0.1005859375
853,3.929,IMU1,2.1951219512195124,66.34146341463415,3.5975609756097566,0.015625,-0.203125,0.10546875
854,3.939,IMU0,12.560975609756099,64.63414634146342,-4.024390243902439,-0.0283203125,-0.142578125,0.1083984375
855,3.939,IMU1,2.3170731707317076,66.34146341463415,3.658536585365854,0.017578125,-0.201171875,0.1083984375
856,3.949,IMU0,12.865853658536587,64.81707317073172,-3.2926829268292686,-0.0400390625,-0.146484375,0.1162109375
857,3.949,IMU1,2.378048780487805,66.46341463414635,3.658536585365854,0.015625,-0.19921875,0.1171875
858,3.959,IMU0,13.109756097560977,64.51219512195122,-3.353658536585366,-0.0322265625,-0.154296875,0.1181640625
859,3.959,IMU1,2.25609756097561,66.34146341463415,3.536585365853659,0.01953125,-0.197265625,0.119140625
860,3.969,IMU0,12.926829268292684,64.39024390243902,-3.658536585365854,-0.0263671875,-0.146484375,0.1142578125
861,3.969,IMU1,2.0121951219512195,66.15853658536587,3.353658536585366,0.0234375,-0.1923828125,0.1162109375
862,3.979,IMU0,12.74390243902439,64.02439024390245,-3.7195121951219514,-0.02734375,-0.1484375,0.1220703125
863,3.979,IMU1,1.7682926829268295,66.03658536585367,3.353658536585366,0.0263671875,-0.193359375,0.119140625
864,3.989,IMU0,12.621951219512196,64.87804878048782,-3.353658536585366,-0.01953125,-0.14453125,0.109375
865,3.989,IMU1,1.707317073170732,66.09756097560977,3.414634146341464,0.029296875,-0.1953125,0.1083984375
866,3.999,IMU0,12.317073170731708,65.1219512195122,-3.7195121951219514,-0.0087890625,-0.1494140625,0.0908203125
867,3.999,IMU1,1.6463414634146343,66.15853658536587,3.5975609756097566,0.0361328125,-0.1962890625,0.1015625
868,4.009,IMU0,12.378048780487806,64.87804878048782,-3.8414634146341466,-0.0205078125,-0.146484375,0.1044921875
869,4.009,IMU1,1.524390243902439,66.34146341463415,3.780487804878049,0.0283203125,-0.1943359375,0.1064453125
870,4.019,IMU0,12.195121951219512,64.87804878048782,-3.1097560975609757,-0.0244140625,-0.14453125,0.08984375
871,4.019,IMU1,1.402439024390244,66.28048780487805,3.9024390243902443,0.0234375,-0.1923828125,0.099609375
872,4.029,IMU0,11.76829268292683,64.81707317073172,-2.9268292682926833,-0.0419921875,-0.1484375,0.072265625
873,4.029,IMU1,1.2804878048780488,66.40243902439025,4.085365853658537,0.021484375,-0.189453125,0.08984375
874,4.039,IMU0,11.76829268292683,65.0,-2.7439024390243905,-0.0439453125,-0.1533203125,0.0732421875
875,4.039,IMU1,1.2195121951219514,66.82926829268293,4.2682926829268295,0.015625,-0.1875,0.083984375
876,4.049,IMU0,11.829268292682928,65.60975609756098,-2.439024390243903,-0.052734375,-0.1396484375,0.056640625
877,4.049,IMU1,1.0975609756097562,67.25609756097562,4.390243902439025,0.00390625,-0.1845703125,0.072265625
878,4.059,IMU0,12.195121951219512,65.79268292682927,-2.3170731707317076,-0.06640625,-0.1396484375,0.048828125
879,4.059,IMU1,1.0365853658536586,67.6219512195122,4.451219512195122,-0.0107421875,-0.181640625,0.0576171875
880,4.069,IMU0,12.378048780487806,66.34146341463415,-2.1951219512195124,-0.078125,-0.1376953125,0.05078125
881,4.069,IMU1,1.2195121951219514,67.98780487804879,4.451219512195122,-0.015625,-0.181640625,0.046875
882,4.079,IMU0,12.195121951219512,65.91463414634147,-2.804878048780488,-0.0927734375,-0.1494140625,0.0537109375
883,4.079,IMU1,1.4634146341463417,67.98780487804879,4.329268292682928,-0.029296875,-0.1826171875,0.044921875
884,4.089,IMU0,11.951219512195124,66.15853658536587,-2.804878048780488,-0.091796875,-0.1484375,0.0361328125
885,4.089,IMU1,1.8902439024390245,68.04878048780489,4.024390243902439,-0.0400390625,-0.1806640625,0.03515625
886,4.099,IMU0,12.560975609756099,66.03658536585367,-2.987804878048781,-0.0908203125,-0.1376953125,0.0322265625
887,4.099,IMU1,2.5609756097560976,67.8048780487805,3.658536585365854,-0.046875,-0.1806640625,0.033203125
888,4.109,IMU0,13.536585365853659,66.09756097560977,-3.414634146341464,-0.0966796875,-0.13671875,0.04296875
889,4.109,IMU1,3.2926829268292686,67.43902439024392,3.353658536585366,-0.0498046875,-0.18359375,0.0478515625
890,4.119,IMU0,14.390243902439027,65.0,-3.8414634146341466,-0.1162109375,-0.140625,0.0478515625
891,4.119,IMU1,4.085365853658537,66.82926829268293,2.987804878048781,-0.056640625,-0.1845703125,0.05078125
892,4.129,IMU0,14.817073170731708,63.963414634146346,-4.939024390243903,-0.1259765625,-0.1435546875,0.064453125
893,4.129,IMU1,4.817073170731708,66.03658536585367,2.5609756097560976,-0.060546875,-0.185546875,0.0673828125
894,4.139,IMU0,15.060975609756099,62.804878048780495,-5.670731707317073,-0.115234375,-0.1435546875,0.06640625
895,4.139,IMU1,5.3048780487804885,65.0,2.0121951219512195,-0.064453125,-0.18359375,0.0859375
896,4.149,IMU0,15.487804878048783,61.21951219512196,-6.2804878048780495,-0.1142578125,-0.1416015625,0.0859375
897,4.149,IMU1,5.609756097560976,64.02439024390245,1.4634146341463417,-0.0595703125,-0.1826171875,0.103515625
898,4.159,IMU0,15.54878048780488,61.21951219512196,-6.585365853658537,-0.1220703125,-0.1435546875,0.1044921875
899,4.159,IMU1,5.853658536585367,63.47560975609757,0.853658536585366,-0.064453125,-0.1826171875,0.115234375
900,4.169,IMU0,15.914634146341465,61.15853658536586,-7.500000000000001,-0.123046875,-0.1396484375,0.1162109375
901,4.169,IMU1,5.914634146341464,63.04878048780488,0.1829268292682927,-0.0615234375,-0.181640625,0.12890625
902,4.179,IMU0,16.402439024390244,60.54878048780488,-8.231707317073171,-0.1220703125,-0.1357421875,0.1298828125
903,4.179,IMU1,5.975609756097562,62.37804878048781,-0.426829268292683,-0.05859375,-0.1826171875,0.138671875
904,4.189,IMU0,16.34146341463415,60.54878048780488,-8.536585365853659,-0.109375,-0.126953125,0.1484375
905,4.189,IMU1,5.853658536585367,62.01219512195122,-0.9756097560975611,-0.0546875,-0.1826171875,0.1494140625
906,4.199,IMU0,15.365853658536587,60.243902439024396,-8.841463414634147,-0.1005859375,-0.1279296875,0.1611328125
907,4.199,IMU1,5.487804878048781,62.13414634146342,-1.402439024390244,-0.0458984375,-0.181640625,0.154296875
908,4.209,IMU0,14.634146341463415,60.79268292682927,-8.658536585365855,-0.10546875,-0.134765625,0.1669921875
909,4.209,IMU1,5.060975609756098,62.43902439024391,-1.8902439024390245,-0.0439453125,-0.1787109375,0.162109375
910,4.219,IMU0,14.756097560975611,61.28048780487806,-9.878048780487806,-0.08984375,-0.12890625,0.1669921875
911,4.219,IMU1,4.634146341463415,62.926829268292686,-2.3170731707317076,-0.0361328125,-0.17578125,0.1669921875
912,4.229,IMU0,15.000000000000002,61.28048780487806,-10.182926829268293,-0.0693359375,-0.1201171875,0.15625
913,4.229,IMU1,4.146341463414634,62.926829268292686,-2.804878048780488,-0.02734375,-0.1748046875,0.1689453125
914,4.239,IMU0,13.841463414634148,60.79268292682927,-10.609756097560977,-0.0625,-0.115234375,0.1591796875
915,4.239,IMU1,3.536585365853659,62.31707317073171,-3.1707317073170733,-0.0107421875,-0.1728515625,0.1708984375
916,4.249,IMU0,13.231707317073171,60.426829268292686,-10.426829268292684,-0.0595703125,-0.1240234375,0.1630859375
917,4.249,IMU1,2.987804878048781,61.82926829268293,-3.353658536585366,-0.0078125,-0.171875,0.1689453125
918,4.259,IMU0,12.926829268292684,60.365853658536594,-10.853658536585368,-0.0517578125,-0.115234375,0.1767578125
919,4.259,IMU1,2.5609756097560976,61.646341463414636,-3.5975609756097566,0.0,-0.169921875,0.1728515625
920,4.269,IMU0,12.195121951219512,60.304878048780495,-11.341463414634147,-0.0283203125,-0.111328125,0.193359375
921,4.269,IMU1,2.1951219512195124,61.646341463414636,-3.7195121951219514,0.0068359375,-0.1669921875,0.1767578125
922,4.279,IMU0,11.829268292682928,60.54878048780488,-10.853658536585368,-0.0244140625,-0.1201171875,0.1748046875
923,4.279,IMU1,1.829268292682927,61.95121951219513,-3.7195121951219514,0.0146484375,-0.1669921875,0.1806640625
924,4.289,IMU0,11.097560975609756,60.426829268292686,-10.487804878048781,-0.0244140625,-0.1201171875,0.18359375
925,4.289,IMU1,1.402439024390244,62.13414634146342,-3.658536585365854,0.021484375,-0.1669921875,0.1845703125
926,4.299,IMU0,11.158536585365855,60.487804878048784,-11.158536585365855,-0.013671875,-0.11328125,0.185546875
927,4.299,IMU1,0.9146341463414634,62.25609756097562,-3.4756097560975614,0.0244140625,-0.1650390625,0.189453125
928,4.309,IMU0,10.24390243902439,60.73170731707317,-11.036585365853659,-0.017578125,-0.125,0.1875
929,4.309,IMU1,0.1829268292682927,62.804878048780495,-3.2926829268292686,0.025390625,-0.1640625,0.19140625
930,4.319,IMU0,9.51219512195122,61.646341463414636,-10.731707317073171,0.0029296875,-0.1142578125,0.1796875
931,4.319,IMU1,-0.6707317073170732,63.78048780487806,-3.1097560975609757,0.0322265625,-0.1630859375,0.1904296875
932,4.329,IMU0,8.475609756097562,63.04878048780488,-10.670731707317074,-0.01171875,-0.111328125,0.1728515625
933,4.329,IMU1,-1.4634146341463417,64.32926829268293,-2.804878048780488,0.03125,-0.1611328125,0.1787109375
934,4.339,IMU0,8.292682926829269,63.04878048780488,-9.878048780487806,-0.0009765625,-0.1103515625,0.16796875
935,4.339,IMU1,-2.1341463414634148,64.45121951219512,-2.5,0.0361328125,-0.158203125,0.169921875
936,4.349,IMU0,7.926829268292684,62.13414634146342,-9.390243902439025,-0.01171875,-0.12109375,0.15625
937,4.349,IMU1,-2.7439024390243905,64.08536585365854,-2.25609756097561,0.0283203125,-0.15625,0.1689453125
938,4.359,IMU0,6.951219512195123,61.585365853658544,-9.02439024390244,-0.0078125,-0.1015625,0.140625
939,4.359,IMU1,-3.231707317073171,63.78048780487806,-1.9512195121951221,0.0390625,-0.154296875,0.1591796875
940,4.369,IMU0,7.073170731707318,61.40243902439025,-8.658536585365855,-0.0244140625,-0.0966796875,0.1484375
941,4.369,IMU1,-3.658536585365854,63.53658536585366,-1.6463414634146343,0.02734375,-0.1533203125,0.15625
942,4.379,IMU0,6.707317073170732,61.524390243902445,-8.292682926829269,-0.0234375,-0.1005859375,0.1357421875
943,4.379,IMU1,-3.9024390243902443,63.53658536585366,-1.2804878048780488,0.03515625,-0.1533203125,0.1494140625
944,4.389,IMU0,6.219512195121951,61.34146341463415,-8.597560975609756,-0.0126953125,-0.107421875,0.1318359375
945,4.389,IMU1,-4.207317073170732,63.41463414634147,-1.0365853658536586,0.02734375,-0.1513671875,0.150390625
946,4.399,IMU0,5.975609756097562,61.82926829268293,-7.621951219512196,-0.0087890625,-0.10546875,0.1298828125
947,4.399,IMU1,-4.51219512195122,63.53658536585366,-0.7317073170731708,0.0361328125,-0.1494140625,0.142578125
948,4.409,IMU0,5.182926829268293,61.28048780487806,-7.317073170731708,-0.037109375,-0.1083984375,0.140625
949,4.409,IMU1,-4.878048780487806,63.41463414634147,-0.426829268292683,0.02734375,-0.1484375,0.1455078125
950,4.419,IMU0,4.878048780487806,61.21951219512196,-7.500000000000001,-0.033203125,-0.1142578125,0.1240234375
951,4.419,IMU1,-5.2439024390243905,63.29268292682927,-0.24390243902439027,0.029296875,-0.1484375,0.1396484375
952,4.429,IMU0,4.451219512195122,61.524390243902445,-7.25609756097561,-0.0322265625,-0.1103515625,0.1328125
953,4.429,IMU1,-5.548780487804878,63.17073170731708,0.06097560975609757,0.021484375,-0.1484375,0.1357421875
954,4.439,IMU0,4.878048780487806,60.91463414634147,-6.707317073170732,-0.033203125,-0.1005859375,0.12109375
955,4.439,IMU1,-5.7926829268292686,63.04878048780488,0.30487804878048785,0.0283203125,-0.146484375,0.1259765625
956,4.449,IMU0,4.390243902439025,60.60975609756098,-6.341463414634147,-0.0244140625,-0.0966796875,0.09375
957,4.449,IMU1,-5.914634146341464,62.865853658536594,0.48780487804878053,0.017578125,-0.1455078125,0.1181640625
958,4.459,IMU0,4.451219512195122,60.79268292682927,-6.036585365853659,-0.0263671875,-0.111328125,0.08984375
959,4.459,IMU1,-5.853658536585367,62.743902439024396,0.7317073170731708,0.0185546875,-0.1455078125,0.111328125
960,4.469,IMU0,4.390243902439025,60.67073170731708,-6.036585365853659,-0.0234375,-0.1103515625,0.091796875
961,4.469,IMU1,-5.914634146341464,62.6829268292683,0.7926829268292683,0.0087890625,-0.14453125,0.1123046875
962,4.479,IMU0,4.878048780487806,60.426829268292686,-6.158536585365854,-0.0361328125,-0.107421875,0.0986328125
963,4.479,IMU1,-5.914634146341464,62.6219512195122,0.853658536585366,0.0068359375,-0.14453125,0.103515625
964,4.489,IMU0,4.573170731707317,60.243902439024396,-6.036585365853659,-0.0439453125,-0.103515625,0.0888671875
965,4.489,IMU1,-5.7926829268292686,62.31707317073171,0.7926829268292683,0.0,-0.142578125,0.1005859375
966,4.499,IMU0,4.695121951219512,60.060975609756106,-6.219512195121951,-0.037109375,-0.1064453125,0.0986328125
967,4.499,IMU1,-5.609756097560976,62.19512195121952,0.7926829268292683,0.0048828125,-0.142578125,0.09765625
968,4.509,IMU0,5.3048780487804885,60.1829268292683,-6.341463414634147,-0.0361328125,-0.107421875,0.0986328125
969,4.509,IMU1,-5.365853658536586,62.13414634146342,0.6707317073170732,0.0,-0.1416015625,0.0947265625
970,4.519,IMU0,5.731707317073171,60.1829268292683,-6.585365853658537,-0.0322265625,-0.1025390625,0.0947265625
971,4.519,IMU1,-5.121951219512195,62.25609756097562,0.5487804878048781,0.001953125,-0.142578125,0.09765625
972,4.529,IMU0,5.548780487804878,60.73170731707317,-6.951219512195123,-0.0537109375,-0.1005859375,0.099609375
973,4.529,IMU1,-4.939024390243903,62.25609756097562,0.426829268292683,-0.001953125,-0.1416015625,0.1025390625
974,4.539,IMU0,5.853658536585367,60.426829268292686,-6.829268292682928,-0.0478515625,-0.08984375,0.0947265625
975,4.539,IMU1,-4.75609756097561,61.95121951219513,0.3658536585365854,0.00390625,-0.140625,0.1015625
976,4.549,IMU0,6.158536585365854,59.81707317073171,-6.646341463414635,-0.04296875,-0.0927734375,0.0888671875
977,4.549,IMU1,-4.573170731707317,61.34146341463415,0.30487804878048785,0.0048828125,-0.1416015625,0.095703125
978,4.559,IMU0,6.158536585365854,59.146341463414636,-7.01219512195122,-0.0361328125,-0.0810546875,0.0947265625
979,4.559,IMU1,-4.451219512195122,60.97560975609757,0.30487804878048785,0.01171875,-0.140625,0.095703125
980,4.569,IMU0,6.52439024390244,58.71951219512196,-6.707317073170732,-0.0458984375,-0.087890625,0.0888671875
981,4.569,IMU1,-4.2682926829268295,60.60975609756098,0.30487804878048785,0.0078125,-0.13671875,0.09765625
982,4.579,IMU0,6.036585365853659,58.71951219512196,-6.585365853658537,-0.0400390625,-0.08984375,0.0908203125
983,4.579,IMU1,-4.207317073170732,60.365853658536594,0.30487804878048785,0.0087890625,-0.13671875,0.0947265625
984,4.589,IMU0,6.890243902439025,58.47560975609757,-6.707317073170732,-0.0390625,-0.0859375,0.0927734375
985,4.589,IMU1,-3.963414634146342,59.93902439024391,0.30487804878048785,0.0126953125,-0.134765625,0.0927734375
986,4.599,IMU0,7.439024390243903,57.6829268292683,-6.341463414634147,-0.041015625,-0.0908203125,0.0908203125
987,4.599,IMU1,-3.7195121951219514,59.63414634146342,0.30487804878048785,0.0146484375,-0.134765625,0.08984375
988,4.609,IMU0,7.500000000000001,57.6219512195122,-6.646341463414635,-0.0556640625,-0.0859375,0.095703125
989,4.609,IMU1,-3.4756097560975614,59.268292682926834,0.3658536585365854,0.01171875,-0.1357421875,0.09375
990,4.619,IMU0,7.317073170731708,57.743902439024396,-7.317073170731708,-0.0458984375,-0.0888671875,0.0830078125
991,4.619,IMU1,-3.1707317073170733,58.963414634146346,0.426829268292683,0.013671875,-0.1357421875,0.0927734375
992,4.629,IMU0,7.926829268292684,57.50000000000001,-6.890243902439025,-0.0419921875,-0.0869140625,0.083984375
993,4.629,IMU1,-2.9268292682926833,58.59756097560976,0.48780487804878053,0.0126953125,-0.1337890625,0.095703125
994,4.639,IMU0,8.292682926829269,57.19512195121952,-6.951219512195123,-0.0439453125,-0.083984375,0.08203125
995,4.639,IMU1,-2.6219512195121952,58.29268292682927,0.6097560975609757,0.015625,-0.1328125,0.09375
996,4.649,IMU0,8.78048780487805,56.707317073170735,-6.707317073170732,-0.029296875,-0.0810546875,0.1005859375
997,4.649,IMU1,-2.378048780487805,58.04878048780488,0.6707317073170732,0.013671875,-0.1328125,0.099609375
998,4.659,IMU0,8.597560975609756,56.21951219512196,-6.52439024390244,-0.0380859375,-0.078125,0.0849609375
999,4.659,IMU1,-2.1951219512195124,57.926829268292686,0.7317073170731708,0.015625,-0.130859375,0.1015625
1000,4.669,IMU0,8.658536585365855,56.03658536585366,-6.585365853658537,-0.0400390625,-0.072265625,0.0986328125
1001,4.669,IMU1,-2.073170731707317,57.804878048780495,0.7926829268292683,0.0107421875,-0.12890625,0.1064453125
1002,4.679,IMU0,8.536585365853659,56.09756097560976,-6.707317073170732,-0.0283203125,-0.0751953125,0.111328125
1003,4.679,IMU1,-2.0121951219512195,57.6219512195122,0.9146341463414634,0.013671875,-0.126953125,0.1025390625
1004,4.689,IMU0,8.597560975609756,55.97560975609757,-6.402439024390245,-0.04296875,-0.0869140625,0.1103515625
1005,4.689,IMU1,-1.8902439024390245,57.31707317073171,1.0365853658536586,0.0126953125,-0.125,0.107421875
1006,4.699,IMU0,8.597560975609756,55.73170731707317,-6.52439024390244,-0.033203125,-0.0966796875,0.1201171875
1007,4.699,IMU1,-1.8902439024390245,57.07317073170732,1.1585365853658538,0.015625,-0.125,0.10546875
1008,4.709,IMU0,8.475609756097562,55.54878048780488,-6.036585365853659,-0.033203125,-0.083984375,0.1083984375
1009,4.709,IMU1,-2.0121951219512195,56.707317073170735,1.2804878048780488,0.009765625,-0.1259765625,0.1083984375
1010,4.719,IMU0,8.475609756097562,55.487804878048784,-5.426829268292684,-0.0302734375,-0.08984375,0.0859375
1011,4.719,IMU1,-2.073170731707317,56.768292682926834,1.402439024390244,0.0126953125,-0.1240234375,0.09765625
1012,4.729,IMU0,8.536585365853659,55.243902439024396,-5.548780487804878,-0.033203125,-0.08984375,0.0810546875
1013,4.729,IMU1,-1.9512195121951221,57.01219512195122,1.4634146341463417,0.0078125,-0.1240234375,0.09765625
1014,4.739,IMU0,9.207317073170733,55.1219512195122,-6.097560975609756,-0.0322265625,-0.0849609375,0.087890625
1015,4.739,IMU1,-1.6463414634146343,57.07317073170732,1.4634146341463417,0.01171875,-0.123046875,0.091796875
1016,4.749,IMU0,9.390243902439025,55.60975609756098,-5.548780487804878,-0.048828125,-0.0771484375,0.091796875
1017,4.749,IMU1,-1.402439024390244,57.01219512195122,1.4634146341463417,0.0068359375,-0.1220703125,0.095703125
1018,4.759,IMU0,9.51219512195122,55.487804878048784,-5.2439024390243905,-0.0458984375,-0.076171875,0.1025390625
1019,4.759,IMU1,-1.2195121951219514,56.82926829268293,1.402439024390244,0.0078125,-0.1201171875,0.09765625
1020,4.769,IMU0,9.634146341463415,54.57317073170732,-5.975609756097562,-0.056640625,-0.078125,0.1044921875
1021,4.769,IMU1,-1.0975609756097562,56.40243902439025,1.402439024390244,0.0068359375,-0.1181640625,0.107421875
1022,4.779,IMU0,9.329268292682928,54.32926829268293,-5.975609756097562,-0.0458984375,-0.078125,0.1025390625
1023,4.779,IMU1,-1.0365853658536586,55.79268292682927,1.524390243902439,0.0107421875,-0.119140625,0.1025390625
1024,4.789,IMU0,9.390243902439025,53.59756097560976,-5.914634146341464,-0.0322265625,-0.083984375,0.095703125
1025,4.789,IMU1,-1.0975609756097562,55.243902439024396,1.6463414634146343,0.009765625,-0.1181640625,0.10546875
1026,4.799,IMU0,9.390243902439025,53.23170731707317,-5.670731707317073,-0.0390625,-0.0771484375,0.0927734375
1027,4.799,IMU1,-1.1585365853658538,54.87804878048781,1.707317073170732,0.0068359375,-0.1181640625,0.099609375
1028,4.809,IMU0,9.451219512195122,52.6829268292683,-5.426829268292684,-0.0419921875,-0.072265625,0.091796875
1029,4.809,IMU1,-1.1585365853658538,54.451219512195124,1.6463414634146343,0.0078125,-0.1162109375,0.107421875
1030,4.819,IMU0,9.26829268292683,51.89024390243903,-5.121951219512195,-0.044921875,-0.072265625,0.0810546875
1031,4.819,IMU1,-1.1585365853658538,54.146341463414636,1.6463414634146343,0.0087890625,-0.1162109375,0.099609375
1032,4.829,IMU0,9.451219512195122,52.13414634146342,-5.487804878048781,-0.0390625,-0.0693359375,0.0908203125
1033,4.829,IMU1,-1.0975609756097562,53.78048780487806,1.707317073170732,0.009765625,-0.115234375,0.103515625
1034,4.839,IMU0,9.634146341463415,51.89024390243903,-5.2439024390243905,-0.046875,-0.0615234375,0.087890625
1035,4.839,IMU1,-1.0975609756097562,53.47560975609757,1.7682926829268295,0.009765625,-0.1142578125,0.09375
1036,4.849,IMU0,9.146341463414634,51.463414634146346,-5.0,-0.037109375,-0.0625,0.0986328125
1037,4.849,IMU1,-0.9146341463414634,53.35365853658537,1.8902439024390245,0.0068359375,-0.1142578125,0.1025390625
1038,4.859,IMU0,9.939024390243903,51.585365853658544,-5.182926829268293,-0.0478515625,-0.064453125,0.0908203125
1039,4.859,IMU1,-0.7926829268292683,53.23170731707317,2.0121951219512195,0.005859375,-0.1123046875,0.0986328125
1040,4.869,IMU0,9.817073170731708,51.646341463414636,-5.2439024390243905,-0.0537109375,-0.0625,0.1015625
1041,4.869,IMU1,-0.6707317073170732,53.10975609756098,2.1951219512195124,0.00390625,-0.1123046875,0.1044921875
1042,4.879,IMU0,10.426829268292684,51.646341463414636,-4.634146341463415,-0.0517578125,-0.052734375,0.1015625
1043,4.879,IMU1,-0.48780487804878053,53.23170731707317,2.25609756097561,-0.0029296875,-0.1123046875,0.1044921875
1044,4.889,IMU0,10.30487804878049,51.585365853658544,-4.451219512195122,-0.044921875,-0.060546875,0.10546875
1045,4.889,IMU1,-0.3658536585365854,53.17073170731708,2.378048780487805,-0.005859375,-0.111328125,0.11328125
1046,4.899,IMU0,10.426829268292684,51.768292682926834,-4.024390243902439,-0.05078125,-0.048828125,0.1123046875
1047,4.899,IMU1,-0.24390243902439027,53.04878048780488,2.378048780487805,-0.01171875,-0.1103515625,0.1171875
1048,4.909,IMU0,10.731707317073171,51.28048780487806,-3.658536585365854,-0.0673828125,-0.0478515625,0.119140625
1049,4.909,IMU1,-0.12195121951219513,52.987804878048784,2.3170731707317076,-0.0078125,-0.109375,0.1240234375
1050,4.919,IMU0,10.24390243902439,51.09756097560976,-4.024390243902439,-0.076171875,-0.05078125,0.1298828125
1051,4.919,IMU1,-0.12195121951219513,52.926829268292686,2.378048780487805,-0.01171875,-0.1083984375,0.12890625
1052,4.929,IMU0,10.182926829268293,51.03658536585366,-4.878048780487806,-0.076171875,-0.0625,0.1318359375
1053,4.929,IMU1,-0.12195121951219513,52.86585365853659,2.1951219512195124,-0.0126953125,-0.1064453125,0.134765625
1054,4.939,IMU0,10.426829268292684,50.97560975609756,-5.3048780487804885,-0.0703125,-0.0625,0.14453125
1055,4.939,IMU1,-0.1829268292682927,52.743902439024396,2.073170731707317,-0.0166015625,-0.1064453125,0.142578125
1056,4.949,IMU0,10.548780487804878,50.97560975609756,-5.487804878048781,-0.056640625,-0.0712890625,0.1474609375
1057,4.949,IMU1,-0.48780487804878053,52.804878048780495,1.8902439024390245,-0.017578125,-0.1044921875,0.1513671875
1058,4.959,IMU0,9.878048780487806,51.03658536585366,-5.365853658536586,-0.05078125,-0.0615234375,0.1533203125
1059,4.959,IMU1,-0.7926829268292683,52.743902439024396,1.7682926829268295,-0.0185546875,-0.103515625,0.154296875
1060,4.969,IMU0,9.085365853658537,51.09756097560976,-5.7926829268292686,-0.0458984375,-0.0556640625,0.1455078125
1061,4.969,IMU1,-1.0975609756097562,53.04878048780488,1.707317073170732,-0.017578125,-0.1015625,0.15234375
1062,4.979,IMU0,9.329268292682928,51.34146341463415,-5.548780487804878,-0.0673828125,-0.0595703125,0.146484375
1063,4.979,IMU1,-1.3414634146341464,53.04878048780488,1.6463414634146343,-0.0205078125,-0.1005859375,0.150390625
1064,4.989,IMU0,9.207317073170733,51.34146341463415,-5.2439024390243905,-0.07421875,-0.0537109375,0.1435546875
1065,4.989,IMU1,-1.707317073170732,52.926829268292686,1.524390243902439,-0.025390625,-0.1015625,0.158203125
1066,4.999,IMU0,8.231707317073171,51.09756097560976,-5.609756097560976,-0.0751953125,-0.0576171875,0.15234375
1067,4.999,IMU1,-2.073170731707317,52.926829268292686,1.2804878048780488,-0.0244140625,-0.1015625,0.1640625
1068,5.009,IMU0,7.743902439024391,51.646341463414636,-5.670731707317073,-0.0751953125,-0.0625,0.1630859375
1069,5.009,IMU1,-2.5,53.10975609756098,0.9756097560975611,-0.029296875,-0.1025390625,0.1630859375
1070,5.019,IMU0,7.195121951219513,51.89024390243903,-5.853658536585367,-0.06640625,-0.0595703125,0.1591796875
1071,5.019,IMU1,-2.9268292682926833,53.17073170731708,0.6707317073170732,-0.025390625,-0.103515625,0.162109375
1072,5.029,IMU0,7.073170731707318,51.82926829268293,-6.52439024390244,-0.0791015625,-0.048828125,0.166015625
1073,5.029,IMU1,-3.2926829268292686,53.29268292682927,0.3658536585365854,-0.03125,-0.1015625,0.1611328125
1074,5.039,IMU0,6.646341463414635,51.707317073170735,-7.317073170731708,-0.06640625,-0.0517578125,0.146484375
1075,5.039,IMU1,-3.7195121951219514,53.35365853658537,0.12195121951219513,-0.0244140625,-0.0986328125,0.158203125
1076,5.049,IMU0,6.463414634146342,52.01219512195122,-7.682926829268293,-0.0791015625,-0.0458984375,0.1552734375
1077,5.049,IMU1,-4.146341463414634,53.41463414634147,0.0,-0.02734375,-0.09765625,0.1611328125
1078,5.059,IMU0,6.219512195121951,51.585365853658544,-7.195121951219513,-0.078125,-0.0439453125,0.146484375
1079,5.059,IMU1,-4.573170731707317,53.35365853658537,-0.12195121951219513,-0.0244140625,-0.0966796875,0.1572265625
1080,5.069,IMU0,5.609756097560976,51.34146341463415,-7.25609756097561,-0.0927734375,-0.0498046875,0.1474609375
1081,5.069,IMU1,-5.0,53.10975609756098,-0.30487804878048785,-0.0322265625,-0.0966796875,0.1591796875
1082,5.079,IMU0,5.487804878048781,51.463414634146346,-7.682926829268293,-0.095703125,-0.0478515625,0.13671875
1083,5.079,IMU1,-5.487804878048781,53.10975609756098,-0.5487804878048781,-0.0322265625,-0.095703125,0.1494140625
1084,5.089,IMU0,5.060975609756098,51.707317073170735,-8.170731707317074,-0.09375,-0.046875,0.1416015625
1085,5.089,IMU1,-5.914634146341464,53.17073170731708,-0.7926829268292683,-0.0390625,-0.0947265625,0.1494140625
1086,5.099,IMU0,4.390243902439025,51.585365853658544,-7.743902439024391,-0.0830078125,-0.044921875,0.1416015625
1087,5.099,IMU1,-6.402439024390245,53.10975609756098,-0.9146341463414634,-0.0419921875,-0.0927734375,0.142578125
1088,5.109,IMU0,3.9024390243902443,51.28048780487806,-8.170731707317074,-0.08984375,-0.04296875,0.134765625
1089,5.109,IMU1,-6.829268292682928,52.987804878048784,-1.1585365853658538,-0.046875,-0.0908203125,0.1416015625
1090,5.119,IMU0,3.5975609756097566,50.73170731707317,-8.719512195121952,-0.0888671875,-0.044921875,0.130859375
1091,5.119,IMU1,-7.134146341463415,52.6829268292683,-1.402439024390244,-0.044921875,-0.0888671875,0.1328125
1092,5.129,IMU0,3.1097560975609757,50.79268292682927,-8.78048780487805,-0.1103515625,-0.0498046875,0.1142578125
1093,5.129,IMU1,-7.25609756097561,52.6219512195122,-1.524390243902439,-0.0546875,-0.087890625,0.1220703125
1094,5.139,IMU0,3.2926829268292686,50.73170731707317,-9.146341463414634,-0.11328125,-0.0439453125,0.1259765625
1095,5.139,IMU1,-7.439024390243903,52.50000000000001,-1.829268292682927,-0.0615234375,-0.087890625,0.1162109375
1096,5.149,IMU0,2.7439024390243905,50.1219512195122,-9.329268292682928,-0.1162109375,-0.0478515625,0.1064453125
1097,5.149,IMU1,-7.439024390243903,52.31707317073171,-2.1341463414634148,-0.0654296875,-0.0859375,0.109375
1098,5.159,IMU0,2.987804878048781,50.304878048780495,-9.634146341463415,-0.111328125,-0.0556640625,0.0966796875
1099,5.159,IMU1,-7.378048780487806,52.6219512195122,-2.5,-0.0693359375,-0.0859375,0.107421875
1100,5.169,IMU0,2.7439024390243905,51.34146341463415,-9.573170731707318,-0.1171875,-0.0537109375,0.0986328125
1101,5.169,IMU1,-7.195121951219513,52.86585365853659,-2.987804878048781,-0.07421875,-0.0849609375,0.103515625
1102,5.179,IMU0,3.048780487804878,51.524390243902445,-10.121951219512196,-0.123046875,-0.0546875,0.091796875
1103,5.179,IMU1,-7.195121951219513,53.17073170731708,-3.536585365853659,-0.0791015625,-0.0859375,0.1044921875
1104,5.189,IMU0,3.4756097560975614,51.585365853658544,-11.28048780487805,-0.125,-0.048828125,0.0849609375
1105,5.189,IMU1,-7.073170731707318,53.17073170731708,-4.207317073170732,-0.076171875,-0.0859375,0.09765625
1106,5.199,IMU0,3.1097560975609757,51.28048780487806,-11.890243902439025,-0.1259765625,-0.0419921875,0.1005859375
1107,5.199,IMU1,-6.829268292682928,53.10975609756098,-4.878048780487806,-0.076171875,-0.0859375,0.0986328125
1108,5.209,IMU0,3.780487804878049,51.15853658536586,-12.439024390243903,-0.12890625,-0.041015625,0.1044921875
1109,5.209,IMU1,-6.707317073170732,52.926829268292686,-5.548780487804878,-0.0712890625,-0.0869140625,0.0908203125
