,ts,acc_x,acc_y,acc_z
0,-0.331,-2,-1,0
1,-0.321,-2,-1,0
2,-0.311,-2,-1,0
3,-0.301,-2,-1,0
4,-0.291,-2,-1,0
5,-0.281,-2,-1,0
6,-0.271,-2,-1,0
7,-0.261,-2,-1,0
8,-0.251,-2,-1,0
9,-0.241,-2,-1,0
10,-0.231,-2,-1,0
11,-0.221,-2,-1,0
12,-0.211,-2,-1,0
13,-0.201,-2,-1,0
14,-0.191,-2,-1,0
15,-0.181,-2,-1,0
16,-0.171,-2,-1,0
17,-0.161,-2,-1,0
18,-0.151,-2,-1,0
19,-0.141,-2,-1,0
20,-0.131,-2,-1,0
21,-0.121,-2,-1,0
22,-0.111,-2,-1,0
23,-0.101,-2,-1,0
24,-0.091,-10,-1,0
25,-0.081,-16,-1,0
26,-0.071,-16,-1,0
27,-0.061,-15,-1,0
28,-0.051,-14,-1,0
29,-0.041,-14,0,0
30,-0.031,-16,-1,0
31,-0.021,-16,0,0
32,-0.011,-15,-1,0
33,-0.001,-16,-1,0
34,0.009,-16,-1,0
35,0.019,-16,-1,0
36,0.029,-16,-1,0
37,0.039,-16,-1,0
38,0.049,-16,-1,0
39,0.059,-16,-1,0
40,0.069,-16,-1,0
41,0.079,-16,-1,0
42,0.089,-16,-1,0
43,0.099,-16,-1,0
44,0.109,-16,-1,0
45,0.119,-16,-1,0
46,0.129,-16,-1,0
47,0.139,-16,-1,0
48,0.149,-16,-1,0
49,0.159,-16,-1,0
50,0.169,-15,-1,0
51,0.179,-16,-1,0
52,0.189,-16,-1,0
53,0.199,-16,-1,0
54,0.209,-15,-1,0
55,0.219,-16,-1,0
56,0.229,-15,-1,0
57,0.239,-16,-1,0
58,0.249,-16,-1,0
59,0.259,-15,-1,0
60,0.269,-15,0,0
61,0.279,-15,-1,0
62,0.289,-15,-1,0
63,0.299,-15,-1,0
64,0.309,-15,-1,0
65,0.319,-15,-1,0
66,0.329,-14,-1,0
67,0.339,-14,-1,0
68,0.349,-15,-1,0
69,0.359,-14,-1,0
70,0.369,-14,-1,0
71,0.379,-14,-1,0
72,0.389,-14,-1,0
73,0.399,-14,-1,0
74,0.409,-14,-1,0
75,0.419,-14,-1,0
76,0.429,-14,-1,0
77,0.439,-14,-1,0
78,0.449,-14,-1,0
79,0.459,-13,-1,0
80,0.469,-14,-1,0
81,0.479,-14,-1,0
82,0.489,-13,-1,0
83,0.499,-13,-1,0
84,0.509,-13,-1,0
85,0.519,-13,-1,0
86,0.529,-13,-1,0
87,0.539,-13,-1,0
88,0.549,-13,-1,0
89,0.559,-12,-1,0
90,0.569,-12,-1,0
91,0.579,-12,-1,0
92,0.589,-12,-1,0
93,0.599,-12,-1,0
94,0.609,-12,-1,0
95,0.619,-11,-1,0
96,0.629,-11,-1,0
97,0.639,-11,-1,0
98,0.649,-11,0,0
99,0.659,-11,-1,0
100,0.669,-11,-1,0
101,0.679,-11,-1,0
102,0.689,-11,0,0
103,0.699,-11,-1,0
104,0.709,-10,-1,0
105,0.719,-10,-1,0
106,0.729,-10,-1,0
107,0.739,-10,0,0
108,0.749,-10,0,0
109,0.759,-10,-1,0
110,0.769,-9,-1,0
111,0.779,-9,-1,0
112,0.789,-9,-1,0
113,0.799,-9,-1,0
114,0.809,-9,0,0
115,0.819,-9,-1,0
116,0.829,-8,-1,0
117,0.839,-9,-1,0
118,0.849,-8,-1,0
119,0.859,-8,-1,0
120,0.869,-8,0,0
121,0.879,-7,-1,0
122,0.889,-7,0,0
123,0.899,-6,-1,0
124,0.909,-5,0,0
125,0.919,-4,-1,0
126,0.929,-3,0,0
127,0.939,-2,-1,0
128,0.949,-1,-1,0
129,0.959,-1,-1,0
130,0.969,0,0,0
131,0.979,0,-1,0
132,0.989,0,0,0
133,0.999,0,-1,0
134,1.009,1,-1,0
135,1.019,0,-1,0
136,1.029,1,-1,0
137,1.039,0,-1,0
138,1.049,0,-1,0
139,1.059,1,-1,0
140,1.069,1,-1,0
141,1.079,0,-1,0
142,1.089,0,-1,0
143,1.099,1,-1,0
144,1.109,0,-1,0
145,1.119,1,-1,0
146,1.129,0,-1,0
147,1.139,0,-1,0
148,1.149,0,-1,0
149,1.159,1,-1,0
150,1.169,0,-1,0
151,1.179,0,-1,0
152,1.189,0,-1,0
153,1.199,0,-1,0
154,1.209,0,-1,0
155,1.219,0,0,0
156,1.229,0,-1,0
157,1.239,0,-1,0
158,1.249,0,-1,0
159,1.259,0,-1,0
160,1.269,0,-1,0
161,1.279,0,-1,0
162,1.289,1,-1,0
163,1.299,0,0,0
164,1.309,0,0,0
165,1.319,0,-1,0
166,1.329,0,-1,0
167,1.339,1,0,0
168,1.349,0,-1,0
169,1.359,0,0,0
170,1.369,0,-1,0
171,1.379,0,-1,0
172,1.389,0,-1,0
173,1.399,0,-1,0
174,1.409,0,-1,0
175,1.419,0,-1,0
176,1.429,0,-1,0
177,1.439,0,-1,0
178,1.449,0,-1,0
179,1.459,0,-1,0
180,1.469,0,-1,0
181,1.479,0,-1,0
182,1.489,0,-1,0
183,1.499,0,-1,0
184,1.509,0,-1,0
185,1.519,0,-1,0
186,1.529,0,-1,0
187,1.539,0,-1,0
188,1.549,0,-1,0
189,1.559,1,-1,0
190,1.569,0,-1,0
191,1.579,0,-1,0
192,1.589,0,-1,0
193,1.599,0,-1,0
194,1.609,0,0,0
195,1.619,1,-1,0
196,1.629,0,-1,0
197,1.639,0,-1,0
198,1.649,1,0,0
199,1.659,0,-1,0
200,1.669,0,-1,0
201,1.679,0,-1,0
202,1.689,0,-1,0
203,1.699,0,-1,0
204,1.709,0,0,0
205,1.719,0,-1,0
206,1.729,0,-1,0
207,1.739,0,-1,0
208,1.749,0,-1,0
209,1.759,0,0,0
210,1.769,0,-1,0
211,1.779,0,-1,0
212,1.789,0,-1,0
213,1.799,0,-1,0
214,1.809,0,-1,0
215,1.819,0,-1,0
216,1.829,0,-1,0
217,1.839,0,-1,0
218,1.849,0,-1,0
219,1.859,0,-1,0
220,1.869,0,-1,0
221,1.879,0,-1,0
222,1.889,0,-1,0
223,1.899,0,-1,0
224,1.909,0,0,0
225,1.919,0,-1,0
226,1.929,0,-1,0
227,1.939,0,-1,0
228,1.949,0,-1,0
229,1.959,0,-1,0
230,1.969,0,-1,0
231,1.979,0,-1,0
232,1.989,0,0,0
233,1.999,0,-1,0
234,2.009,0,-1,0
235,2.019,0,-1,0
236,2.029,0,-1,0
237,2.039,0,-1,0
238,2.049,0,-1,0
239,2.059,0,-1,0
240,2.069,0,-1,0
241,2.079,0,-1,0
242,2.089,0,-1,0
243,2.099,0,-1,0
244,2.109,0,-1,0
245,2.119,0,-1,0
246,2.129,0,-1,0
247,2.139,0,-1,0
248,2.149,0,-1,0
249,2.159,0,-1,0
250,2.169,0,-1,0
251,2.179,0,-1,0
252,2.189,0,-1,0
253,2.199,0,-1,0
254,2.209,0,-1,0
255,2.219,0,-1,0
256,2.229,0,-1,0
257,2.239,0,-1,0
258,2.249,0,-1,0
259,2.259,0,-1,0
260,2.269,0,-1,0
261,2.279,0,-1,0
262,2.289,0,-1,0
263,2.299,0,-1,0
264,2.309,0,-1,0
265,2.319,0,-1,0
266,2.329,0,-1,0
267,2.339,0,-1,0
268,2.349,0,-1,0
269,2.359,0,-1,0
270,2.369,0,-1,0
271,2.379,0,-1,0
272,2.389,0,-1,0
273,2.399,0,-1,0
274,2.409,0,-1,0
275,2.419,0,-1,0
276,2.429,0,-1,0
277,2.439,0,-1,0
278,2.449,0,-1,0
279,2.459,0,-1,0
280,2.469,0,-1,0
281,2.479,0,-1,0
282,2.489,0,-1,0
283,2.499,0,-1,0
284,2.509,0,-1,0
285,2.519,0,-1,0
286,2.529,0,-1,0
287,2.539,0,-1,0
288,2.549,0,-1,0
289,2.559,0,-1,0
290,2.569,0,-1,0
291,2.579,0,-1,0
292,2.589,0,-1,0
293,2.599,0,-1,0
294,2.609,0,0,0
295,2.619,0,-1,0
296,2.629,0,-1,0
297,2.639,0,-1,0
298,2.649,0,-1,0
299,2.659,0,-1,0
300,2.669,0,-1,0
301,2.679,0,-1,0
302,2.689,0,-1,0
303,2.699,0,-1,0
304,2.709,0,-1,0
305,2.719,0,-1,0
306,2.729,0,-1,0
307,2.739,0,-1,0
308,2.749,0,-1,0
309,2.759,0,-1,0
310,2.769,0,-1,0
311,2.779,0,-1,0
312,2.789,0,-1,0
313,2.799,0,-1,0
314,2.809,0,-1,0
315,2.819,0,-1,0
316,2.829,0,-1,0
317,2.839,0,-1,0
318,2.849,0,-1,0
319,2.859,0,-1,0
320,2.869,0,-1,0
321,2.879,0,-1,0
322,2.889,0,-1,0
323,2.899,0,-1,0
324,2.909,0,-1,0
325,2.919,0,-1,0
326,2.929,0,-1,0
327,2.939,0,-1,0
328,2.949,0,0,0
329,2.959,0,-1,0
330,2.969,0,-1,0
331,2.979,0,-1,0
332,2.989,0,-1,0
333,2.999,0,-1,0
334,3.009,0,0,0
335,3.019,0,-1,0
336,3.029,0,-1,0
337,3.039,0,-1,0
338,3.049,0,-1,0
339,3.059,0,-1,0
340,3.069,0,-1,0
341,3.079,0,-1,0
342,3.089,0,-1,0
343,3.099,0,-1,0
344,3.109,0,-1,0
345,3.119,0,-1,0
346,3.129,0,-1,0
347,3.139,0,-1,0
348,3.149,0,-1,0
349,3.159,0,-1,0
350,3.169,0,-1,0
351,3.179,0,-1,0
352,3.189,0,-1,0
353,3.199,0,-1,0
354,3.209,0,-1,0
355,3.219,0,-1,0
356,3.229,0,-1,0
357,3.239,0,-1,0
358,3.249,0,-1,0
359,3.259,0,-1,0
360,3.269,0,-1,0
361,3.279,0,-1,0
362,3.289,0,-1,0
363,3.299,0,-1,0
364,3.309,0,-1,0
365,3.319,0,-1,0
366,3.329,0,-1,0
367,3.339,0,-1,0
368,3.349,0,-1,0
369,3.359,0,-1,0
370,3.369,0,-1,0
371,3.379,0,-1,0
372,3.389,0,-1,0
373,3.399,0,-1,0
374,3.409,0,0,0
375,3.419,0,-1,0
376,3.429,0,-1,0
377,3.439,0,-1,0
378,3.449,0,-1,0
379,3.459,0,-1,0
380,3.469,0,-1,0
381,3.479,0,-1,0
382,3.489,0,-1,0
383,3.499,-1,-1,0
384,3.509,0,-1,0
385,3.519,-1,-1,0
386,3.529,0,-1,0
387,3.539,0,-1,0
388,3.549,0,-1,0
389,3.559,0,-1,0
390,3.569,0,-1,0
391,3.579,0,-1,0
392,3.589,0,-1,0
393,3.599,0,-1,0
394,3.609,0,-1,0
395,3.619,0,-1,0
396,3.629,0,-1,0
397,3.639,0,-1,0
398,3.649,0,-1,0
399,3.659,0,-1,0
400,3.669,0,-1,0
401,3.679,0,-1,0
402,3.689,0,-1,0
403,3.699,0,-1,0
404,3.709,0,0,0
405,3.719,0,-1,0
406,3.729,0,-1,0
407,3.739,0,-1,0
408,3.749,0,-1,0
409,3.759,0,-1,0
410,3.769,0,-1,0
411,3.779,0,-1,0
412,3.789,0,-1,0
413,3.799,0,-1,0
414,3.809,0,-1,0
415,3.819,0,-1,0
416,3.829,0,-1,0
417,3.839,0,-1,0
418,3.849,0,-1,0
419,3.859,0,-1,0
420,3.869,0,-1,0
421,3.879,0,-1,0
422,3.889,0,-1,0
423,3.899,0,-1,0
424,3.909,0,-1,0
425,3.919,0,-1,0
426,3.929,0,-1,0
427,3.939,0,-1,0
428,3.949,-1,-1,0
429,3.959,0,-1,0
430,3.969,0,-1,0
431,3.979,0,-1,0
432,3.989,0,-1,0
433,3.999,0,-1,0
434,4.009,0,-1,0
435,4.019,0,-1,0
436,4.029,0,-1,0
437,4.039,0,-1,0
438,4.049,0,-1,0
439,4.059,0,-1,0
440,4.069,0,-1,0
441,4.079,0,-1,0
442,4.089,0,-1,0
443,4.099,0,-1,0
444,4.109,0,-1,0
445,4.119,0,-1,0
446,4.129,-1,-1,0
447,4.139,0,-1,0
448,4.149,0,-1,0
449,4.159,0,-1,0
450,4.169,0,-1,0
451,4.179,0,-1,0
452,4.189,0,-1,0
453,4.199,0,-1,0
454,4.209,0,-1,0
455,4.219,-1,-1,0
456,4.229,0,-1,0
457,4.239,0,-1,0
458,4.249,0,-1,0
459,4.259,0,-1,0
460,4.269,-1,-1,0
461,4.279,0,-1,0
462,4.289,0,-1,0
463,4.299,0,-1,0
464,4.309,0,-1,0
465,4.319,0,-1,0
466,4.329,0,-1,0
467,4.339,0,-1,0
468,4.349,0,-1,0
469,4.359,0,-1,0
470,4.369,0,-1,0
471,4.379,0,-1,0
472,4.389,0,-1,0
473,4.399,0,-1,0
474,4.409,0,-1,0
475,4.419,0,-1,0
476,4.429,0,0,0
477,4.439,0,-1,0
478,4.449,0,-1,0
479,4.459,0,-1,0
480,4.469,0,-1,0
481,4.479,-1,-1,0
482,4.489,0,-1,0
483,4.499,-1,-1,0
484,4.509,0,-1,0
485,4.519,0,-1,0
486,4.529,0,-1,0
487,4.539,0,-1,0
488,4.549,0,-1,0
489,4.559,-1,-1,0
490,4.569,-1,-1,0
491,4.579,0,-1,0
492,4.589,0,-1,0
493,4.599,-1,-1,0
494,4.609,0,-1,0
495,4.619,0,-1,0
496,4.629,0,-1,0
497,4.639,0,-1,0
498,4.649,0,-1,0
499,4.659,-1,-1,0
500,4.669,-1,-1,0
501,4.679,-1,-1,0
502,4.689,0,-1,0
503,4.699,0,-1,0
504,4.709,0,-1,0
505,4.719,0,-1,0
506,4.729,0,-1,0
507,4.739,0,-1,0
508,4.749,0,-1,0
509,4.759,0,-1,0
510,4.769,0,-1,0
511,4.779,0,-1,0
512,4.789,0,-1,0
513,4.799,0,-1,0
514,4.809,-1,-1,0
515,4.819,0,-1,0
516,4.829,0,-1,0
517,4.839,-1,-1,0
518,4.849,0,-1,0
519,4.859,0,-1,0
520,4.869,0,-1,0
521,4.879,0,-1,0
522,4.889,0,-1,0
523,4.899,0,-1,0
524,4.909,0,-1,0
525,4.919,0,-1,0
526,4.929,0,-1,0
527,4.939,0,-1,0
528,4.949,0,-1,0
529,4.959,-1,-1,0
530,4.969,0,-1,0
531,4.979,0,-1,0
532,4.989,0,-1,0
533,4.999,0,-1,0
534,5.009,0,-1,0
535,5.019,0,-1,0
536,5.029,-1,-1,0
537,5.039,-1,-1,0
538,5.049,0,-1,0
539,5.059,0,-1,0
540,5.069,0,-1,0
541,5.079,0,-1,0
542,5.089,0,-1,0
543,5.099,0,-1,0
544,5.109,-1,-1,0
545,5.119,0,-1,0
546,5.129,-1,-1,0
547,5.139,0,-1,0
548,5.149,-1,-1,0
549,5.159,0,-1,0
550,5.169,0,-1,0
551,5.179,0,-1,0
552,5.189,-1,-1,0
553,5.199,0,-1,0
554,5.209,0,-1,0
555,5.219,-1,-1,0
556,5.229,0,-1,0
557,5.239,-1,-1,0
558,5.249,0,-1,0
559,5.259,0,-1,0
560,5.269,-1,-1,0
561,5.279,0,-1,0
562,5.289,-1,-1,0
563,5.299,-1,-1,0
564,5.309,0,-1,0
565,5.319,0,-1,0
566,5.329,0,-1,0
567,5.339,-1,-1,0
568,5.349,-1,-1,0
569,5.359,-1,-1,0
570,5.369,0,-1,0
571,5.379,0,-1,0
572,5.389,-1,-1,0
573,5.399,-1,-1,0
574,5.409,-1,-1,0
575,5.419,0,-1,0
576,5.429,-1,-1,0
577,5.439,0,-1,0
578,5.449,0,-1,0
579,5.459,-1,-1,0
580,5.469,-1,-1,0
581,5.479,-1,-1,0
582,5.489,-1,-1,0
583,5.499,0,-1,0
584,5.509,0,-1,0
585,5.519,0,-1,0
586,5.529,-1,-1,0
587,5.539,-1,-1,0
588,5.549,-1,-1,0
589,5.559,0,-1,0
590,5.569,-1,-1,0
591,5.579,-1,-1,0
592,5.589,0,-1,0
593,5.599,-1,-1,0
594,5.609,-1,-1,0
595,5.619,0,-1,0
596,5.629,-1,-1,0
597,5.639,-1,-1,0
598,5.649,0,-1,0
599,5.659,0,0,0
600,5.669,-1,-1,0
601,5.679,-1,-1,0
602,5.689,0,-1,0
603,5.699,0,-1,0
604,5.709,0,-1,0
605,5.719,-1,-1,0
606,5.729,0,-1,0
607,5.739,0,-1,0
608,5.749,-1,-1,0
609,5.759,0,-1,0
610,5.769,0,-1,0
611,5.779,-1,-1,0
612,5.789,-1,-1,0
613,5.799,-1,-1,0
614,5.809,-1,-1,0
615,5.819,0,-1,0
616,5.829,-1,-1,0
617,5.839,0,-1,0
618,5.849,-1,-1,0
619,5.859,0,-1,0
620,5.869,-1,-1,0
621,5.879,-1,-1,0
622,5.889,-1,-1,0
623,5.899,-1,-1,0
624,5.909,0,-1,0
625,5.919,0,-1,0
626,5.929,-1,-1,0
627,5.939,-1,-1,0
628,5.949,-1,-1,0
629,5.959,-1,-1,0
630,5.969,0,-1,0
631,5.979,-1,-1,0
632,5.989,0,-1,0
633,5.999,-1,-1,0
634,6.009,0,-1,0
635,6.019,0,-1,0
636,6.029,0,-1,0
637,6.039,-1,-1,0
638,6.049,-1,-1,0
639,6.059,-1,-1,0
640,6.069,0,-1,0
641,6.079,0,-1,0
642,6.089,0,-1,0
643,6.099,-1,-1,0
644,6.109,-1,-1,0
645,6.119,-1,-1,0
646,6.129,0,-1,0
647,6.139,0,-1,0
648,6.149,-1,-1,0
649,6.159,0,-1,0
650,6.169,-1,-1,0
651,6.179,-1,-1,0
652,6.189,-1,-1,0
653,6.199,0,-1,0
654,6.209,0,-1,0
655,6.219,-1,-1,0
656,6.229,-1,-1,0
657,6.239,-1,-1,0
658,6.249,-1,-1,0
659,6.259,-1,-1,0
660,6.269,-1,-1,0
661,6.279,-1,-1,0
662,6.289,-1,-1,0
663,6.299,0,-1,0
664,6.309,0,-1,0
665,6.319,-1,-1,0
666,6.329,-1,-1,0
667,6.339,-1,-1,0
668,6.349,-1,-1,0
669,6.359,0,-1,0
670,6.369,-1,-1,0
671,6.379,0,-1,0
672,6.389,0,-1,0
673,6.399,-1,-1,0
674,6.409,0,-1,0
675,6.419,0,-1,0
676,6.429,-1,-1,0
677,6.439,-1,-1,0
678,6.449,-1,-1,0
679,6.459,0,-1,0
680,6.469,-1,-1,0
681,6.479,0,-1,0
682,6.489,-1,-1,0
683,6.499,-1,-1,0
684,6.509,0,-1,0
685,6.519,-1,-1,0
686,6.529,-1,-1,0
687,6.539,-1,-1,0
688,6.549,-1,-1,0
689,6.559,-1,-1,0
690,6.569,-1,-1,0
691,6.579,-1,-1,0
692,6.589,-1,-1,0
693,6.599,-1,-1,0
694,6.609,0,-1,0
695,6.619,-1,-1,0
696,6.629,-1,-1,0
697,6.639,-1,-1,0
698,6.649,-1,-1,0
699,6.659,0,-1,0
700,6.669,0,-1,0
701,6.679,-1,-1,0
702,6.689,0,-1,0
703,6.699,-1,-1,0
704,6.709,-1,-1,0
705,6.719,0,-1,0
706,6.729,0,-1,0
707,6.739,-1,-1,0
708,6.749,-1,-1,0
709,6.759,-1,-1,0
710,6.769,0,-1,0
711,6.779,-1,-1,0
712,6.789,-1,-1,0
713,6.799,-1,-1,0
714,6.809,0,-1,0
715,6.819,0,-1,0
716,6.829,-1,-1,0
717,6.839,-1,-1,0
718,6.849,-1,-1,0
719,6.859,-1,-1,0
720,6.869,-1,-1,0
721,6.879,0,-1,0
722,6.889,-1,-1,0
723,6.899,-1,-1,0
724,6.909,0,-1,0
725,6.919,0,-1,0
726,6.929,-1,-1,0
727,6.939,-1,-1,0
728,6.949,-1,-1,0
729,6.959,0,-1,0
730,6.969,-1,-1,0
731,6.979,-1,-1,0
732,6.989,-1,-1,0
733,6.999,-1,-1,0
734,7.009,-1,-1,0
735,7.019,0,-1,0
736,7.029,-1,-1,0
737,7.039,-1,-1,0
738,7.049,0,-1,0
739,7.059,-1,-1,0
740,7.069,-1,-1,0
741,7.079,-1,-1,0
742,7.089,-1,-1,0
743,7.099,-1,-1,0
744,7.109,-1,-1,0
745,7.119,-1,-1,0
746,7.129,-1,-1,0
747,7.139,0,-1,0
748,7.149,0,-1,0
749,7.159,-1,-1,0
750,7.169,-1,-1,0
751,7.179,-1,-1,0
752,7.189,-1,-1,0
753,7.199,-1,-1,0
754,7.209,-1,-1,0
755,7.219,-1,-1,0
756,7.229,-1,-1,0
757,7.239,0,-1,0
758,7.249,0,-1,0
759,7.259,0,-1,0
760,7.269,-1,-1,0
761,7.279,0,-1,0
762,7.289,0,-1,0
763,7.299,-1,-1,0
764,7.309,-1,-1,0
765,7.319,-1,-1,0
766,7.329,-1,-1,0
767,7.339,-1,-1,0
768,7.349,-1,-1,0
769,7.359,-1,-1,0
770,7.369,0,-1,0
771,7.379,-1,-1,0
772,7.389,0,-1,0
773,7.399,-1,-1,0
774,7.409,0,-1,0
775,7.419,0,-1,0
776,7.429,-1,-1,0
777,7.439,-1,-1,0
778,7.449,-1,-1,0
779,7.459,-1,-1,0
780,7.469,-1,-1,0
781,7.479,0,-1,0
782,7.489,0,-1,0
783,7.499,-1,-1,0
784,7.509,0,-1,0
785,7.519,-1,-1,0
786,7.529,-1,-1,0
787,7.539,-1,-1,0
788,7.549,-1,-1,0
789,7.559,-1,-1,0
790,7.569,-1,-1,0
791,7.579,0,-1,0
792,7.589,0,-1,0
793,7.599,-1,-1,0
794,7.609,-1,-1,0
795,7.619,-1,-1,0
796,7.629,0,-1,0
797,7.639,-1,-1,0
798,7.649,0,-1,0
799,7.659,-1,-1,0
800,7.669,0,-1,0
801,7.679,-1,-1,0
802,7.689,0,-1,0
803,7.699,0,-1,0
804,7.709,-1,-1,0
805,7.719,-1,-1,0
806,7.729,0,-1,0
807,7.739,-1,-1,0
808,7.749,-1,-1,0
809,7.759,-1,-1,0
810,7.769,-1,-1,0
811,7.779,0,-1,0
812,7.789,-1,-1,0
813,7.799,-1,-1,0
814,7.809,-1,-1,0
815,7.819,-1,-1,0
816,7.829,-1,-1,0
817,7.839,0,-1,0
818,7.849,-1,-1,0
819,7.859,-1,-1,0
820,7.869,0,-1,0
821,7.879,-1,-1,0
822,7.889,-1,-1,0
823,7.899,-1,-1,0
824,7.909,-1,-1,0
825,7.919,-1,-1,0
826,7.929,-1,-1,0
827,7.939,-1,-1,0
828,7.949,0,-1,0
829,7.959,0,-1,0
830,7.969,-1,-1,0
831,7.979,-1,-1,0
832,7.989,0,-1,0
833,7.999,0,-1,0
834,8.009,0,-1,0
835,8.019,-3,-1,0
836,8.029,-46,-2,0
837,8.039,-16,-2,0
838,8.049,0,-1,0
839,8.059,0,-1,0
840,8.069,0,-1,0
841,8.079,0,-1,0
842,8.089,-1,-1,0
843,8.099,0,-1,0
844,8.109,0,-1,0
845,8.119,0,-1,0
846,8.129,1,-1,0
847,8.139,-1,-1,0
848,8.149,-1,-1,0
849,8.159,0,-1,0
850,8.169,0,-1,0
851,8.179,-1,-1,0
852,8.189,0,-1,0
853,8.199,0,-1,0
854,8.209,-1,-1,0
855,8.219,0,-1,0
856,8.229,0,-1,0
857,8.239,0,-1,0
858,8.249,0,-1,0
859,8.259,0,-1,0
860,8.269,0,-1,0
861,8.279,0,-1,0
862,8.289,0,-1,0
863,8.299,-1,-1,0
864,8.309,0,-1,0
865,8.319,0,-1,0
866,8.329,0,-1,0
867,8.339,0,-1,0
868,8.349,0,-1,0
869,8.359,0,-1,0
870,8.369,0,-1,0
871,8.379,0,-1,0
872,8.389,0,-3,0
873,8.399,-1,-1,0
874,8.409,-1,-1,0
875,8.419,-1,-1,0
876,8.429,0,-1,0
877,8.439,-1,-1,0
878,8.449,-1,-1,0
879,8.459,8,-6,0
880,8.469,14,-9,0
881,8.479,22,-8,0
882,8.489,22,-2,0
883,8.499,12,-3,0
884,8.509,3,-1,0
885,8.519,-2,-1,0
886,8.529,-5,-1,0
887,8.539,-2,-1,0
888,8.549,-1,-1,0
889,8.559,-1,-1,0
890,8.569,0,-1,0
891,8.579,-1,-1,0
892,8.589,-1,-1,0
893,8.599,-1,-1,0
894,8.609,-1,-1,0
895,8.619,-1,-1,0
896,8.629,-1,-1,0
897,8.639,-1,-1,0
898,8.649,-1,-1,0
899,8.659,-1,-1,0
900,8.669,-1,-1,0
901,8.679,-1,-1,0
902,8.689,-1,-1,0
903,8.699,-1,-1,0
904,8.709,-1,-1,0
905,8.719,-1,-1,0
906,8.729,-1,-1,0
907,8.739,-1,-1,0
908,8.749,-1,-1,0
909,8.759,-1,-1,0
910,8.769,-1,-1,0
911,8.779,-1,-1,0
912,8.789,-1,-1,0
913,8.799,-1,-1,0
914,8.809,-1,-1,0
915,8.819,-1,-1,0
916,8.829,-1,-1,0
917,8.839,-1,-1,0
918,8.849,-1,-1,0
919,8.859,-1,-1,0
920,8.869,-1,-1,0
921,8.879,0,-1,0
922,8.889,-1,-1,0
923,8.899,0,-1,0
924,8.909,-1,-1,0
925,8.919,-1,-1,0
926,8.929,0,-1,0
927,8.939,-1,-1,0
928,8.949,0,0,0
929,8.959,-1,0,0
930,8.969,-1,-1,0
931,8.979,-1,-1,0
932,8.989,-1,-1,0
933,8.999,-1,0,0
934,9.009,0,0,0
935,9.019,-1,-1,0
936,9.029,-1,-1,0
937,9.039,0,-1,0
938,9.049,-1,-1,0
939,9.059,-1,-1,0
940,9.069,-1,-1,0
941,9.079,-1,-1,0
942,9.089,-1,-1,0
943,9.099,-1,-2,0
944,9.109,-1,-2,0
945,9.119,-1,-2,0
946,9.129,-1,-1,0
947,9.139,-1,-1,0
948,9.149,-1,-2,0
949,9.159,-1,-2,0
950,9.169,-1,-2,0
951,9.179,-1,-2,0
952,9.189,-1,-2,0
953,9.199,-1,-1,0
954,9.209,-1,-1,0
955,9.219,0,-1,0
956,9.229,-1,-1,0
957,9.239,-1,-1,0
958,9.249,-1,-1,0
959,9.259,0,-1,0
960,9.269,0,-1,0
961,9.279,-1,-1,0
962,9.289,-1,-1,0
963,9.299,-1,-1,0
964,9.309,0,-1,0
965,9.319,-1,-1,0
966,9.329,-1,-1,0
967,9.339,0,-1,0
968,9.349,0,-1,0
969,9.359,0,-1,0
970,9.369,0,-1,0
971,9.379,0,-1,0
972,9.389,0,-1,0
973,9.399,0,-1,0
974,9.409,0,0,0
975,9.419,0,0,0
976,9.429,0,0,0
977,9.439,0,0,0
978,9.449,0,0,0
979,9.459,0,0,0
980,9.469,0,0,0
981,9.479,0,0,0
982,9.489,0,0,0
983,9.499,0,0,0
984,9.509,0,0,0
985,9.519,0,0,0
986,9.529,0,0,0
987,9.539,0,0,0
988,9.549,0,0,0
989,9.559,0,0,0
990,9.569,0,0,0
991,9.579,0,0,0
992,9.589,1,0,0
993,9.599,0,0,0
994,9.609,1,0,0
995,9.619,1,-1,0
996,9.629,1,0,0
997,9.639,1,-1,0
998,9.649,1,0,0
999,9.659,1,0,0
1000,9.669,1,-1,0
1001,9.679,1,0,0
1002,9.689,1,-1,0
1003,9.699,1,0,0
1004,9.709,1,0,0
1005,9.719,0,0,0
1006,9.729,0,0,0
1007,9.739,1,0,0
1008,9.749,1,0,0
1009,9.759,0,-1,0
1010,9.769,0,0,0
1011,9.779,0,0,0
1012,9.789,0,0,0
1013,9.799,0,-1,0
1014,9.809,0,-1,0
1015,9.819,0,-1,0
1016,9.829,0,-1,0
1017,9.839,0,-1,0
1018,9.849,0,-1,0
1019,9.859,0,-1,0
1020,9.869,0,-1,0
1021,9.879,0,-1,0
1022,9.889,0,-1,0
1023,9.899,0,-2,0
1024,9.909,0,-1,0
1025,9.919,0,-2,0
1026,9.929,0,-2,0
1027,9.939,0,-2,0
1028,9.949,0,-2,0
1029,9.959,0,-2,0
1030,9.969,0,-2,0
1031,9.979,0,-2,0
1032,9.989,0,-2,0
1033,9.999,0,-2,0
1034,10.009,0,-2,0
1035,10.019,0,-2,0
1036,10.029,0,-2,0
1037,10.039,-1,-2,0
1038,10.049,-1,-2,0
1039,10.059,-1,-1,0
1040,10.069,0,-2,0
1041,10.079,0,-2,0
1042,10.089,0,-2,0
1043,10.099,0,-1,0
1044,10.109,0,-1,0
1045,10.119,0,-1,0
1046,10.129,-1,-1,0
1047,10.139,-1,-1,0
1048,10.149,-1,-1,0
1049,10.159,-1,-1,0
1050,10.169,-1,-1,0
1051,10.179,-1,-1,0
1052,10.189,-1,-1,0
1053,10.199,-1,-1,0
1054,10.209,-1,-1,0
1055,10.219,-1,-2,0
1056,10.229,-1,-1,0
1057,10.239,-1,-2,0
1058,10.249,-1,-2,0
1059,10.259,-1,-2,0
1060,10.269,-1,-2,0
1061,10.279,-1,-2,0
1062,10.289,-1,-2,0
1063,10.299,-1,-2,0
1064,10.309,-1,-2,0
1065,10.319,-1,-2,0
1066,10.329,-1,-2,0
1067,10.339,-1,-2,0
1068,10.349,-1,-2,0
1069,10.359,-1,-2,0
1070,10.369,-1,-2,0
1071,10.379,-1,-2,0
1072,10.389,-1,-2,0
1073,10.399,-1,-2,0
1074,10.409,-1,-2,0
1075,10.419,-1,-2,0
1076,10.429,-1,-2,0
1077,10.439,-1,-2,0
1078,10.449,-1,-2,0
1079,10.459,-1,-2,0
1080,10.469,-1,-2,0
1081,10.479,-1,-2,0
1082,10.489,-1,-2,0
1083,10.499,-1,-2,0
1084,10.509,-1,-2,0
1085,10.519,-1,-2,0
1086,10.529,-1,-2,0
1087,10.539,0,-1,0
1088,10.549,-1,-1,0
1089,10.559,-1,-1,0
1090,10.569,-1,-1,0
1091,10.579,0,-2,0
1092,10.589,0,-2,0
1093,10.599,-1,-1,0
1094,10.609,0,-2,0
1095,10.619,0,-1,0
1096,10.629,0,-1,0
1097,10.639,0,-1,0
1098,10.649,0,-1,0
1099,10.659,0,-1,0
1100,10.669,0,-2,0
1101,10.679,0,-1,0
1102,10.689,0,-2,0
1103,10.699,0,-2,0
1104,10.709,0,-1,0
1105,10.719,0,-2,0
1106,10.729,0,-2,0
1107,10.739,0,-2,0
1108,10.749,0,-1,0
1109,10.759,0,-2,0
1110,10.769,0,-1,0
1111,10.779,0,-1,0
1112,10.789,0,-2,0
1113,10.799,0,-1,0
1114,10.809,0,-1,0
1115,10.819,0,-1,0
1116,10.829,0,-1,0
1117,10.839,0,-1,0
1118,10.849,0,-1,0
1119,10.859,0,-1,0
1120,10.869,0,-1,0
1121,10.879,0,-1,0
1122,10.889,1,-1,0
1123,10.899,1,-1,0
1124,10.909,1,-1,0
1125,10.919,0,-1,0
1126,10.929,0,-1,0
1127,10.939,1,-1,0
1128,10.949,0,-1,0
1129,10.959,0,-1,0
1130,10.969,0,-1,0
1131,10.979,0,-1,0
1132,10.989,0,-1,0
1133,10.999,0,-1,0
1134,11.009,0,-1,0
1135,11.019,0,-1,0
1136,11.029,0,-1,0
1137,11.039,0,-1,0
1138,11.049,0,-1,0
1139,11.059,0,-1,0
1140,11.069,0,-1,0
1141,11.079,1,-1,0
1142,11.089,0,-1,0
1143,11.099,0,-1,0
1144,11.109,0,-1,0
1145,11.119,0,-1,0
1146,11.129,0,-1,0
1147,11.139,0,-1,0
1148,11.149,0,-1,0
1149,11.159,0,-1,0
1150,11.169,0,-1,0
1151,11.179,0,-1,0
1152,11.189,0,-1,0
1153,11.199,0,-1,0
1154,11.209,0,-1,0
1155,11.219,-1,-1,0
1156,11.229,0,-1,0
1157,11.239,0,-1,0
1158,11.249,0,-1,0
1159,11.259,0,-1,0
1160,11.269,0,-1,0
1161,11.279,0,-1,0
1162,11.289,0,-1,0
1163,11.299,0,-1,0
1164,11.309,-1,-1,0
1165,11.319,0,-1,0
1166,11.329,0,-1,0
1167,11.339,0,0,0
1168,11.349,-1,0,0
1169,11.359,-1,0,0
1170,11.369,-1,0,0
1171,11.379,-1,0,0
1172,11.389,-1,0,0
1173,11.399,-1,0,0
1174,11.409,-1,0,0
1175,11.419,-1,0,0
1176,11.429,-1,-1,0
1177,11.439,-1,0,0
1178,11.449,-1,0,0
1179,11.459,-1,0,0
1180,11.469,-1,-1,0
1181,11.479,0,-1,0
1182,11.489,-1,-1,0
1183,11.499,-1,-1,0
1184,11.509,0,-1,0
1185,11.519,0,-2,0
1186,11.529,-1,-2,0
1187,11.539,-1,-2,0
1188,11.549,0,-2,0
1189,11.559,-1,-2,0
1190,11.569,-1,-2,0
1191,11.579,0,-3,0
1192,11.589,0,-3,0
1193,11.599,0,-3,0
1194,11.609,0,-3,0
1195,11.619,0,-3,0
1196,11.629,0,-2,0
1197,11.639,0,-3,0
1198,11.649,0,-3,0
1199,11.659,0,-2,0
1200,11.669,0,-2,0
1201,11.679,-1,-2,0
1202,11.689,0,-2,0
1203,11.699,0,-2,0
1204,11.709,0,-2,0
1205,11.719,-1,-2,0
1206,11.729,0,-2,0
1207,11.739,0,-1,0
1208,11.749,0,-2,0
1209,11.759,0,-1,0
1210,11.769,0,-1,0
1211,11.779,0,-1,0
1212,11.789,0,-1,0
1213,11.799,-1,-1,0
1214,11.809,0,-1,0
1215,11.819,-1,-1,0
1216,11.829,-1,0,0
1217,11.839,-1,0,0
1218,11.849,-1,0,0
1219,11.859,0,0,0
1220,11.869,0,0,0
1221,11.879,0,0,0
1222,11.889,0,0,0
1223,11.899,-1,0,0
1224,11.909,0,0,0
1225,11.919,0,0,0
1226,11.929,0,0,0
1227,11.939,0,0,0
1228,11.949,0,0,0
1229,11.959,0,0,0
1230,11.969,0,0,0
1231,11.979,0,0,0
1232,11.989,0,0,0
1233,11.999,0,0,0
1234,12.009,0,0,0
1235,12.019,0,0,0
1236,12.029,0,0,0
1237,12.039,0,0,0
1238,12.049,0,0,0
1239,12.059,0,0,0
1240,12.069,0,-1,0
1241,12.079,0,-1,0
1242,12.089,0,0,0
1243,12.099,0,0,0
1244,12.109,1,-1,0
1245,12.119,0,-1,0
1246,12.129,1,-1,0
1247,12.139,1,-1,0
1248,12.149,1,-1,0
1249,12.159,1,-1,0
1250,12.169,1,-1,0
1251,12.179,1,-1,0
1252,12.189,1,-1,0
1253,12.199,1,-1,0
1254,12.209,1,-1,0
1255,12.219,1,-1,0
1256,12.229,1,-1,0
1257,12.239,1,-1,0
1258,12.249,0,-1,0
1259,12.259,0,-1,0
1260,12.269,0,-1,0
1261,12.279,0,-1,0
1262,12.289,0,-2,0
1263,12.299,0,-2,0
1264,12.309,0,-2,0
1265,12.319,0,-2,0
1266,12.329,1,-2,0
1267,12.339,0,-1,0
1268,12.349,0,-2,0
1269,12.359,0,-2,0
1270,12.369,0,-2,0
1271,12.379,0,-2,0
1272,12.389,0,-2,0
1273,12.399,0,-2,0
1274,12.409,0,-2,0
1275,12.419,0,-2,0
1276,12.429,0,-2,0
1277,12.439,0,-2,0
1278,12.449,0,-2,0
1279,12.459,0,-2,0
1280,12.469,0,-3,0
1281,12.479,0,-3,0
1282,12.489,0,-3,0
1283,12.499,0,-3,0
1284,12.509,0,-3,0
1285,12.519,0,-3,0
1286,12.529,0,-3,0
1287,12.539,0,-3,0
1288,12.549,0,-3,0
1289,12.559,0,-3,0
1290,12.569,0,-3,0
1291,12.579,0,-3,0
1292,12.589,0,-3,0
1293,12.599,0,-2,0
1294,12.609,-1,-3,0
1295,12.619,0,-3,0
1296,12.629,0,-2,0
1297,12.639,0,-2,0
1298,12.649,-1,-2,0
1299,12.659,0,-2,0
1300,12.669,-1,-2,0
1301,12.679,0,-2,0
1302,12.689,0,-3,0
1303,12.699,0,-2,0
1304,12.709,0,-2,0
1305,12.719,0,-2,0
1306,12.729,-1,-2,0
1307,12.739,0,-2,0
1308,12.749,0,-2,0
1309,12.759,0,-2,0
1310,12.769,0,-2,0
1311,12.779,0,-2,0
1312,12.789,0,-2,0
1313,12.799,0,-2,0
1314,12.809,0,-1,0
1315,12.819,0,-2,0
1316,12.829,0,-2,0
1317,12.839,0,-2,0
1318,12.849,0,-2,0
1319,12.859,0,-2,0
1320,12.869,0,-2,0
1321,12.879,0,-2,0
1322,12.889,0,-1,0
1323,12.899,0,-1,0
1324,12.909,0,-1,0
1325,12.919,0,-1,0
1326,12.929,0,-1,0
1327,12.939,0,-1,0
1328,12.949,0,-1,0
1329,12.959,0,-1,0
1330,12.969,0,-1,0
1331,12.979,0,0,0
1332,12.989,0,0,0
1333,12.999,0,0,0
1334,13.009,0,-1,0
1335,13.019,0,0,0
1336,13.029,0,0,0
1337,13.039,0,0,0
1338,13.049,0,0,0
1339,13.059,0,0,0
1340,13.069,1,0,0
1341,13.079,0,0,0
1342,13.089,0,0,0
1343,13.099,0,0,0
1344,13.109,0,0,0
1345,13.119,0,0,0
1346,13.129,0,0,0
1347,13.139,1,0,0
1348,13.149,0,0,0
1349,13.159,0,0,0
1350,13.169,1,0,0
1351,13.179,0,0,0
1352,13.189,1,0,0
1353,13.199,1,0,0
1354,13.209,0,0,0
1355,13.219,0,0,0
1356,13.229,1,0,0
1357,13.239,0,0,0
1358,13.249,0,0,0
1359,13.259,0,0,0
1360,13.269,1,0,0
1361,13.279,1,-1,0
1362,13.289,0,-1,0
1363,13.299,0,-1,0
1364,13.309,0,-1,0
1365,13.319,0,-1,0
1366,13.329,0,-1,0
1367,13.339,1,-1,0
1368,13.349,0,-1,0
1369,13.359,0,-1,0
1370,13.369,0,-1,0
1371,13.379,0,-1,0
1372,13.389,1,-2,0
1373,13.399,0,-2,0
1374,13.409,0,-2,0
1375,13.419,0,-2,0
1376,13.429,1,-2,0
1377,13.439,0,-2,0
1378,13.449,0,-2,0
1379,13.459,0,-2,0
1380,13.469,0,-2,0
1381,13.479,0,-2,0
1382,13.489,0,-2,0
1383,13.499,0,-2,0
1384,13.509,0,-3,0
1385,13.519,0,-3,0
1386,13.529,0,-3,0
1387,13.539,0,-2,0
1388,13.549,0,-2,0
1389,13.559,0,-3,0
1390,13.569,0,-2,0
1391,13.579,0,-3,0
1392,13.589,0,-3,0
1393,13.599,0,-3,0
1394,13.609,0,-3,0
1395,13.619,0,-3,0
1396,13.629,1,-2,0
1397,13.639,0,-2,0
1398,13.649,1,-2,0
1399,13.659,0,-2,0
1400,13.669,0,-2,0
1401,13.679,0,-2,0
1402,13.689,0,-2,0
1403,13.699,0,-2,0
1404,13.709,0,-2,0
1405,13.719,0,-2,0
1406,13.729,0,-2,0
1407,13.739,0,-2,0
1408,13.749,0,-2,0
1409,13.759,0,-2,0
1410,13.769,0,-1,0
1411,13.779,0,-1,0
1412,13.789,0,-1,0
1413,13.799,0,-1,0
1414,13.809,0,-1,0
1415,13.819,0,-1,0
1416,13.829,0,-1,0
1417,13.839,0,-1,0
1418,13.849,0,-1,0
1419,13.859,0,-1,0
1420,13.869,0,-1,0
1421,13.879,0,-1,0
1422,13.889,0,-1,0
1423,13.899,0,-1,0
1424,13.909,0,-1,0
1425,13.919,0,-1,0
1426,13.929,0,-1,0
1427,13.939,0,-1,0
1428,13.949,0,-1,0
1429,13.959,0,-1,0
1430,13.969,0,-1,0
1431,13.979,0,-1,0
1432,13.989,0,-1,0
1433,13.999,0,-1,0
1434,14.009,0,-2,0
1435,14.019,0,-2,0
1436,14.029,0,-2,0
1437,14.039,0,-2,0
1438,14.049,0,-2,0
1439,14.059,0,-1,0
1440,14.069,0,-1,0
1441,14.079,0,-1,0
1442,14.089,0,-2,0
1443,14.099,0,-2,0
1444,14.109,0,-2,0
1445,14.119,0,-2,0
1446,14.129,0,-2,0
1447,14.139,0,-2,0
1448,14.149,0,-2,0
1449,14.159,0,-1,0
1450,14.169,0,-2,0
1451,14.179,0,-2,0
1452,14.189,1,-2,0
1453,14.199,0,-2,0
1454,14.209,0,-2,0
1455,14.219,0,-2,0
1456,14.229,0,-2,0
1457,14.239,0,-2,0
1458,14.249,0,-2,0
1459,14.259,0,-2,0
1460,14.269,0,-2,0
1461,14.279,0,-2,0
1462,14.289,0,-2,0
1463,14.299,0,-2,0
1464,14.309,0,-2,0
1465,14.319,0,-2,0
1466,14.329,0,-2,0
1467,14.339,0,-2,0
1468,14.349,0,-1,0
1469,14.359,0,-2,0
1470,14.369,0,-2,0
1471,14.379,0,-2,0
1472,14.389,0,-1,0
1473,14.399,0,-1,0
1474,14.409,0,-1,0
1475,14.419,0,-1,0
1476,14.429,0,-1,0
1477,14.439,0,-1,0
1478,14.449,0,-1,0
1479,14.459,0,-1,0
1480,14.469,0,-1,0
1481,14.479,0,-1,0
1482,14.489,0,-1,0
1483,14.499,0,-1,0
1484,14.509,0,-1,0
1485,14.519,0,-1,0
1486,14.529,0,-1,0
1487,14.539,0,-1,0
1488,14.549,0,-1,0
1489,14.559,0,-1,0
1490,14.569,0,-1,0
1491,14.579,0,-1,0
1492,14.589,0,-1,0
1493,14.599,0,-1,0
1494,14.609,0,-1,0
1495,14.619,0,-1,0
1496,14.629,0,-1,0
1497,14.639,0,0,0
1498,14.649,0,-1,0
1499,14.659,0,-1,0
1500,14.669,0,0,0
1501,14.679,0,-1,0
1502,14.689,0,0,0
1503,14.699,0,0,0
1504,14.709,0,0,0
1505,14.719,0,-1,0
1506,14.729,0,0,0
1507,14.739,0,0,0
1508,14.749,0,-1,0
1509,14.759,0,-1,0
1510,14.769,0,-1,0
1511,14.779,0,-1,0
1512,14.789,0,-1,0
1513,14.799,0,-1,0
1514,14.809,0,-1,0
1515,14.819,0,-1,0
1516,14.829,0,-1,0
1517,14.839,0,-1,0
1518,14.849,0,-1,0
1519,14.859,0,-2,0
1520,14.869,-1,-1,0
1521,14.879,-1,-2,0
1522,14.889,0,-2,0
1523,14.899,0,-2,0
1524,14.909,0,-2,0
1525,14.919,-1,-1,0
1526,14.929,-1,-2,0
1527,14.939,-1,-2,0
1528,14.949,-1,-2,0
1529,14.959,0,-2,0
1530,14.969,-1,-2,0
1531,14.979,-1,-2,0
1532,14.989,0,-2,0
1533,14.999,-1,-2,0
1534,15.009,-1,-2,0
1535,15.019,-1,-2,0
1536,15.029,-1,-2,0
1537,15.039,-1,-2,0
1538,15.049,-1,-2,0
1539,15.059,-1,-2,0
1540,15.069,-1,-2,0
1541,15.079,-1,-2,0
1542,15.089,-1,-3,0
1543,15.099,-1,-2,0
1544,15.109,-1,-2,0
1545,15.119,-1,-2,0
1546,15.129,-1,-2,0
1547,15.139,-1,-2,0
1548,15.149,-1,-2,0
1549,15.159,-1,-2,0
1550,15.169,-1,-3,0
1551,15.179,-1,-3,0
1552,15.189,-1,-3,0
1553,15.199,-1,-3,0
1554,15.209,-1,-2,0
1555,15.219,-1,-2,0
1556,15.229,-1,-2,0
1557,15.239,-1,-2,0
1558,15.249,0,-2,0
1559,15.259,-1,-2,0
1560,15.269,-1,-2,0
1561,15.279,-1,-2,0
1562,15.289,-1,-2,0
1563,15.299,-1,-2,0
1564,15.309,-1,-1,0
1565,15.319,-1,-1,0
1566,15.329,-1,-2,0
1567,15.339,-1,-2,0
1568,15.349,-1,-2,0
1569,15.359,-1,-2,0
1570,15.369,-1,-3,0
1571,15.379,-1,-2,0
1572,15.389,-1,-2,0
1573,15.399,-1,-2,0
1574,15.409,-1,-3,0
1575,15.419,-1,-3,0
1576,15.429,-1,-2,0
1577,15.439,-1,-2,0
1578,15.449,-1,-2,0
1579,15.459,-1,-2,0
1580,15.469,-1,-2,0
1581,15.479,-1,-1,0
1582,15.489,-1,-1,0
1583,15.499,-1,-1,0
1584,15.509,-1,-1,0
1585,15.519,-1,-1,0
1586,15.529,-1,-1,0
1587,15.539,-1,-1,0
1588,15.549,-1,-2,0
1589,15.559,-1,-1,0
1590,15.569,-1,-1,0
1591,15.579,-1,-1,0
1592,15.589,-1,-1,0
1593,15.599,-1,-1,0
1594,15.609,-1,-1,0
1595,15.619,-1,-1,0
1596,15.629,-1,-1,0
1597,15.639,-1,-1,0
1598,15.649,-1,-1,0
1599,15.659,-1,-1,0
1600,15.669,-1,-1,0
1601,15.679,-1,-1,0
1602,15.689,-1,-1,0
1603,15.699,-1,-1,0
1604,15.709,-1,-1,0
1605,15.719,-1,-1,0
1606,15.729,-1,-1,0
1607,15.739,-1,-1,0
1608,15.749,0,-1,0
1609,15.759,-1,-1,0
1610,15.769,-1,-1,0
1611,15.779,0,-1,0
1612,15.789,-1,-1,0
1613,15.799,0,-1,0
1614,15.809,0,-1,0
1615,15.819,0,-1,0
1616,15.829,0,-1,0
1617,15.839,0,-1,0
1618,15.849,0,-1,0
1619,15.859,0,-1,0
1620,15.869,0,-1,0
1621,15.879,0,-1,0
1622,15.889,0,-1,0
1623,15.899,0,-1,0
1624,15.909,0,-1,0
1625,15.919,0,-1,0
1626,15.929,0,-1,0
1627,15.939,0,-1,0
1628,15.949,0,-1,0
1629,15.959,0,-1,0
1630,15.969,0,-1,0
1631,15.979,0,-1,0
1632,15.989,0,-1,0
1633,15.999,0,-1,0
1634,16.009,0,-1,0
1635,16.019,0,-1,0
1636,16.029,0,-1,0
1637,16.039,0,-1,0
1638,16.049,0,-1,0
1639,16.059,0,0,0
1640,16.069,0,0,0
1641,16.079,0,0,0
1642,16.089,0,0,0
1643,16.099,0,0,0
1644,16.109,0,0,0
1645,16.119,0,0,0
1646,16.129,0,0,0
1647,16.139,0,0,0
1648,16.149,1,0,0
1649,16.159,0,0,0
1650,16.169,0,0,0
1651,16.179,1,0,0
1652,16.189,1,0,0
1653,16.199,0,1,0
1654,16.209,1,1,0
1655,16.219,1,1,0
1656,16.229,0,1,0
1657,16.239,1,0,0
1658,16.249,1,1,0
1659,16.259,1,1,0
1660,16.269,0,0,0
1661,16.279,1,0,0
1662,16.289,1,0,0
1663,16.299,0,0,0
1664,16.309,1,0,0
1665,16.319,0,0,0
1666,16.329,0,0,0
1667,16.339,1,0,0
1668,16.349,0,0,0
1669,16.359,1,0,0
1670,16.369,0,0,0
1671,16.379,1,-1,0
1672,16.389,1,-1,0
1673,16.399,0,-1,0
1674,16.409,1,-1,0
1675,16.419,0,-1,0
1676,16.429,1,-1,0
1677,16.439,1,-1,0
1678,16.449,1,-1,0
1679,16.459,1,-1,0
1680,16.469,1,-1,0
1681,16.479,1,-1,0
1682,16.489,1,-2,0
1683,16.499,1,-2,0
1684,16.509,1,-2,0
1685,16.519,1,-2,0
1686,16.529,1,-2,0
1687,16.539,1,-2,0
1688,16.549,1,-2,0
1689,16.559,1,-1,0
1690,16.569,1,-2,0
1691,16.579,1,-1,0
1692,16.589,1,-1,0
1693,16.599,0,-2,0
1694,16.609,1,-1,0
1695,16.619,0,-1,0
1696,16.629,1,-1,0
1697,16.639,1,-1,0
1698,16.649,1,-1,0
1699,16.659,1,-1,0
1700,16.669,1,-1,0
1701,16.679,1,-1,0
1702,16.689,1,-1,0
1703,16.699,1,-1,0
1704,16.709,1,-1,0
1705,16.719,1,-1,0
1706,16.729,1,-1,0
1707,16.739,1,-1,0
1708,16.749,1,-1,0
1709,16.759,1,-1,0
1710,16.769,1,-1,0
1711,16.779,1,-1,0
1712,16.789,1,-1,0
1713,16.799,1,-1,0
1714,16.809,1,-1,0
1715,16.819,1,-1,0
1716,16.829,1,-1,0
1717,16.839,1,-1,0
1718,16.849,1,-1,0
1719,16.859,1,-1,0
1720,16.869,1,-1,0
1721,16.879,1,-1,0
1722,16.889,0,-1,0
1723,16.899,1,-2,0
1724,16.909,1,-2,0
1725,16.919,1,-2,0
1726,16.929,1,-2,0
1727,16.939,1,-2,0
1728,16.949,1,-2,0
1729,16.959,1,-2,0
1730,16.969,1,-1,0
1731,16.979,1,-2,0
1732,16.989,1,-2,0
1733,16.999,1,-2,0
1734,17.009,1,-1,0
1735,17.019,1,-2,0
1736,17.029,1,-2,0
1737,17.039,1,-2,0
1738,17.049,1,-2,0
1739,17.059,1,-2,0
1740,17.069,1,-2,0
1741,17.079,1,-2,0
1742,17.089,1,-1,0
1743,17.099,1,-2,0
1744,17.109,1,-2,0
1745,17.119,1,-1,0
1746,17.129,1,-1,0
1747,17.139,1,-1,0
1748,17.149,1,-1,0
1749,17.159,1,-1,0
1750,17.169,1,-1,0
1751,17.179,1,-1,0
1752,17.189,1,-1,0
1753,17.199,1,-1,0
1754,17.209,1,-1,0
1755,17.219,1,-1,0
1756,17.229,1,-1,0
1757,17.239,1,-2,0
1758,17.249,1,-1,0
1759,17.259,1,-1,0
1760,17.269,1,-1,0
1761,17.279,0,-1,0
1762,17.289,1,-2,0
1763,17.299,1,-1,0
1764,17.309,0,-1,0
1765,17.319,1,-1,0
1766,17.329,1,-1,0
1767,17.339,1,-1,0
1768,17.349,1,-1,0
1769,17.359,1,-1,0
1770,17.369,1,-1,0
1771,17.379,1,-1,0
1772,17.389,1,-1,0
1773,17.399,0,-1,0
1774,17.409,1,-1,0
1775,17.419,1,-2,0
1776,17.429,1,-2,0
1777,17.439,1,-2,0
1778,17.449,1,-2,0
1779,17.459,1,-2,0
1780,17.469,1,-2,0
1781,17.479,0,-2,0
1782,17.489,1,-2,0
1783,17.499,1,-2,0
1784,17.509,1,-2,0
1785,17.519,1,-2,0
1786,17.529,0,-2,0
1787,17.539,1,-2,0
1788,17.549,1,-2,0
1789,17.559,0,-2,0
1790,17.569,0,-2,0
1791,17.579,0,-2,0
1792,17.589,1,-2,0
1793,17.599,0,-2,0
1794,17.609,0,-1,0
1795,17.619,1,-1,0
1796,17.629,0,-1,0
1797,17.639,1,-2,0
1798,17.649,0,-1,0
1799,17.659,1,-1,0
1800,17.669,1,-1,0
1801,17.679,0,-1,0
1802,17.689,1,-1,0
1803,17.699,1,-1,0
1804,17.709,1,-1,0
1805,17.719,1,-1,0
1806,17.729,1,-1,0
1807,17.739,1,-1,0
1808,17.749,1,-1,0
1809,17.759,1,-1,0
1810,17.769,0,-1,0
1811,17.779,0,-1,0
1812,17.789,1,-1,0
1813,17.799,1,-1,0
1814,17.809,1,-1,0
1815,17.819,1,0,0
1816,17.829,1,-1,0
1817,17.839,1,-1,0
1818,17.849,1,-1,0
1819,17.859,1,0,0
1820,17.869,1,0,0
1821,17.879,1,0,0
1822,17.889,0,0,0
1823,17.899,0,0,0
1824,17.909,1,0,0
1825,17.919,1,0,0
1826,17.929,1,0,0
1827,17.939,0,0,0
1828,17.949,1,0,0
1829,17.959,1,0,0
1830,17.969,1,0,0
1831,17.979,1,-1,0
1832,17.989,1,-1,0
1833,17.999,1,0,0
1834,18.009,0,0,0
1835,18.019,0,0,0
1836,18.029,1,0,0
1837,18.039,1,0,0
1838,18.049,0,0,0
1839,18.059,1,0,0
1840,18.069,1,0,0
1841,18.079,1,-1,0
1842,18.089,1,-1,0
1843,18.099,1,-1,0
1844,18.109,1,-1,0
1845,18.119,1,-1,0
1846,18.129,1,-1,0
1847,18.139,1,-1,0
1848,18.149,1,-1,0
1849,18.159,1,-1,0
1850,18.169,1,-1,0
1851,18.179,1,-1,0
1852,18.189,1,-1,0
1853,18.199,1,-1,0
1854,18.209,1,-1,0
1855,18.219,1,-1,0
1856,18.229,1,-1,0
1857,18.239,1,-1,0
1858,18.249,1,-1,0
1859,18.259,1,-1,0
1860,18.269,1,-1,0
1861,18.279,1,-1,0
1862,18.289,1,-1,0
1863,18.299,1,-1,0
1864,18.309,1,-1,0
1865,18.319,1,-1,0
1866,18.329,1,-1,0
1867,18.339,1,-1,0
1868,18.349,1,-1,0
1869,18.359,1,-1,0
1870,18.369,1,-1,0
1871,18.379,1,-1,0
1872,18.389,1,-1,0
1873,18.399,1,-1,0
1874,18.409,1,-1,0
1875,18.419,1,-1,0
1876,18.429,1,-1,0
1877,18.439,1,-1,0
1878,18.449,1,-1,0
1879,18.459,1,-1,0
1880,18.469,1,-1,0
1881,18.479,1,-1,0
1882,18.489,1,-1,0
1883,18.499,1,-1,0
1884,18.509,1,-1,0
1885,18.519,1,-1,0
1886,18.529,1,-1,0
1887,18.539,1,-1,0
1888,18.549,1,-1,0
1889,18.559,1,-1,0
1890,18.569,1,-1,0
1891,18.579,1,-1,0
1892,18.589,1,-1,0
1893,18.599,1,-1,0
1894,18.609,1,-1,0
1895,18.619,1,-1,0
1896,18.629,1,-1,0
1897,18.639,1,-1,0
1898,18.649,1,-1,0
1899,18.659,1,-1,0
1900,18.669,1,-1,0
1901,18.679,1,-1,0
1902,18.689,1,-2,0
1903,18.699,0,-2,0
1904,18.709,0,-2,0
1905,18.719,1,-2,0
1906,18.729,1,-2,0
1907,18.739,1,-2,0
1908,18.749,1,-2,0
1909,18.759,1,-2,0
1910,18.769,1,-2,0
1911,18.779,1,-2,0
1912,18.789,1,-2,0
1913,18.799,1,-2,0
1914,18.809,1,-2,0
1915,18.819,1,-2,0
1916,18.829,1,-2,0
1917,18.839,1,-2,0
1918,18.849,1,-2,0
1919,18.859,1,-2,0
1920,18.869,0,-2,0
1921,18.879,1,-2,0
1922,18.889,1,-2,0
1923,18.899,0,-2,0
1924,18.909,0,-2,0
1925,18.919,0,-2,0
1926,18.929,1,-2,0
1927,18.939,1,-2,0
1928,18.949,0,-2,0
1929,18.959,0,-2,0
1930,18.969,1,-2,0
1931,18.979,0,-2,0
1932,18.989,0,-2,0
1933,18.999,1,-2,0
1934,19.009,1,-2,0
1935,19.019,1,-2,0
1936,19.029,1,-2,0
1937,19.039,0,-2,0
1938,19.049,0,-2,0
1939,19.059,0,-2,0
1940,19.069,0,-2,0
1941,19.079,0,-2,0
1942,19.089,0,-2,0
1943,19.099,0,-2,0
1944,19.109,0,-2,0
1945,19.119,0,-2,0
1946,19.129,0,-2,0
1947,19.139,0,-2,0
1948,19.149,0,-2,0
1949,19.159,0,-2,0
1950,19.169,0,-2,0
1951,19.179,0,-2,0
1952,19.189,0,-2,0
1953,19.199,0,-2,0
1954,19.209,0,-2,0
1955,19.219,0,-2,0
1956,19.229,0,-2,0
1957,19.239,0,-2,0
1958,19.249,0,-2,0
1959,19.259,0,-2,0
1960,19.269,0,-2,0
1961,19.279,0,-2,0
1962,19.289,0,-1,0
1963,19.299,0,-1,0
1964,19.309,0,-1,0
1965,19.319,0,-1,0
1966,19.329,1,-1,0
1967,19.339,0,-1,0
1968,19.349,0,-1,0
1969,19.359,0,-1,0
1970,19.369,0,0,0
1971,19.379,0,-1,0
1972,19.389,1,-1,0
1973,19.399,1,-1,0
1974,19.409,0,0,0
1975,19.419,0,-1,0
1976,19.429,0,-1,0
1977,19.439,0,-1,0
1978,19.449,0,-1,0
1979,19.459,0,-1,0
1980,19.469,0,-1,0
1981,19.479,0,-1,0
1982,19.489,0,-1,0
1983,19.499,0,-1,0
1984,19.509,1,-1,0
1985,19.519,1,-1,0
1986,19.529,1,-1,0
1987,19.539,0,-1,0
1988,19.549,1,0,0
1989,19.559,0,0,0
1990,19.569,0,0,0
1991,19.579,0,0,0
1992,19.589,0,0,0
1993,19.599,0,0,0
1994,19.609,0,0,0
1995,19.619,0,-1,0
1996,19.629,0,-1,0
1997,19.639,0,-1,0
1998,19.649,0,-1,0
1999,19.659,1,-1,0
2000,19.669,0,-1,0
2001,19.679,0,0,0
2002,19.689,0,-1,0
2003,19.699,0,-1,0
2004,19.709,0,-1,0
2005,19.719,0,-1,0
2006,19.729,0,-1,0
2007,19.739,0,-1,0
2008,19.749,0,-1,0
2009,19.759,0,-1,0
2010,19.769,0,-1,0
2011,19.779,0,-1,0
2012,19.789,0,-1,0
2013,19.799,0,-2,0
2014,19.809,0,-2,0
2015,19.819,0,-2,0
2016,19.829,0,-2,0
2017,19.839,0,-2,0
2018,19.849,0,-2,0
2019,19.859,0,-2,0
2020,19.869,0,-2,0
2021,19.879,0,-2,0
2022,19.889,0,-2,0
2023,19.899,0,-2,0
2024,19.909,0,-1,0
2025,19.919,0,-1,0
2026,19.929,0,-1,0
2027,19.939,0,-1,0
2028,19.949,0,-1,0
2029,19.959,0,-1,0
2030,19.969,0,-1,0
2031,19.979,0,-1,0
2032,19.989,1,-1,0
2033,19.999,1,-1,0
2034,20.009,1,-1,0
2035,20.019,0,-1,0
2036,20.029,1,-1,0
2037,20.039,1,0,0
2038,20.049,0,-1,0
2039,20.059,1,0,0
2040,20.069,1,0,0
2041,20.079,1,0,0
2042,20.089,0,-1,0
2043,20.099,0,0,0
2044,20.109,0,0,0
2045,20.119,0,0,0
2046,20.129,0,0,0
2047,20.139,0,0,0
2048,20.149,1,0,0
2049,20.159,0,0,0
2050,20.169,1,0,0
2051,20.179,0,0,0
2052,20.189,1,0,0
2053,20.199,0,0,0
2054,20.209,0,0,0
2055,20.219,0,0,0
2056,20.229,0,0,0
2057,20.239,0,0,0
2058,20.249,0,0,0
2059,20.259,0,0,0
2060,20.269,0,0,0
2061,20.279,0,0,0
2062,20.289,0,0,0
2063,20.299,0,-1,0
2064,20.309,0,-1,0
2065,20.319,0,-1,0
2066,20.329,0,-1,0
2067,20.339,0,-1,0
2068,20.349,0,0,0
2069,20.359,0,0,0
2070,20.369,0,0,0
2071,20.379,0,0,0
2072,20.389,0,-1,0
2073,20.399,0,0,0
2074,20.409,0,-1,0
2075,20.419,0,-1,0
2076,20.429,0,0,0
2077,20.439,0,0,0
2078,20.449,0,-1,0
2079,20.459,0,-1,0
2080,20.469,0,-1,0
2081,20.479,0,-1,0
2082,20.489,0,-1,0
2083,20.499,0,-1,0
2084,20.509,0,-1,0
2085,20.519,0,-1,0
2086,20.529,0,-1,0
2087,20.539,0,-1,0
2088,20.549,0,-1,0
2089,20.559,0,-1,0
2090,20.569,0,-2,0
2091,20.579,0,-1,0
2092,20.589,0,-2,0
2093,20.599,0,-2,0
2094,20.609,0,-1,0
2095,20.619,0,-2,0
2096,20.629,0,-1,0
2097,20.639,0,-1,0
2098,20.649,0,-1,0
2099,20.659,0,-1,0
2100,20.669,0,0,0
2101,20.679,0,-1,0
2102,20.689,0,0,0
2103,20.699,0,0,0
2104,20.709,0,0,0
2105,20.719,0,0,0
2106,20.729,0,1,0
2107,20.739,0,0,0
2108,20.749,0,1,0
2109,20.759,0,1,0
2110,20.769,0,0,0
2111,20.779,0,0,0
2112,20.789,0,0,0
2113,20.799,0,1,0
2114,20.809,0,1,0
2115,20.819,0,1,0
2116,20.829,0,1,0
2117,20.839,0,1,0
2118,20.849,0,1,0
2119,20.859,0,1,0
2120,20.869,0,1,0
2121,20.879,0,1,0
2122,20.889,0,1,0
2123,20.899,0,1,0
2124,20.909,1,1,0
2125,20.919,0,1,0
2126,20.929,0,1,0
2127,20.939,0,1,0
2128,20.949,0,1,0
2129,20.959,0,1,0
2130,20.969,0,1,0
2131,20.979,0,1,0
2132,20.989,0,1,0
2133,20.999,0,1,0
2134,21.009,0,1,0
2135,21.019,0,1,0
2136,21.029,0,0,0
2137,21.039,0,1,0
2138,21.049,0,1,0
2139,21.059,0,1,0
2140,21.069,0,1,0
2141,21.079,0,1,0
2142,21.089,0,1,0
2143,21.099,0,1,0
2144,21.109,0,1,0
2145,21.119,0,1,0
2146,21.129,0,1,0
2147,21.139,0,1,0
2148,21.149,0,1,0
2149,21.159,0,1,0
2150,21.169,0,1,0
2151,21.179,0,0,0
2152,21.189,0,1,0
2153,21.199,0,1,0
2154,21.209,0,0,0
2155,21.219,0,1,0
2156,21.229,0,1,0
2157,21.239,0,0,0
2158,21.249,0,0,0
2159,21.259,0,0,0
2160,21.269,0,0,0
2161,21.279,0,0,0
2162,21.289,0,1,0
2163,21.299,0,0,0
2164,21.309,0,0,0
2165,21.319,0,0,0
2166,21.329,0,0,0
2167,21.339,0,0,0
2168,21.349,0,0,0
2169,21.359,0,0,0
2170,21.369,0,0,0
2171,21.379,0,0,0
2172,21.389,0,0,0
2173,21.399,0,0,0
2174,21.409,0,0,0
2175,21.419,0,-1,0
2176,21.429,0,0,0
2177,21.439,0,-1,0
2178,21.449,0,0,0
2179,21.459,0,-1,0
2180,21.469,0,-1,0
2181,21.479,0,-1,0
2182,21.489,0,-1,0
2183,21.499,0,-1,0
2184,21.509,0,-1,0
2185,21.519,0,-1,0
2186,21.529,0,-1,0
2187,21.539,0,-1,0
2188,21.549,0,-1,0
2189,21.559,0,-1,0
2190,21.569,0,-1,0
2191,21.579,0,-1,0
2192,21.589,0,-1,0
2193,21.599,0,-1,0
2194,21.609,0,-2,0
2195,21.619,0,-2,0
2196,21.629,0,-2,0
2197,21.639,0,-2,0
2198,21.649,0,-1,0
2199,21.659,0,-1,0
2200,21.669,0,-1,0
2201,21.679,0,-1,0
2202,21.689,0,-1,0
2203,21.699,0,-1,0
2204,21.709,0,-1,0
2205,21.719,0,-1,0
2206,21.729,0,-1,0
2207,21.739,0,-1,0
2208,21.749,0,-1,0
2209,21.759,0,-1,0
2210,21.769,0,0,0
2211,21.779,0,0,0
2212,21.789,0,0,0
2213,21.799,0,0,0
2214,21.809,0,0,0
2215,21.819,0,0,0
2216,21.829,0,0,0
2217,21.839,0,0,0
2218,21.849,0,0,0
2219,21.859,1,0,0
2220,21.869,0,1,0
2221,21.879,0,1,0
2222,21.889,0,0,0
2223,21.899,0,0,0
2224,21.909,0,0,0
2225,21.919,0,0,0
2226,21.929,0,0,0
2227,21.939,0,0,0
2228,21.949,0,0,0
2229,21.959,0,0,0
2230,21.969,0,0,0
2231,21.979,0,-1,0
2232,21.989,0,-1,0
2233,21.999,0,-1,0
2234,22.009,0,-1,0
2235,22.019,0,0,0
2236,22.029,0,-1,0
2237,22.039,0,-1,0
2238,22.049,0,-1,0
2239,22.059,0,-1,0
2240,22.069,0,-1,0
2241,22.079,0,-1,0
2242,22.089,0,-1,0
2243,22.099,0,-1,0
2244,22.109,0,-1,0
2245,22.119,0,-1,0
2246,22.129,0,-1,0
2247,22.139,0,-1,0
2248,22.149,0,-2,0
2249,22.159,0,-2,0
2250,22.169,0,-2,0
2251,22.179,0,-2,0
2252,22.189,0,-2,0
2253,22.199,0,-2,0
2254,22.209,0,-2,0
2255,22.219,0,-2,0
2256,22.229,0,-2,0
2257,22.239,0,-2,0
2258,22.249,0,-2,0
2259,22.259,0,-2,0
2260,22.269,0,-2,0
2261,22.279,0,-2,0
2262,22.289,0,-2,0
2263,22.299,0,-2,0
2264,22.309,0,-2,0
2265,22.319,0,-2,0
2266,22.329,0,-1,0
2267,22.339,0,-2,0
2268,22.349,0,-1,0
2269,22.359,0,-1,0
2270,22.369,0,-1,0
2271,22.379,0,-1,0
2272,22.389,0,-1,0
2273,22.399,0,-1,0
2274,22.409,0,-1,0
2275,22.419,0,-1,0
2276,22.429,0,-1,0
2277,22.439,0,-1,0
2278,22.449,0,-1,0
2279,22.459,0,-1,0
2280,22.469,0,-1,0
2281,22.479,0,-1,0
2282,22.489,0,-1,0
2283,22.499,0,-1,0
2284,22.509,0,-1,0
2285,22.519,0,-1,0
2286,22.529,0,0,0
2287,22.539,0,0,0
2288,22.549,0,0,0
2289,22.559,0,0,0
2290,22.569,0,0,0
2291,22.579,0,0,0
2292,22.589,0,0,0
2293,22.599,0,0,0
2294,22.609,0,0,0
2295,22.619,0,-1,0
2296,22.629,0,0,0
2297,22.639,0,-1,0
2298,22.649,1,-1,0
2299,22.659,0,-1,0
2300,22.669,0,0,0
2301,22.679,0,0,0
2302,22.689,0,0,0
2303,22.699,0,0,0
2304,22.709,0,0,0
2305,22.719,0,0,0
2306,22.729,0,-1,0
2307,22.739,0,-1,0
2308,22.749,1,-1,0
2309,22.759,0,-1,0
2310,22.769,0,-1,0
2311,22.779,0,-1,0
2312,22.789,0,-2,0
2313,22.799,0,-2,0
2314,22.809,0,-2,0
2315,22.819,0,-2,0
2316,22.829,0,-2,0
2317,22.839,0,-2,0
2318,22.849,0,-2,0
2319,22.859,0,-2,0
2320,22.869,0,-2,0
2321,22.879,0,-2,0
2322,22.889,0,-2,0
2323,22.899,0,-2,0
2324,22.909,0,-2,0
2325,22.919,0,-2,0
2326,22.929,0,-2,0
2327,22.939,0,-2,0
2328,22.949,0,-2,0
2329,22.959,0,-2,0
2330,22.969,0,-2,0
2331,22.979,0,-2,0
2332,22.989,0,-2,0
2333,22.999,0,-2,0
2334,23.009,0,-2,0
2335,23.019,0,-2,0
2336,23.029,0,-2,0
2337,23.039,0,-2,0
2338,23.049,0,-2,0
2339,23.059,0,-2,0
2340,23.069,0,-2,0
2341,23.079,0,-2,0
2342,23.089,0,-2,0
2343,23.099,0,-2,0
2344,23.109,0,-1,0
2345,23.119,0,-1,0
2346,23.129,0,-1,0
2347,23.139,0,-1,0
2348,23.149,0,-1,0
2349,23.159,0,-1,0
2350,23.169,0,-1,0
2351,23.179,0,-1,0
2352,23.189,0,-1,0
2353,23.199,0,-1,0
2354,23.209,0,-1,0
2355,23.219,0,-1,0
2356,23.229,0,-2,0
2357,23.239,0,-1,0
2358,23.249,0,-1,0
2359,23.259,1,-1,0
2360,23.269,0,-1,0
2361,23.279,0,-1,0
2362,23.289,0,-1,0
2363,23.299,0,-2,0
2364,23.309,0,-2,0
2365,23.319,0,-1,0
2366,23.329,0,-1,0
2367,23.339,0,-2,0
2368,23.349,0,-1,0
2369,23.359,0,-1,0
2370,23.369,0,-1,0
2371,23.379,0,-1,0
2372,23.389,0,-1,0
2373,23.399,0,-1,0
2374,23.409,0,-2,0
2375,23.419,0,-2,0
2376,23.429,0,-2,0
2377,23.439,0,-2,0
2378,23.449,0,-2,0
2379,23.459,0,-2,0
2380,23.469,0,-2,0
2381,23.479,0,-1,0
2382,23.489,0,-2,0
2383,23.499,0,-2,0
2384,23.509,0,-2,0
2385,23.519,0,-2,0
2386,23.529,0,-2,0
2387,23.539,0,-2,0
2388,23.549,0,-2,0
2389,23.559,0,-1,0
2390,23.569,0,-2,0
2391,23.579,0,-2,0
2392,23.589,0,-1,0
2393,23.599,0,-1,0
2394,23.609,0,-2,0
2395,23.619,0,-2,0
2396,23.629,0,-2,0
2397,23.639,0,-2,0
2398,23.649,0,-2,0
2399,23.659,0,-2,0
2400,23.669,0,-2,0
2401,23.679,0,-2,0
2402,23.689,0,-2,0
2403,23.699,0,-2,0
2404,23.709,0,-2,0
2405,23.719,0,-2,0
2406,23.729,0,-2,0
2407,23.739,0,-2,0
2408,23.749,0,-2,0
2409,23.759,0,-1,0
2410,23.769,0,-1,0
2411,23.779,0,-2,0
2412,23.789,0,-1,0
2413,23.799,0,-2,0
2414,23.809,-1,-2,0
2415,23.819,0,-2,0
2416,23.829,0,-1,0
2417,23.839,0,-1,0
2418,23.849,0,-2,0
2419,23.859,0,-1,0
2420,23.869,0,-1,0
2421,23.879,0,-2,0
2422,23.889,0,-2,0
2423,23.899,0,-2,0
2424,23.909,0,-2,0
2425,23.919,0,-2,0
2426,23.929,0,-1,0
2427,23.939,0,-1,0
2428,23.949,0,-2,0
2429,23.959,0,-1,0
2430,23.969,0,-2,0
2431,23.979,0,-1,0
2432,23.989,0,-1,0
2433,23.999,0,-1,0
2434,24.009,0,-1,0
2435,24.019,0,-1,0
2436,24.029,0,-2,0
2437,24.039,0,-2,0
2438,24.049,0,-2,0
2439,24.059,0,-2,0
2440,24.069,0,-2,0
2441,24.079,0,-1,0
2442,24.089,0,-2,0
2443,24.099,0,-2,0
2444,24.109,-1,-1,0
2445,24.119,-1,-1,0
2446,24.129,0,-1,0
2447,24.139,-1,-1,0
2448,24.149,0,-1,0
2449,24.159,0,-1,0
2450,24.169,-1,-1,0
2451,24.179,-1,-1,0
2452,24.189,-1,-1,0
2453,24.199,-1,-1,0
2454,24.209,-1,-1,0
2455,24.219,-1,-1,0
2456,24.229,-1,-1,0
2457,24.239,-1,-1,0
2458,24.249,-1,-1,0
2459,24.259,-1,-1,0
2460,24.269,-1,-1,0
2461,24.279,-1,-1,0
2462,24.289,-1,-1,0
2463,24.299,-1,-1,0
2464,24.309,-1,-1,0
2465,24.319,-1,-1,0
2466,24.329,-1,-1,0
2467,24.339,-1,-1,0
2468,24.349,-1,-1,0
2469,24.359,0,-1,0
2470,24.369,-1,-1,0
2471,24.379,0,-1,0
2472,24.389,0,-1,0
2473,24.399,0,-2,0
2474,24.409,0,-1,0
2475,24.419,0,-2,0
2476,24.429,-1,-2,0
2477,24.439,0,-2,0
2478,24.449,0,-2,0
2479,24.459,0,-1,0
2480,24.469,0,-1,0
2481,24.479,0,-2,0
2482,24.489,0,-2,0
2483,24.499,0,-2,0
2484,24.509,0,-1,0
2485,24.519,0,-1,0
2486,24.529,0,-1,0
2487,24.539,0,-1,0
2488,24.549,0,-1,0
2489,24.559,0,-1,0
2490,24.569,0,-1,0
2491,24.579,0,-1,0
2492,24.589,0,-1,0
2493,24.599,0,-1,0
2494,24.609,-1,-1,0
2495,24.619,-1,-1,0
2496,24.629,-1,-1,0
2497,24.639,-1,-1,0
2498,24.649,-1,-1,0
2499,24.659,-1,-1,0
2500,24.669,-1,-1,0
2501,24.679,-1,-1,0
2502,24.689,-1,-1,0
2503,24.699,-1,-1,0
2504,24.709,-1,-1,0
2505,24.719,-1,-1,0
2506,24.729,-1,-1,0
2507,24.739,-1,-1,0
2508,24.749,-1,-1,0
2509,24.759,-1,-1,0
2510,24.769,0,-1,0
2511,24.779,-1,-1,0
2512,24.789,-1,-1,0
2513,24.799,-1,-1,0
2514,24.809,-1,-1,0
2515,24.819,-1,-1,0
2516,24.829,-1,-1,0
2517,24.839,-1,-1,0
2518,24.849,-1,-1,0
2519,24.859,-1,-1,0
2520,24.869,-1,-1,0
2521,24.879,-1,-2,0
2522,24.889,-1,-2,0
2523,24.899,-1,-1,0
2524,24.909,-1,-2,0
2525,24.919,-1,-2,0
2526,24.929,-1,-2,0
2527,24.939,-1,-2,0
2528,24.949,-1,-2,0
2529,24.959,-1,-2,0
2530,24.969,-1,-2,0
2531,24.979,-1,-2,0
2532,24.989,-1,-2,0
2533,24.999,-1,-2,0
2534,25.009,-1,-2,0
2535,25.019,-1,-2,0
2536,25.029,-1,-2,0
2537,25.039,-1,-3,0
2538,25.049,-1,-3,0
2539,25.059,-1,-2,0
2540,25.069,-1,-2,0
2541,25.079,-1,-2,0
2542,25.089,-1,-2,0
2543,25.099,-1,-3,0
2544,25.109,-1,-3,0
2545,25.119,-1,-2,0
2546,25.129,-1,-3,0
2547,25.139,-1,-3,0
2548,25.149,-1,-3,0
2549,25.159,-1,-3,0
2550,25.169,-1,-3,0
2551,25.179,-1,-2,0
2552,25.189,-1,-3,0
2553,25.199,-1,-3,0
2554,25.209,-1,-3,0
2555,25.219,-1,-2,0
2556,25.229,-1,-3,0
2557,25.239,-1,-2,0
2558,25.249,-2,-2,0
2559,25.259,-1,-2,0
2560,25.269,-1,-2,0
2561,25.279,-1,-2,0
2562,25.289,-1,-2,0
2563,25.299,-1,-1,0
2564,25.309,-1,-1,0
2565,25.319,-1,-1,0
2566,25.329,-1,-1,0
2567,25.339,-1,-1,0
2568,25.349,-1,0,0
2569,25.359,-1,0,0
2570,25.369,-1,0,0
2571,25.379,-1,0,0
2572,25.389,-1,1,0
2573,25.399,-1,1,0
2574,25.409,-1,0,0
2575,25.419,-1,1,0
2576,25.429,-1,1,0
2577,25.439,-1,1,0
2578,25.449,-1,1,0
2579,25.459,-1,1,0
2580,25.469,-1,1,0
2581,25.479,-1,1,0
2582,25.489,-1,1,0
2583,25.499,-1,1,0
2584,25.509,-1,1,0
2585,25.519,0,1,0
2586,25.529,-1,1,0
2587,25.539,-1,1,0
2588,25.549,0,1,0
2589,25.559,0,1,0
2590,25.569,0,1,0
2591,25.579,0,1,0
2592,25.589,0,0,0
2593,25.599,0,0,0
2594,25.609,-1,0,0
2595,25.619,0,0,0
2596,25.629,0,0,0
2597,25.639,-1,0,0
2598,25.649,-1,0,0
2599,25.659,0,0,0
2600,25.669,-1,0,0
2601,25.679,-1,0,0
2602,25.689,0,0,0
2603,25.699,0,0,0
2604,25.709,0,0,0
2605,25.719,0,0,0
2606,25.729,0,-1,0
2607,25.739,0,0,0
2608,25.749,0,-1,0
2609,25.759,0,0,0
2610,25.769,0,0,0
2611,25.779,0,0,0
2612,25.789,-1,0,0
2613,25.799,-1,-1,0
2614,25.809,0,-1,0
2615,25.819,0,-1,0
2616,25.829,-1,-1,0
2617,25.839,-1,-1,0
2618,25.849,0,-1,0
2619,25.859,-1,-1,0
2620,25.869,-1,-1,0
2621,25.879,-1,-1,0
2622,25.889,-1,-1,0
2623,25.899,-1,-2,0
2624,25.909,-1,-1,0
2625,25.919,-1,-2,0
2626,25.929,-1,-2,0
2627,25.939,-1,-2,0
2628,25.949,-1,-2,0
2629,25.959,-1,-2,0
2630,25.969,-1,-2,0
2631,25.979,-1,-2,0
2632,25.989,-1,-2,0
2633,25.999,-1,-2,0
2634,26.009,-1,-2,0
2635,26.019,-1,-2,0
2636,26.029,-1,-3,0
2637,26.039,-1,-3,0
2638,26.049,-1,-3,0
2639,26.059,0,-3,0
2640,26.069,-1,-3,0
2641,26.079,-1,-3,0
2642,26.089,-1,-3,0
2643,26.099,-1,-3,0
2644,26.109,-1,-3,0
2645,26.119,-1,-3,0
2646,26.129,-1,-3,0
2647,26.139,-1,-3,0
2648,26.149,-1,-3,0
2649,26.159,-1,-3,0
2650,26.169,-1,-3,0
2651,26.179,-1,-3,0
2652,26.189,-1,-3,0
2653,26.199,-1,-3,0
2654,26.209,-1,-3,0
2655,26.219,-1,-3,0
2656,26.229,-1,-3,0
2657,26.239,-1,-2,0
2658,26.249,-1,-2,0
2659,26.259,-1,-2,0
2660,26.269,-1,-2,0
2661,26.279,-1,-3,0
2662,26.289,-1,-3,0
2663,26.299,-1,-3,0
2664,26.309,-1,-3,0
2665,26.319,-1,-3,0
2666,26.329,-1,-2,0
2667,26.339,-1,-2,0
2668,26.349,-1,-2,0
2669,26.359,-1,-2,0
2670,26.369,-1,-2,0
2671,26.379,-1,-2,0
2672,26.389,-1,-2,0
2673,26.399,-1,-2,0
2674,26.409,-1,-2,0
2675,26.419,-1,-1,0
2676,26.429,-1,-1,0
2677,26.439,-1,-1,0
2678,26.449,-1,-1,0
2679,26.459,-1,-1,0
2680,26.469,-1,-1,0
2681,26.479,-1,-1,0
2682,26.489,-1,-1,0
2683,26.499,-1,-1,0
2684,26.509,-1,-1,0
2685,26.519,-1,-1,0
2686,26.529,-1,-1,0
2687,26.539,-1,0,0
2688,26.549,-1,-1,0
2689,26.559,0,0,0
2690,26.569,0,0,0
2691,26.579,0,0,0
2692,26.589,0,0,0
2693,26.599,0,0,0
2694,26.609,0,0,0
2695,26.619,0,0,0
2696,26.629,0,0,0
2697,26.639,0,0,0
2698,26.649,0,0,0
2699,26.659,0,0,0
2700,26.669,0,0,0
2701,26.679,0,0,0
2702,26.689,0,1,0
2703,26.699,0,1,0
2704,26.709,0,1,0
2705,26.719,0,1,0
2706,26.729,0,1,0
2707,26.739,0,1,0
2708,26.749,0,1,0
2709,26.759,0,1,0
2710,26.769,0,1,0
2711,26.779,0,1,0
2712,26.789,0,1,0
2713,26.799,0,1,0
2714,26.809,0,1,0
2715,26.819,0,1,0
2716,26.829,0,1,0
2717,26.839,0,1,0
2718,26.849,0,1,0
2719,26.859,0,0,0
2720,26.869,0,0,0
2721,26.879,0,0,0
2722,26.889,0,1,0
2723,26.899,0,1,0
2724,26.909,0,1,0
2725,26.919,0,0,0
2726,26.929,0,0,0
2727,26.939,0,0,0
2728,26.949,0,0,0
2729,26.959,0,0,0
2730,26.969,0,0,0
2731,26.979,0,-1,0
2732,26.989,0,-1,0
2733,26.999,0,-1,0
2734,27.009,0,-1,0
2735,27.019,-1,-1,0
2736,27.029,0,-1,0
2737,27.039,0,-1,0
2738,27.049,-1,-1,0
2739,27.059,-1,-2,0
2740,27.069,0,-2,0
2741,27.079,-1,-2,0
2742,27.089,-1,-1,0
2743,27.099,-1,-2,0
2744,27.109,-1,-2,0
2745,27.119,0,-2,0
2746,27.129,-1,-2,0
2747,27.139,-1,-2,0
2748,27.149,-1,-2,0
2749,27.159,0,-2,0
2750,27.169,0,-2,0
2751,27.179,-1,-2,0
2752,27.189,-1,-2,0
2753,27.199,0,-2,0
2754,27.209,0,-2,0
2755,27.219,-1,-2,0
2756,27.229,-1,-2,0
2757,27.239,0,-2,0
2758,27.249,0,-3,0
2759,27.259,-1,-3,0
2760,27.269,-1,-3,0
2761,27.279,-1,-2,0
2762,27.289,-1,-2,0
2763,27.299,-1,-2,0
2764,27.309,-1,-2,0
2765,27.319,-1,-2,0
2766,27.329,0,-2,0
2767,27.339,0,-2,0
2768,27.349,0,-2,0
2769,27.359,-1,-2,0
2770,27.369,-1,-2,0
2771,27.379,0,-2,0
2772,27.389,0,-2,0
2773,27.399,-1,-1,0
2774,27.409,-1,-1,0
2775,27.419,-1,-1,0
2776,27.429,-1,-1,0
2777,27.439,-1,-1,0
2778,27.449,0,-1,0
2779,27.459,0,-2,0
2780,27.469,-1,-1,0
2781,27.479,-1,-2,0
2782,27.489,0,-1,0
2783,27.499,-1,-2,0
2784,27.509,0,-2,0
2785,27.519,0,-2,0
2786,27.529,0,-1,0
2787,27.539,0,-1,0
2788,27.549,0,-1,0
2789,27.559,-1,-2,0
2790,27.569,-1,-1,0
2791,27.579,0,-1,0
2792,27.589,0,-1,0
2793,27.599,-1,-1,0
2794,27.609,0,-1,0
2795,27.619,0,-1,0
2796,27.629,0,-1,0
2797,27.639,0,-1,0
2798,27.649,0,-1,0
2799,27.659,0,-1,0
2800,27.669,0,-1,0
2801,27.679,0,-1,0
2802,27.689,0,-1,0
2803,27.699,0,-1,0
2804,27.709,0,-1,0
2805,27.719,0,-1,0
2806,27.729,0,-1,0
2807,27.739,0,-1,0
2808,27.749,0,-1,0
2809,27.759,0,-1,0
2810,27.769,0,-1,0
2811,27.779,0,-1,0
2812,27.789,0,-1,0
2813,27.799,0,-1,0
2814,27.809,-1,-1,0
2815,27.819,0,-1,0
2816,27.829,0,-1,0
2817,27.839,0,-1,0
2818,27.849,0,-1,0
2819,27.859,0,-1,0
2820,27.869,0,-1,0
2821,27.879,0,-1,0
2822,27.889,0,-1,0
2823,27.899,-1,-1,0
2824,27.909,0,-1,0
2825,27.919,0,-1,0
2826,27.929,0,-1,0
2827,27.939,0,-1,0
2828,27.949,0,-1,0
2829,27.959,0,-1,0
2830,27.969,0,-1,0
2831,27.979,0,-2,0
2832,27.989,0,-1,0
2833,27.999,0,-1,0
2834,28.009,0,-2,0
2835,28.019,0,-2,0
2836,28.029,0,-2,0
2837,28.039,0,-2,0
2838,28.049,0,-2,0
2839,28.059,0,-2,0
2840,28.069,0,-2,0
2841,28.079,0,-2,0
2842,28.089,0,-2,0
2843,28.099,0,-2,0
2844,28.109,0,-2,0
2845,28.119,0,-2,0
2846,28.129,0,-3,0
2847,28.139,0,-3,0
2848,28.149,0,-2,0
2849,28.159,0,-3,0
2850,28.169,0,-2,0
2851,28.179,0,-2,0
2852,28.189,0,-2,0
2853,28.199,0,-1,0
2854,28.209,0,-1,0
2855,28.219,0,-1,0
2856,28.229,0,-1,0
2857,28.239,0,-1,0
2858,28.249,0,-2,0
2859,28.259,0,-2,0
2860,28.269,-1,-2,0
2861,28.279,0,-1,0
2862,28.289,-1,-1,0
2863,28.299,0,-1,0
2864,28.309,0,-1,0
2865,28.319,0,-1,0
2866,28.329,0,-1,0
2867,28.339,0,-2,0
2868,28.349,0,-2,0
2869,28.359,0,-2,0
2870,28.369,0,-2,0
2871,28.379,0,-2,0
2872,28.389,0,-2,0
2873,28.399,0,-2,0
2874,28.409,1,-2,0
2875,28.419,0,-1,0
2876,28.429,0,-1,0
2877,28.439,0,-1,0
2878,28.449,0,-1,0
2879,28.459,0,-1,0
2880,28.469,0,0,0
2881,28.479,0,0,0
2882,28.489,0,-1,0
2883,28.499,0,-1,0
2884,28.509,0,0,0
2885,28.519,0,0,0
2886,28.529,0,0,0
2887,28.539,1,0,0
2888,28.549,0,0,0
2889,28.559,0,0,0
2890,28.569,0,0,0
2891,28.579,0,0,0
2892,28.589,0,0,0
2893,28.599,0,0,0
2894,28.609,0,0,0
2895,28.619,0,0,0
2896,28.629,0,0,0
2897,28.639,0,0,0
2898,28.649,1,0,0
2899,28.659,0,0,0
2900,28.669,0,0,0
2901,28.679,1,0,0
2902,28.689,0,0,0
2903,28.699,0,0,0
2904,28.709,0,-1,0
2905,28.719,0,-1,0
2906,28.729,0,-1,0
2907,28.739,0,-1,0
2908,28.749,0,-1,0
2909,28.759,0,-1,0
2910,28.769,0,-1,0
2911,28.779,0,-1,0
2912,28.789,1,-1,0
2913,28.799,0,-2,0
2914,28.809,0,-1,0
2915,28.819,0,-2,0
2916,28.829,0,-2,0
2917,28.839,15,0,0
2918,28.849,65,1,0
2919,28.859,-1,-1,0
2920,28.869,-1,-2,0
2921,28.879,-1,-3,0
2922,28.889,-3,-4,0
2923,28.899,-2,-1,0
2924,28.909,-2,-2,0
2925,28.919,-4,-2,0
2926,28.929,-2,-2,0
2927,28.939,-1,-3,0
2928,28.949,0,-3,0
2929,28.959,0,-2,0
2930,28.969,-1,-2,0
2931,28.979,-1,-2,0
2932,28.989,-24,-6,0
2933,28.999,-42,-8,0
2934,29.009,-6,-4,0
2935,29.019,2,-4,0
2936,29.029,3,-4,0
2937,29.039,2,-3,0
2938,29.049,3,-2,0
2939,29.059,2,-1,0
2940,29.069,2,-1,0
2941,29.079,2,-2,0
2942,29.089,2,-1,0
2943,29.099,2,-1,0
2944,29.109,2,-1,0
2945,29.119,2,-1,0
2946,29.129,2,-1,0
2947,29.139,2,-1,0
2948,29.149,2,-1,0
2949,29.159,1,0,0
2950,29.169,1,-1,0
2951,29.179,1,-1,0
2952,29.189,1,-1,0
2953,29.199,1,-1,0
2954,29.209,1,-1,0
2955,29.219,1,0,0
2956,29.229,1,0,0
2957,29.239,1,0,0
2958,29.249,1,0,0
2959,29.259,1,0,0
2960,29.269,1,-1,0
2961,29.279,2,-1,0
2962,29.289,2,-1,0
2963,29.299,2,-1,0
2964,29.309,2,-1,0
2965,29.319,1,-1,0
2966,29.329,1,-1,0
2967,29.339,1,-1,0
2968,29.349,2,-1,0
2969,29.359,1,-1,0
2970,29.369,1,-1,0
2971,29.379,0,-1,0
2972,29.389,0,0,0
2973,29.399,0,0,0
2974,29.409,0,0,0
2975,29.419,0,0,0
2976,29.429,0,0,0
2977,29.439,0,0,0
2978,29.449,1,0,0
2979,29.459,0,0,0
2980,29.469,1,0,0
2981,29.479,0,0,0
2982,29.489,0,0,0
2983,29.499,0,1,0
2984,29.509,0,0,0
2985,29.519,0,0,0
2986,29.529,0,1,0
2987,29.539,0,0,0
2988,29.549,0,1,0
2989,29.559,0,0,0
2990,29.569,0,0,0
2991,29.579,0,0,0
2992,29.589,0,0,0
2993,29.599,0,0,0
2994,29.609,0,0,0
2995,29.619,0,0,0
2996,29.629,0,0,0
2997,29.639,0,-1,0
2998,29.649,0,-1,0
2999,29.659,0,0,0
3000,29.669,0,0,0
3001,29.679,0,0,0
3002,29.689,0,0,0
3003,29.699,0,0,0
3004,29.709,0,0,0
3005,29.719,0,0,0
3006,29.729,-1,0,0
3007,29.739,-1,0,0
3008,29.749,-1,0,0
3009,29.759,-1,0,0
3010,29.769,-1,0,0
3011,29.779,-1,0,0
3012,29.789,-1,0,0
3013,29.799,-1,-1,0
3014,29.809,-2,-1,0
3015,29.819,-1,0,0
3016,29.829,-1,0,0
3017,29.839,-1,0,0
3018,29.849,-1,0,0
3019,29.859,-1,0,0
3020,29.869,-1,0,0
3021,29.879,-1,0,0
3022,29.889,-1,0,0
3023,29.899,-1,0,0
3024,29.909,-2,-1,0
3025,29.919,-2,0,0
3026,29.929,-2,0,0
3027,29.939,-2,-1,0
3028,29.949,-3,-1,0
3029,29.959,-3,-1,0
3030,29.969,-3,-1,0
3031,29.979,-4,-1,0
3032,29.989,-3,-1,0
3033,29.999,-3,-1,0
3034,30.009,-3,-1,0
3035,30.019,-4,0,0
3036,30.029,-5,0,0
3037,30.039,-6,0,0
3038,30.049,-6,-1,0
3039,30.059,-6,-1,0
3040,30.069,-7,0,0
3041,30.079,-8,0,0
3042,30.089,-9,0,0
3043,30.099,-12,0,0
3044,30.109,-8,0,0
3045,30.119,-7,-1,0
3046,30.129,-5,-1,0
3047,30.139,-4,-1,0
3048,30.149,-4,-1,0
3049,30.159,-1,-1,0
3050,30.169,0,-1,0
3051,30.179,-1,-1,0
3052,30.189,-1,0,0
3053,30.199,1,1,0
3054,30.209,2,1,0
3055,30.219,2,1,0
3056,30.229,1,1,0
3057,30.239,0,1,0
3058,30.249,-1,0,0
3059,30.259,-3,-1,0
3060,30.269,-4,-2,0
3061,30.279,-3,-1,0
3062,30.289,0,-1,0
3063,30.299,1,-1,0
3064,30.309,0,-1,0
3065,30.319,-1,-1,0
3066,30.329,-1,-1,0
3067,30.339,-3,-1,0
3068,30.349,-5,-1,0
3069,30.359,-5,-1,0
3070,30.369,-5,-1,0
3071,30.379,-5,-1,0
3072,30.389,-4,-1,0
3073,30.399,-3,-1,0
3074,30.409,-3,0,0
3075,30.419,-2,0,0
3076,30.429,-3,0,0
3077,30.439,-3,0,0
3078,30.449,-3,1,0
3079,30.459,-3,1,0
3080,30.469,-3,1,0
3081,30.479,-3,0,0
3082,30.489,-2,0,0
3083,30.499,-2,0,0
3084,30.509,-2,-1,0
3085,30.519,-1,-1,0
3086,30.529,-1,-1,0
3087,30.539,-2,-1,0
3088,30.549,-3,-2,0
3089,30.559,-2,-3,0
3090,30.569,-2,-3,0
3091,30.579,-2,-2,0
3092,30.589,-3,-2,0
3093,30.599,-3,-2,0
3094,30.609,-3,-2,0
3095,30.619,-2,-2,0
3096,30.629,-2,-1,0
3097,30.639,-1,-1,0
3098,30.649,-1,-1,0
3099,30.659,-1,-1,0
3100,30.669,-4,-1,0
3101,30.679,-4,-1,0
3102,30.689,-2,0,0
3103,30.699,-2,0,0
3104,30.709,-2,-1,0
3105,30.719,-2,-1,0
3106,30.729,-1,-1,0
3107,30.739,-1,-1,0
3108,30.749,-2,0,0
3109,30.759,-2,0,0
3110,30.769,-2,-1,0
3111,30.779,-2,0,0
3112,30.789,-2,0,0
3113,30.799,-2,0,0
3114,30.809,-2,0,0
3115,30.819,-2,0,0
3116,30.829,-2,0,0
3117,30.839,-2,0,0
3118,30.849,-2,0,0
3119,30.859,-2,0,0
3120,30.869,-1,0,0
3121,30.879,-1,0,0
3122,30.889,-1,0,0
3123,30.899,-2,0,0
3124,30.909,-1,0,0
3125,30.919,-2,0,0
3126,30.929,-2,0,0
3127,30.939,-2,-1,0
3128,30.949,-1,-1,0
3129,30.959,-1,-1,0
3130,30.969,-1,-1,0
3131,30.979,-1,-1,0
3132,30.989,-2,-1,0
3133,30.999,-2,0,0
3134,31.009,-2,-1,0
3135,31.019,-2,-1,0
3136,31.029,-1,-1,0
3137,31.039,-1,-1,0
3138,31.049,-1,-1,0
3139,31.059,-2,0,0
3140,31.069,-1,-1,0
3141,31.079,-2,-1,0
3142,31.089,-1,0,0
3143,31.099,-2,0,0
3144,31.109,-2,0,0
3145,31.119,-2,0,0
3146,31.129,-2,0,0
3147,31.139,-2,0,0
3148,31.149,-2,0,0
3149,31.159,-2,0,0
3150,31.169,-2,0,0
3151,31.179,-2,0,0
3152,31.189,-2,0,0
3153,31.199,-2,0,0
3154,31.209,-2,0,0
3155,31.219,-2,-1,0
3156,31.229,-2,-1,0
3157,31.239,-2,-1,0
3158,31.249,-2,-1,0
3159,31.259,-1,-1,0
3160,31.269,-2,-1,0
3161,31.279,-2,-1,0
3162,31.289,-2,-1,0
3163,31.299,-2,-1,0
3164,31.309,-2,-1,0
3165,31.319,-2,-1,0
3166,31.329,-2,-1,0
3167,31.339,-2,-1,0
3168,31.349,-2,-1,0
3169,31.359,-2,-1,0
3170,31.369,-2,-1,0
3171,31.379,-2,-1,0
3172,31.389,-2,-1,0
3173,31.399,-2,-1,0
3174,31.409,-2,-1,0
3175,31.419,-2,-1,0
3176,31.429,-2,-1,0
3177,31.439,-2,0,0
3178,31.449,-2,0,0
3179,31.459,-2,0,0
3180,31.469,-2,0,0
3181,31.479,-2,0,0
3182,31.489,-2,0,0
3183,31.499,-2,0,0
3184,31.509,-2,0,0
3185,31.519,-2,0,0
3186,31.529,-2,0,0
3187,31.539,-2,0,0
3188,31.549,-2,0,0
3189,31.559,-2,0,0
3190,31.569,-2,0,0
3191,31.579,-2,0,0
3192,31.589,-2,0,0
3193,31.599,-2,0,0
3194,31.609,-2,0,0
3195,31.619,-2,0,0
3196,31.629,-2,0,0
3197,31.639,-2,0,0
3198,31.649,-2,0,0
3199,31.659,-2,-1,0
3200,31.669,-2,0,0
3201,31.679,-2,0,0
3202,31.689,-2,0,0
3203,31.699,-2,0,0
3204,31.709,-2,0,0
3205,31.719,-2,0,0
3206,31.729,-2,0,0
3207,31.739,-2,-1,0
3208,31.749,-2,0,0
3209,31.759,-2,0,0
3210,31.769,-2,0,0
3211,31.779,-2,0,0
3212,31.789,-2,0,0
3213,31.799,-2,0,0
3214,31.809,-2,0,0
3215,31.819,-2,0,0
3216,31.829,-2,0,0
3217,31.839,-2,0,0
3218,31.849,-2,0,0
3219,31.859,-2,0,0
3220,31.869,-2,-1,0
3221,31.879,-2,0,0
3222,31.889,-2,-1,0
3223,31.899,-2,0,0
3224,31.909,-2,-1,0
3225,31.919,-1,-1,0
3226,31.929,-2,-1,0
3227,31.939,-2,-1,0
3228,31.949,-1,-1,0
3229,31.959,-1,-1,0
3230,31.969,-2,-1,0
3231,31.979,-2,-1,0
3232,31.989,-1,-1,0
3233,31.999,-1,-1,0
3234,32.009,-1,-1,0
3235,32.019,-1,-1,0
3236,32.029,-1,-1,0
3237,32.039,-1,-1,0
3238,32.049,-2,-1,0
3239,32.059,-2,-1,0
3240,32.069,-2,-1,0
3241,32.079,-1,-1,0
3242,32.089,-2,-1,0
3243,32.099,-1,-1,0
3244,32.109,-1,-1,0
3245,32.119,-2,-1,0
3246,32.129,-2,-1,0
3247,32.139,-2,-1,0
3248,32.149,-2,-1,0
3249,32.159,-2,-1,0
3250,32.169,-1,-1,0
3251,32.179,-1,-1,0
3252,32.189,-2,-1,0
3253,32.199,-2,-1,0
3254,32.209,-2,-1,0
3255,32.219,-1,-1,0
3256,32.229,-2,-1,0
3257,32.239,-2,-1,0
3258,32.249,-1,-1,0
3259,32.259,-2,-1,0
3260,32.269,-2,-1,0
3261,32.279,-2,-1,0
3262,32.289,-2,-1,0
3263,32.299,-2,-1,0
3264,32.309,-2,-1,0
3265,32.319,-2,-1,0
3266,32.329,-2,-1,0
3267,32.339,-2,-1,0
3268,32.349,-2,-1,0
3269,32.359,-2,-1,0
3270,32.369,-2,-1,0
3271,32.379,-2,-1,0
3272,32.389,-2,-1,0
3273,32.399,-1,-1,0
3274,32.409,-2,-1,0
3275,32.419,-2,-1,0
3276,32.429,-1,-1,0
3277,32.439,-1,-1,0
3278,32.449,-2,-1,0
3279,32.459,-2,-1,0
3280,32.469,-1,-1,0
3281,32.479,-1,-1,0
3282,32.489,-2,-1,0
3283,32.499,-2,-1,0
3284,32.509,-2,-1,0
3285,32.519,-2,-1,0
3286,32.529,-2,-1,0
3287,32.539,-2,-1,0
3288,32.549,-1,-1,0
3289,32.559,-2,-1,0
3290,32.569,-2,-1,0
3291,32.579,-2,-2,0
3292,32.589,-2,-1,0
3293,32.599,-2,-1,0
3294,32.609,-2,-1,0
3295,32.619,-2,-1,0
3296,32.629,-2,-1,0
3297,32.639,-2,-2,0
3298,32.649,-2,-1,0
3299,32.659,-2,-1,0
3300,32.669,-2,-1,0
3301,32.679,-1,-1,0
3302,32.689,-2,-1,0
3303,32.699,-2,-1,0
3304,32.709,-2,-1,0
3305,32.719,-2,-1,0
3306,32.729,-1,-1,0
3307,32.739,-2,-1,0
3308,32.749,-2,-1,0
3309,32.759,-2,-1,0
3310,32.769,-2,-1,0
3311,32.779,-2,-1,0
3312,32.789,-1,-1,0
3313,32.799,-1,-1,0
3314,32.809,-2,-1,0
3315,32.819,-1,-1,0
3316,32.829,-2,-1,0
3317,32.839,-1,-1,0
3318,32.849,-2,-1,0
3319,32.859,-2,-1,0
3320,32.869,-2,-1,0
3321,32.879,-2,-1,0
3322,32.889,-2,-1,0
3323,32.899,-2,-1,0
3324,32.909,-2,-1,0
3325,32.919,-2,-1,0
3326,32.929,-2,-1,0
3327,32.939,-2,-1,0
3328,32.949,-2,-1,0
3329,32.959,-2,-1,0
3330,32.969,-2,-1,0
3331,32.979,-2,-1,0
3332,32.989,-1,-1,0
3333,32.999,-2,-1,0
3334,33.009,-2,-1,0
3335,33.019,-2,-1,0
3336,33.029,-2,-1,0
3337,33.039,-2,-1,0
3338,33.049,-2,-1,0
3339,33.059,-2,-1,0
3340,33.069,-2,-1,0
3341,33.079,-2,-1,0
3342,33.089,-2,-1,0
3343,33.099,-2,-1,0
3344,33.109,-2,-1,0
3345,33.119,-2,-1,0
3346,33.129,-2,-1,0
3347,33.139,-2,-1,0
3348,33.149,-1,-1,0
3349,33.159,-2,-1,0
3350,33.169,-1,-1,0
3351,33.179,-1,-1,0
3352,33.189,-1,0,0
3353,33.199,-2,-1,0
3354,33.209,-1,-1,0
3355,33.219,-1,-1,0
3356,33.229,-1,-1,0
3357,33.239,-2,-1,0
3358,33.249,-2,0,0
3359,33.259,-1,-1,0
3360,33.269,-2,-1,0
3361,33.279,-2,0,0
3362,33.289,-2,-1,0
3363,33.299,-2,-1,0
3364,33.309,-2,0,0
3365,33.319,-2,0,0
3366,33.329,-2,-1,0
3367,33.339,-2,-1,0
3368,33.349,-2,-1,0
3369,33.359,-2,-1,0
3370,33.369,-2,-1,0
3371,33.379,-2,-1,0
3372,33.389,-2,-1,0
3373,33.399,-1,-1,0
3374,33.409,-2,-1,0
3375,33.419,-2,-1,0
3376,33.429,-2,-1,0
3377,33.439,-2,-1,0
3378,33.449,-2,-1,0
3379,33.459,-2,-1,0
3380,33.469,-2,-1,0
3381,33.479,-2,-1,0
3382,33.489,-2,-1,0
3383,33.499,-2,-1,0
3384,33.509,-2,-1,0
3385,33.519,-2,-1,0
3386,33.529,-2,-1,0
3387,33.539,-1,-1,0
3388,33.549,-2,-1,0
3389,33.559,-2,-1,0
3390,33.569,-2,-1,0
3391,33.579,-1,-1,0
3392,33.589,-2,-1,0
3393,33.599,-2,-1,0
3394,33.609,-2,-1,0
3395,33.619,-2,-1,0
3396,33.629,-2,-1,0
3397,33.639,-2,-1,0
3398,33.649,-2,-1,0
3399,33.659,-2,-1,0
3400,33.669,-2,-1,0
3401,33.679,-1,-1,0
3402,33.689,-2,-1,0
3403,33.699,-2,-1,0
3404,33.709,-2,-1,0
3405,33.719,-1,-1,0
3406,33.729,-2,-1,0
3407,33.739,-2,-1,0
3408,33.749,-2,-1,0
3409,33.759,-2,-1,0
3410,33.769,-1,-1,0
3411,33.779,-1,-2,0
3412,33.789,-1,-1,0
3413,33.799,-2,-1,0
3414,33.809,-2,-1,0
3415,33.819,-2,-1,0
3416,33.829,-2,-1,0
3417,33.839,-1,-2,0
3418,33.849,-1,-1,0
3419,33.859,-2,-1,0
3420,33.869,-2,-2,0
3421,33.879,-2,-1,0
3422,33.889,-1,-1,0
3423,33.899,-2,-1,0
3424,33.909,-2,-1,0
3425,33.919,-2,-1,0
3426,33.929,-2,-1,0
3427,33.939,-1,-2,0
3428,33.949,-1,-2,0
3429,33.959,-2,-1,0
3430,33.969,-2,-2,0
3431,33.979,-2,-2,0
3432,33.989,-2,-1,0
3433,33.999,-2,-2,0
3434,34.009,-2,-1,0
3435,34.019,-2,-2,0
3436,34.029,-1,-2,0
3437,34.039,-2,-2,0
3438,34.049,-2,-2,0
3439,34.059,-2,-2,0
3440,34.069,-2,-2,0
3441,34.079,-2,-1,0
3442,34.089,-1,-2,0
3443,34.099,-1,-2,0
3444,34.109,-2,-1,0
3445,34.119,-2,-1,0
3446,34.129,-2,-1,0
3447,34.139,-2,-1,0
3448,34.149,-2,-2,0
3449,34.159,-2,-2,0
3450,34.169,-2,-1,0
3451,34.179,-1,-1,0
3452,34.189,-1,-2,0
3453,34.199,-2,-2,0
3454,34.209,-2,-1,0
3455,34.219,-1,-2,0
3456,34.229,-2,-1,0
3457,34.239,-1,-1,0
3458,34.249,-2,-1,0
3459,34.259,-1,-1,0
3460,34.269,-2,-2,0
3461,34.279,-2,-1,0
3462,34.289,-2,-2,0
3463,34.299,-1,-1,0
3464,34.309,-1,-1,0
3465,34.319,-1,-2,0
3466,34.329,-2,-1,0
3467,34.339,-2,-2,0
3468,34.349,-1,-1,0
3469,34.359,-1,-1,0
3470,34.369,-1,-2,0
3471,34.379,-1,-1,0
3472,34.389,-1,-1,0
3473,34.399,-1,-1,0
3474,34.409,-2,-1,0
3475,34.419,-2,-1,0
3476,34.429,-1,-1,0
3477,34.439,-2,-1,0
3478,34.449,-1,-1,0
3479,34.459,-2,-1,0
3480,34.469,-1,-1,0
3481,34.479,-2,-1,0
3482,34.489,-2,-1,0
3483,34.499,-2,-1,0
3484,34.509,-2,-1,0
3485,34.519,-1,-1,0
3486,34.529,-2,-1,0
3487,34.539,-1,-1,0
3488,34.549,-1,-1,0
3489,34.559,-1,-1,0
3490,34.569,-2,-1,0
3491,34.579,-2,-1,0
3492,34.589,-2,-1,0
3493,34.599,-2,-1,0
3494,34.609,-2,-1,0
3495,34.619,-2,-1,0
3496,34.629,-2,-1,0
3497,34.639,-1,-1,0
3498,34.649,-1,-1,0
3499,34.659,-2,-1,0
3500,34.669,-2,-1,0
3501,34.679,-2,-1,0
3502,34.689,-2,-1,0
3503,34.699,-1,-1,0
3504,34.709,-1,-1,0
3505,34.719,-1,-1,0
3506,34.729,-2,-1,0
3507,34.739,-1,-1,0
3508,34.749,-2,-1,0
3509,34.759,-2,-1,0
3510,34.769,-2,-1,0
3511,34.779,-2,-1,0
3512,34.789,-2,-1,0
3513,34.799,-1,-1,0
3514,34.809,-2,-1,0
3515,34.819,-1,-1,0
3516,34.829,-2,-1,0
3517,34.839,-2,-1,0
3518,34.849,-1,-1,0
3519,34.859,-2,-1,0
3520,34.869,-1,-1,0
3521,34.879,-2,-1,0
3522,34.889,-1,-1,0
3523,34.899,-2,-1,0
3524,34.909,-1,-1,0
3525,34.919,-2,-1,0
3526,34.929,-2,-1,0
3527,34.939,-1,-1,0
3528,34.949,-2,-1,0
3529,34.959,-2,-1,0
3530,34.969,-2,-1,0
3531,34.979,-2,-1,0
3532,34.989,-2,-1,0
3533,34.999,-2,-1,0
3534,35.009,-1,-2,0
3535,35.019,-1,-1,0
3536,35.029,-1,-1,0
3537,35.039,-2,-1,0
3538,35.049,-1,-1,0
3539,35.059,-1,-1,0
3540,35.069,-1,-1,0
3541,35.079,-2,-1,0
3542,35.089,-1,-1,0
3543,35.099,-1,-1,0
3544,35.109,-1,-1,0
3545,35.119,-1,-1,0
3546,35.129,-2,-1,0
3547,35.139,-1,-1,0
3548,35.149,-1,-1,0
3549,35.159,-2,-1,0
3550,35.169,-2,-1,0
3551,35.179,-2,-1,0
3552,35.189,-2,-1,0
3553,35.199,-2,-1,0
3554,35.209,-1,-1,0
3555,35.219,-2,-1,0
3556,35.229,-1,-1,0
3557,35.239,-2,-1,0
3558,35.249,-1,-1,0
3559,35.259,-2,-1,0
3560,35.269,-2,-1,0
3561,35.279,-2,-1,0
3562,35.289,-1,-1,0
3563,35.299,-1,-1,0
3564,35.309,-1,-1,0
3565,35.319,-2,-1,0
3566,35.329,-1,-1,0
3567,35.339,-1,-1,0
3568,35.349,-1,-1,0
3569,35.359,-2,-1,0
3570,35.369,-2,-1,0
3571,35.379,-1,-1,0
3572,35.389,-1,-1,0
3573,35.399,-2,-1,0
3574,35.409,-1,-1,0
3575,35.419,-2,-1,0
3576,35.429,-2,-1,0
3577,35.439,-2,-1,0
3578,35.449,-2,-1,0
3579,35.459,-2,-1,0
3580,35.469,-2,-1,0
3581,35.479,-2,-1,0
3582,35.489,-1,-1,0
3583,35.499,-1,-1,0
3584,35.509,-1,-1,0
3585,35.519,-2,-1,0
3586,35.529,-2,-1,0
3587,35.539,-2,-1,0
3588,35.549,-2,-1,0
3589,35.559,-2,-1,0
3590,35.569,-2,-1,0
3591,35.579,-2,-1,0
3592,35.589,-2,-1,0
3593,35.599,-1,-1,0
3594,35.609,-1,-1,0
3595,35.619,-1,-1,0
3596,35.629,-1,-1,0
3597,35.639,-1,-1,0
3598,35.649,-2,-1,0
3599,35.659,-2,-1,0
3600,35.669,-1,-1,0
3601,35.679,-1,-1,0
3602,35.689,-1,-1,0
3603,35.699,-2,-1,0
3604,35.709,-1,-1,0
3605,35.719,-1,-1,0
3606,35.729,-1,-1,0
3607,35.739,-2,-2,0
3608,35.749,-2,-2,0
3609,35.759,-1,-1,0
3610,35.769,-1,-2,0
3611,35.779,-1,-2,0
3612,35.789,-1,-1,0
3613,35.799,-1,-1,0
3614,35.809,-2,-1,0
3615,35.819,-1,-1,0
3616,35.829,-1,-1,0
3617,35.839,-1,-1,0
3618,35.849,-1,-1,0
3619,35.859,-1,-1,0
3620,35.869,-2,-1,0
3621,35.879,-2,-1,0
3622,35.889,-2,-1,0
3623,35.899,-1,-1,0
3624,35.909,-2,-1,0
3625,35.919,-1,-1,0
3626,35.929,-1,-1,0
3627,35.939,-1,-1,0
3628,35.949,-1,-1,0
3629,35.959,-1,-1,0
3630,35.969,-1,-1,0
3631,35.979,-2,-1,0
3632,35.989,-1,-1,0
3633,35.999,-2,-1,0
3634,36.009,-1,-1,0
3635,36.019,-1,-1,0
3636,36.029,-2,-1,0
3637,36.039,-1,-1,0
3638,36.049,-2,-1,0
3639,36.059,-1,-1,0
3640,36.069,-1,-1,0
3641,36.079,-2,-1,0
3642,36.089,-2,-1,0
3643,36.099,-1,-1,0
3644,36.109,-1,-1,0
3645,36.119,-2,-1,0
3646,36.129,-1,-1,0
3647,36.139,-1,-1,0
3648,36.149,-1,-1,0
3649,36.159,-1,-1,0
3650,36.169,-1,-1,0
3651,36.179,-1,-1,0
3652,36.189,-2,-1,0
3653,36.199,-2,-1,0
3654,36.209,-2,-1,0
3655,36.219,-2,-1,0
3656,36.229,-1,-1,0
3657,36.239,-1,-2,0
3658,36.249,-1,-1,0
3659,36.259,-1,-1,0
3660,36.269,-2,-1,0
3661,36.279,-2,-1,0
3662,36.289,-2,-1,0
3663,36.299,-2,-1,0
3664,36.309,-2,-1,0
3665,36.319,-2,-1,0
3666,36.329,-2,-1,0
3667,36.339,-2,-1,0
3668,36.349,-1,-1,0
3669,36.359,-2,-1,0
3670,36.369,-1,-1,0
3671,36.379,-2,-1,0
3672,36.389,-2,-1,0
3673,36.399,-2,-1,0
3674,36.409,-1,-1,0
3675,36.419,-1,-1,0
3676,36.429,-2,-1,0
3677,36.439,-1,-1,0
3678,36.449,-2,-2,0
3679,36.459,-1,-2,0
3680,36.469,-1,-2,0
3681,36.479,-1,-2,0
3682,36.489,-2,-2,0
3683,36.499,-2,-2,0
3684,36.509,-1,-1,0
3685,36.519,-1,-1,0
3686,36.529,-2,-2,0
3687,36.539,-2,-2,0
3688,36.549,-1,-2,0
3689,36.559,-1,-2,0
3690,36.569,-2,-2,0
3691,36.579,-2,-2,0
3692,36.589,-1,-1,0
3693,36.599,-1,-1,0
3694,36.609,-2,-2,0
3695,36.619,-1,-2,0
3696,36.629,-2,-1,0
3697,36.639,-2,-1,0
3698,36.649,-1,-1,0
3699,36.659,-1,-2,0
3700,36.669,-1,-2,0
3701,36.679,-2,-2,0
3702,36.689,-2,-2,0
3703,36.699,-2,-1,0
3704,36.709,-1,-2,0
3705,36.719,-1,-2,0
3706,36.729,-2,-2,0
3707,36.739,-1,-1,0
3708,36.749,-1,-1,0
3709,36.759,-1,-2,0
3710,36.769,-2,-1,0
3711,36.779,-2,-2,0
3712,36.789,-2,-2,0
3713,36.799,-1,-1,0
3714,36.809,-1,-1,0
3715,36.819,-2,-1,0
3716,36.829,-1,-1,0
3717,36.839,-1,-1,0
3718,36.849,-2,-1,0
3719,36.859,-2,-1,0
3720,36.869,-2,-1,0
3721,36.879,-2,-1,0
3722,36.889,-2,-2,0
3723,36.899,-2,-1,0
3724,36.909,-2,-2,0
3725,36.919,-1,-1,0
3726,36.929,-2,-1,0
3727,36.939,-2,-1,0
3728,36.949,-2,-1,0
3729,36.959,-2,-1,0
3730,36.969,-2,-1,0
3731,36.979,-1,-1,0
3732,36.989,-2,-1,0
3733,36.999,-1,-2,0
3734,37.009,-2,-1,0
3735,37.019,-1,-1,0
3736,37.029,-2,-1,0
3737,37.039,-2,-1,0
3738,37.049,-2,-1,0
3739,37.059,-2,-1,0
3740,37.069,-2,-1,0
3741,37.079,-1,-1,0
3742,37.089,-2,-1,0
3743,37.099,-2,-1,0
3744,37.109,-1,-1,0
3745,37.119,-1,-1,0
3746,37.129,-1,-1,0
3747,37.139,-2,-1,0
3748,37.149,-2,-1,0
3749,37.159,-1,-1,0
3750,37.169,-2,-1,0
3751,37.179,-1,-1,0
3752,37.189,-2,-1,0
3753,37.199,-1,-1,0
3754,37.209,-1,-1,0
3755,37.219,-1,-1,0
3756,37.229,-1,-1,0
3757,37.239,-1,-1,0
3758,37.249,-2,-1,0
3759,37.259,-1,-1,0
3760,37.269,-2,-1,0
3761,37.279,-2,-1,0
3762,37.289,-2,-1,0
3763,37.299,-1,-1,0
3764,37.309,-1,-1,0
3765,37.319,-2,-1,0
3766,37.329,-2,-1,0
3767,37.339,-2,-1,0
3768,37.349,-1,-1,0
3769,37.359,-1,-1,0
3770,37.369,-2,-1,0
3771,37.379,-2,-1,0
3772,37.389,-2,-1,0
3773,37.399,-2,-1,0
3774,37.409,-2,-1,0
3775,37.419,-2,-1,0
3776,37.429,-2,-1,0
3777,37.439,-2,-1,0
3778,37.449,-2,-1,0
3779,37.459,-2,-1,0
3780,37.469,-1,-1,0
3781,37.479,-1,-1,0
3782,37.489,-1,-1,0
3783,37.499,-2,-1,0
3784,37.509,-2,-1,0
3785,37.519,-1,-1,0
3786,37.529,-2,-1,0
3787,37.539,-2,-1,0
3788,37.549,-2,-1,0
3789,37.559,-2,-1,0
3790,37.569,-2,-1,0
3791,37.579,-2,-1,0
3792,37.589,-2,-1,0
3793,37.599,-2,-1,0
3794,37.609,-1,-1,0
3795,37.619,-2,-1,0
3796,37.629,-2,-1,0
3797,37.639,-2,-1,0
3798,37.649,-1,-1,0
3799,37.659,-1,-1,0
3800,37.669,-1,-1,0
3801,37.679,-1,-1,0
3802,37.689,-2,-1,0
3803,37.699,-1,-1,0
3804,37.709,-2,-1,0
3805,37.719,-2,-1,0
3806,37.729,-2,-1,0
3807,37.739,-1,-1,0
3808,37.749,-1,-1,0
3809,37.759,-2,-1,0
3810,37.769,-2,-1,0
3811,37.779,-2,-1,0
3812,37.789,-2,-1,0
3813,37.799,-2,-1,0
3814,37.809,-2,-1,0
3815,37.819,-2,-1,0
3816,37.829,-2,-1,0
3817,37.839,-1,-1,0
3818,37.849,-1,-1,0
3819,37.859,-2,-1,0
3820,37.869,-2,-1,0
3821,37.879,-1,-1,0
3822,37.889,-2,-1,0
3823,37.899,-1,-1,0
3824,37.909,-2,-1,0
3825,37.919,-2,-1,0
3826,37.929,-2,-1,0
3827,37.939,-2,-1,0
3828,37.949,-1,-1,0
3829,37.959,-2,-1,0
3830,37.969,-2,-1,0
3831,37.979,-2,-1,0
3832,37.989,-1,-1,0
3833,37.999,-2,-1,0
3834,38.009,-1,-1,0
3835,38.019,-2,-1,0
3836,38.029,-2,-1,0
3837,38.039,-2,-1,0
3838,38.049,-2,-1,0
3839,38.059,-2,-1,0
3840,38.069,-2,-1,0
3841,38.079,-2,-1,0
3842,38.089,-1,-1,0
3843,38.099,-1,-1,0
3844,38.109,-1,-1,0
3845,38.119,-1,-1,0
3846,38.129,-2,-1,0
3847,38.139,-2,-1,0
3848,38.149,-1,-1,0
3849,38.159,-2,-1,0
3850,38.169,-2,-1,0
3851,38.179,-2,-1,0
3852,38.189,-2,-1,0
3853,38.199,-2,-1,0
3854,38.209,-1,-1,0
3855,38.219,-1,-1,0
3856,38.229,-2,-1,0
3857,38.239,-2,-1,0
3858,38.249,-2,-1,0
3859,38.259,-2,-1,0
3860,38.269,-2,-1,0
3861,38.279,-2,-1,0
3862,38.289,-2,-1,0
3863,38.299,-2,-1,0
3864,38.309,-2,-1,0
3865,38.319,-2,-1,0
3866,38.329,-2,-1,0
3867,38.339,-2,-1,0
3868,38.349,-2,-1,0
3869,38.359,-2,-1,0
3870,38.369,-2,-1,0
3871,38.379,-2,-1,0
3872,38.389,-2,-1,0
3873,38.399,-1,-1,0
3874,38.409,-2,-1,0
3875,38.419,-2,-1,0
3876,38.429,-2,-2,0
3877,38.439,-2,-2,0
3878,38.449,-2,-2,0
3879,38.459,-2,-1,0
3880,38.469,-2,-2,0
3881,38.479,-2,-2,0
3882,38.489,-2,-1,0
3883,38.499,-2,-1,0
3884,38.509,-1,-1,0
3885,38.519,-2,-1,0
3886,38.529,-2,-1,0
3887,38.539,-1,-1,0
3888,38.549,-2,-1,0
3889,38.559,-2,-1,0
3890,38.569,-1,-1,0
3891,38.579,-2,-1,0
3892,38.589,-2,-2,0
3893,38.599,-2,-2,0
3894,38.609,-2,-2,0
3895,38.619,-2,-1,0
3896,38.629,-2,-1,0
3897,38.639,-1,-2,0
3898,38.649,-2,-1,0
3899,38.659,-1,-2,0
3900,38.669,-2,-2,0
3901,38.679,-2,-2,0
3902,38.689,-1,-2,0
3903,38.699,-1,-1,0
3904,38.709,-2,-1,0
3905,38.719,-1,-1,0
3906,38.729,-2,-1,0
3907,38.739,-1,-1,0
3908,38.749,-2,-1,0
3909,38.759,-1,-1,0
3910,38.769,-2,-1,0
3911,38.779,-1,-1,0
3912,38.789,-1,-1,0
3913,38.799,-2,-1,0
3914,38.809,-2,-1,0
3915,38.819,-1,-1,0
3916,38.829,-2,-1,0
3917,38.839,-2,-1,0
3918,38.849,-1,-1,0
3919,38.859,-2,-1,0
3920,38.869,-2,-1,0
3921,38.879,-2,-1,0
3922,38.889,-2,-1,0
3923,38.899,-2,-1,0
3924,38.909,-2,-1,0
3925,38.919,-1,-1,0
3926,38.929,-2,-1,0
3927,38.939,-1,-1,0
3928,38.949,-2,-1,0
3929,38.959,-2,-1,0
3930,38.969,-1,-1,0
3931,38.979,-2,-1,0
3932,38.989,-2,-1,0
3933,38.999,-2,-1,0
3934,39.009,-2,-1,0
3935,39.019,-2,-1,0
3936,39.029,-1,-1,0
3937,39.039,-2,-1,0
3938,39.049,-2,-1,0
3939,39.059,-2,-1,0
3940,39.069,-1,-1,0
3941,39.079,-2,-1,0
3942,39.089,-1,-1,0
3943,39.099,-2,-1,0
3944,39.109,-1,-1,0
3945,39.119,-2,-1,0
3946,39.129,-1,-1,0
3947,39.139,-2,-1,0
3948,39.149,-2,-1,0
3949,39.159,-2,-1,0
3950,39.169,-2,-1,0
3951,39.179,-2,-1,0
3952,39.189,-2,-1,0
3953,39.199,-2,-1,0
3954,39.209,-1,-1,0
3955,39.219,-2,-1,0
3956,39.229,-2,-1,0
3957,39.239,-2,-1,0
3958,39.249,-2,-1,0
3959,39.259,-1,-1,0
3960,39.269,-2,-1,0
3961,39.279,-2,-1,0
3962,39.289,-2,-1,0
3963,39.299,-2,-1,0
3964,39.309,-2,-1,0
3965,39.319,-2,-1,0
3966,39.329,-2,-1,0
3967,39.339,-2,-1,0
3968,39.349,-2,-1,0
3969,39.359,-2,-1,0
3970,39.369,-2,-1,0
3971,39.379,-1,-1,0
3972,39.389,-2,-1,0
3973,39.399,-2,-1,0
3974,39.409,-2,-1,0
3975,39.419,-2,-2,0
3976,39.429,-2,-1,0
3977,39.439,-2,-1,0
3978,39.449,-2,-1,0
3979,39.459,-1,-1,0
3980,39.469,-1,-2,0
3981,39.479,-1,-2,0
3982,39.489,-2,-1,0
3983,39.499,-2,-2,0
3984,39.509,-1,-1,0
3985,39.519,-2,-1,0
3986,39.529,-2,-1,0
3987,39.539,-2,-1,0
3988,39.549,-2,-2,0
3989,39.559,-2,-1,0
3990,39.569,-2,-1,0
3991,39.579,-2,-1,0
3992,39.589,-2,-1,0
3993,39.599,-2,-1,0
3994,39.609,-2,-1,0
3995,39.619,-1,-1,0
3996,39.629,-1,-1,0
3997,39.639,-2,-1,0
3998,39.649,-2,-1,0
3999,39.659,-1,-1,0
4000,39.669,-2,-1,0
4001,39.679,-1,-1,0
4002,39.689,-2,-1,0
4003,39.699,-1,-1,0
4004,39.709,-2,-1,0
4005,39.719,-2,-1,0
4006,39.729,-2,-1,0
4007,39.739,-1,-1,0
4008,39.749,-1,-1,0
4009,39.759,-2,-1,0
4010,39.769,-2,-1,0
4011,39.779,-2,-1,0
4012,39.789,-2,-1,0
4013,39.799,-1,-1,0
4014,39.809,-2,-1,0
4015,39.819,-1,-1,0
4016,39.829,-1,-1,0
4017,39.839,-1,-1,0
4018,39.849,-1,-1,0
4019,39.859,-1,-1,0
4020,39.869,-1,-1,0
4021,39.879,-1,-1,0
4022,39.889,-2,-1,0
4023,39.899,-1,-1,0
4024,39.909,-1,-1,0
4025,39.919,-1,-1,0
4026,39.929,-2,-1,0
4027,39.939,-1,-1,0
4028,39.949,-1,-1,0
4029,39.959,-1,-1,0
4030,39.969,-2,-1,0
4031,39.979,-1,-1,0
4032,39.989,-1,-1,0
4033,39.999,-2,-1,0
4034,40.009,-2,-1,0
4035,40.019,-2,-1,0
4036,40.029,-2,-1,0
4037,40.039,-1,-1,0
4038,40.049,-2,-1,0
4039,40.059,-2,-1,0
4040,40.069,-2,-1,0
4041,40.079,-2,-1,0
4042,40.089,-1,-1,0
4043,40.099,-2,-1,0
4044,40.109,-1,-1,0
4045,40.119,-1,-1,0
4046,40.129,-1,-1,0
4047,40.139,-1,-1,0
4048,40.149,-1,-1,0
4049,40.159,-2,-1,0
4050,40.169,-1,-1,0
4051,40.179,-2,-1,0
4052,40.189,-1,-1,0
4053,40.199,-2,-1,0
4054,40.209,-1,-1,0
4055,40.219,-1,-1,0
4056,40.229,-1,-1,0
4057,40.239,-1,-1,0
4058,40.249,-1,-1,0
4059,40.259,-2,-1,0
4060,40.269,-2,-1,0
4061,40.279,-2,-1,0
4062,40.289,-1,-1,0
4063,40.299,-2,-1,0
4064,40.309,-1,-1,0
4065,40.319,-1,-1,0
4066,40.329,-2,-1,0
4067,40.339,-2,-1,0
4068,40.349,-1,-1,0
4069,40.359,-2,-1,0
4070,40.369,-1,-1,0
4071,40.379,-2,-1,0
4072,40.389,-1,-1,0
4073,40.399,-2,-1,0
4074,40.409,-2,-1,0
4075,40.419,-2,-1,0
4076,40.429,-1,-1,0
4077,40.439,-1,-1,0
4078,40.449,-1,-1,0
4079,40.459,-2,-1,0
4080,40.469,-1,-1,0
4081,40.479,-1,-1,0
4082,40.489,-1,-1,0
4083,40.499,-1,-1,0
4084,40.509,-2,-1,0
4085,40.519,-2,-1,0
4086,40.529,-1,-1,0
4087,40.539,-1,-1,0
4088,40.549,-2,-1,0
4089,40.559,-2,-1,0
4090,40.569,-1,-1,0
4091,40.579,-1,-1,0
4092,40.589,-1,-1,0
4093,40.599,-1,-1,0
4094,40.609,-1,-1,0
4095,40.619,-1,-1,0
4096,40.629,-2,-2,0
4097,40.639,-2,-1,0
4098,40.649,-1,-1,0
4099,40.659,-2,-1,0
4100,40.669,-2,-1,0
4101,40.679,-1,-1,0
4102,40.689,-1,-1,0
4103,40.699,-1,-1,0
4104,40.709,-1,-1,0
4105,40.719,-1,-1,0
4106,40.729,-2,-1,0
4107,40.739,-1,-1,0
4108,40.749,-1,-1,0
4109,40.759,-1,-1,0
4110,40.769,-1,-1,0
4111,40.779,-2,-1,0
4112,40.789,-1,-1,0
4113,40.799,-1,-1,0
4114,40.809,-2,-1,0
4115,40.819,-1,-1,0
4116,40.829,-2,-1,0
4117,40.839,-1,-1,0
4118,40.849,-1,-1,0
4119,40.859,-2,-1,0
4120,40.869,-1,-1,0
4121,40.879,-1,-1,0
4122,40.889,-2,-1,0
4123,40.899,-2,-1,0
4124,40.909,-2,-1,0
4125,40.919,-1,-1,0
4126,40.929,-2,-1,0
4127,40.939,-1,-1,0
4128,40.949,-2,-1,0
4129,40.959,-2,-1,0
4130,40.969,-2,-1,0
4131,40.979,-2,-1,0
4132,40.989,-2,-1,0
4133,40.999,-2,-1,0
4134,41.009,-2,-1,0
4135,41.019,-2,-1,0
4136,41.029,-2,-1,0
4137,41.039,-2,-1,0
4138,41.049,-2,-1,0
4139,41.059,-1,-1,0
4140,41.069,-2,-1,0
4141,41.079,-2,-1,0
4142,41.089,-2,-1,0
4143,41.099,-2,-1,0
4144,41.109,-2,-1,0
4145,41.119,-2,-1,0
4146,41.129,-2,-1,0
4147,41.139,-2,-1,0
4148,41.149,-2,-1,0
4149,41.159,-2,-1,0
4150,41.169,-2,-1,0
4151,41.179,-2,-1,0
4152,41.189,-2,-1,0
4153,41.199,-2,-1,0
4154,41.209,-1,-1,0
4155,41.219,-2,-1,0
4156,41.229,-2,-1,0
4157,41.239,-2,-1,0
4158,41.249,-2,-1,0
4159,41.259,-2,-1,0
4160,41.269,-2,-1,0
4161,41.279,-2,-1,0
4162,41.289,-2,-1,0
4163,41.299,-2,-1,0
4164,41.309,-2,-1,0
4165,41.319,-2,-1,0
4166,41.329,-2,-1,0
4167,41.339,-2,-1,0
4168,41.349,-2,-1,0
4169,41.359,-2,-1,0
4170,41.369,-2,-1,0
4171,41.379,-1,-1,0
4172,41.389,-2,-1,0
4173,41.399,-1,-1,0
4174,41.409,-2,-1,0
4175,41.419,-1,-1,0
4176,41.429,-2,-1,0
4177,41.439,-2,-1,0
4178,41.449,-2,-1,0
4179,41.459,-1,-1,0
4180,41.469,-2,-1,0
4181,41.479,-2,-1,0
4182,41.489,-2,-1,0
4183,41.499,-2,-1,0
4184,41.509,-2,-1,0
4185,41.519,-1,-1,0
4186,41.529,-2,-1,0
4187,41.539,-2,-1,0
4188,41.549,-2,-1,0
4189,41.559,-2,-1,0
4190,41.569,-2,-1,0
4191,41.579,-1,-1,0
4192,41.589,-2,-1,0
4193,41.599,-2,-1,0
4194,41.609,-2,-1,0
4195,41.619,-2,-1,0
4196,41.629,-2,-1,0
4197,41.639,-2,-1,0
4198,41.649,-2,-1,0
4199,41.659,-2,-1,0
4200,41.669,-2,-1,0
4201,41.679,-2,-1,0
4202,41.689,-2,-1,0
4203,41.699,-2,-1,0
4204,41.709,-2,-1,0
4205,41.719,-2,-1,0
4206,41.729,-2,-1,0
4207,41.739,-2,-1,0
4208,41.749,-2,-1,0
4209,41.759,-2,-1,0
4210,41.769,-1,-1,0
4211,41.779,-2,-1,0
4212,41.789,-2,-1,0
4213,41.799,-2,-1,0
4214,41.809,-2,-2,0
4215,41.819,-1,-1,0
4216,41.829,-2,-1,0
4217,41.839,-2,-1,0
4218,41.849,-2,-1,0
4219,41.859,-2,-1,0
4220,41.869,-2,-2,0
4221,41.879,-1,-1,0
4222,41.889,-2,-1,0
4223,41.899,-2,-1,0
4224,41.909,-2,-1,0
4225,41.919,-2,-1,0
4226,41.929,-2,-1,0
4227,41.939,-2,-1,0
4228,41.949,-2,-1,0
4229,41.959,-2,-1,0
4230,41.969,-2,-1,0
4231,41.979,-1,-1,0
4232,41.989,-1,-1,0
4233,41.999,-2,-1,0
4234,42.009,-2,-1,0
4235,42.019,-2,-1,0
4236,42.029,-2,-1,0
4237,42.039,-2,-1,0
4238,42.049,-2,-1,0
4239,42.059,-2,-1,0
4240,42.069,-2,-1,0
4241,42.079,-2,-1,0
4242,42.089,-2,-1,0
4243,42.099,-2,-1,0
4244,42.109,-2,-1,0
4245,42.119,-2,-1,0
4246,42.129,-2,-1,0
4247,42.139,-2,-1,0
4248,42.149,-2,-1,0
4249,42.159,-2,-1,0
4250,42.169,-2,-1,0
4251,42.179,-1,-1,0
4252,42.189,-2,-1,0
4253,42.199,-2,-1,0
4254,42.209,-2,-1,0
4255,42.219,-2,-1,0
4256,42.229,-2,-1,0
4257,42.239,-2,-1,0
4258,42.249,-2,-1,0
4259,42.259,-1,-1,0
4260,42.269,-2,-1,0
4261,42.279,-2,-1,0
4262,42.289,-2,-1,0
4263,42.299,-2,-1,0
4264,42.309,-2,-1,0
4265,42.319,-2,-1,0
4266,42.329,-2,-1,0
4267,42.339,-1,-1,0
4268,42.349,-2,-1,0
4269,42.359,-2,-1,0
4270,42.369,-2,-1,0
4271,42.379,-1,-1,0
4272,42.389,-2,-1,0
4273,42.399,-2,-1,0
4274,42.409,-2,-1,0
4275,42.419,-2,-1,0
4276,42.429,-1,-1,0
4277,42.439,-2,-1,0
4278,42.449,-2,-1,0
4279,42.459,-2,-1,0
4280,42.469,-2,-1,0
4281,42.479,-2,-1,0
4282,42.489,-2,-1,0
4283,42.499,-2,-1,0
4284,42.509,-1,-1,0
4285,42.519,-2,-1,0
4286,42.529,-2,-1,0
4287,42.539,-2,-1,0
4288,42.549,-2,-1,0
4289,42.559,-2,-1,0
4290,42.569,-2,-1,0
4291,42.579,-2,-1,0
4292,42.589,-2,-1,0
4293,42.599,-2,-1,0
4294,42.609,-2,-1,0
4295,42.619,-2,-1,0
4296,42.629,-1,-1,0
4297,42.639,-2,-1,0
4298,42.649,-2,-1,0
4299,42.659,-2,-1,0
4300,42.669,-2,-1,0
4301,42.679,-2,-1,0
4302,42.689,-2,-1,0
4303,42.699,-2,-1,0
4304,42.709,-2,-1,0
4305,42.719,-2,-1,0
4306,42.729,-2,-1,0
4307,42.739,-2,-1,0
4308,42.749,-2,-1,0
4309,42.759,-2,-1,0
4310,42.769,-2,-1,0
4311,42.779,-2,-1,0
4312,42.789,-2,-1,0
4313,42.799,-2,-1,0
4314,42.809,-2,-1,0
4315,42.819,-2,-1,0
4316,42.829,-2,-1,0
4317,42.839,-2,-1,0
4318,42.849,-2,-1,0
4319,42.859,-2,-1,0
4320,42.869,-2,-1,0
4321,42.879,-2,-1,0
4322,42.889,-2,-1,0
4323,42.899,-2,-1,0
4324,42.909,-2,-1,0
4325,42.919,-2,-1,0
4326,42.929,-2,-1,0
4327,42.939,-2,-1,0
4328,42.949,-2,-1,0
4329,42.959,-2,-1,0
4330,42.969,-2,-1,0
4331,42.979,-2,-1,0
4332,42.989,-2,-1,0
4333,42.999,-2,-1,0
4334,43.009,-2,-1,0
4335,43.019,-2,-1,0
4336,43.029,-2,-1,0
4337,43.039,-2,-1,0
4338,43.049,-2,-1,0
4339,43.059,-2,-1,0
4340,43.069,-2,-1,0
4341,43.079,-2,-1,0
4342,43.089,-2,-1,0
4343,43.099,-2,-1,0
4344,43.109,-2,-1,0
4345,43.119,-2,-1,0
4346,43.129,-2,-1,0
4347,43.139,-2,-1,0
4348,43.149,-2,-2,0
4349,43.159,-2,-2,0
4350,43.169,-2,-2,0
4351,43.179,-2,-2,0
4352,43.189,-2,-2,0
4353,43.199,-2,-2,0
4354,43.209,-2,-1,0
4355,43.219,-1,-1,0
4356,43.229,-1,-2,0
4357,43.239,-2,-2,0
4358,43.249,-2,-1,0
4359,43.259,-2,-1,0
4360,43.269,-1,-1,0
4361,43.279,-2,-1,0
4362,43.289,-2,-1,0
4363,43.299,-2,-1,0
4364,43.309,-2,-1,0
4365,43.319,-2,-1,0
4366,43.329,-2,-1,0
4367,43.339,-2,-1,0
4368,43.349,-2,-1,0
4369,43.359,-2,-1,0
4370,43.369,-2,-1,0
4371,43.379,-2,-1,0
4372,43.389,-2,-1,0
4373,43.399,-2,-2,0
4374,43.409,-2,-1,0
4375,43.419,-2,-2,0
4376,43.429,-2,-1,0
4377,43.439,-2,-2,0
4378,43.449,-2,-1,0
4379,43.459,-2,-1,0
4380,43.469,-1,-2,0
4381,43.479,-2,-1,0
4382,43.489,-2,-1,0
4383,43.499,-2,-1,0
4384,43.509,-2,-1,0
4385,43.519,-2,-1,0
4386,43.529,-2,-1,0
4387,43.539,-2,-1,0
4388,43.549,-2,-1,0
4389,43.559,-2,-1,0
4390,43.569,-2,-1,0
4391,43.579,-2,-1,0
4392,43.589,-2,-1,0
4393,43.599,-2,-1,0
4394,43.609,-2,-1,0
4395,43.619,-2,-1,0
4396,43.629,-2,-1,0
4397,43.639,-2,-1,0
4398,43.649,-1,-1,0
4399,43.659,-2,-1,0
4400,43.669,-2,-1,0
4401,43.679,-2,-1,0
4402,43.689,-2,-1,0
4403,43.699,-2,-1,0
4404,43.709,-1,-1,0
4405,43.719,-1,-1,0
4406,43.729,-1,-1,0
4407,43.739,-2,-1,0
4408,43.749,-1,-1,0
4409,43.759,-2,-1,0
4410,43.769,-2,-1,0
4411,43.779,-2,-1,0
4412,43.789,-2,-1,0
4413,43.799,-2,-1,0
4414,43.809,-2,-1,0
4415,43.819,-2,-1,0
4416,43.829,-2,-1,0
4417,43.839,-2,-1,0
4418,43.849,-2,-1,0
4419,43.859,-2,-1,0
4420,43.869,-2,-1,0
4421,43.879,-2,-1,0
4422,43.889,-2,-1,0
4423,43.899,-1,-1,0
4424,43.909,-2,-1,0
4425,43.919,-2,-1,0
4426,43.929,-2,-1,0
4427,43.939,-1,-1,0
4428,43.949,-2,-1,0
4429,43.959,-2,-1,0
4430,43.969,-2,-1,0
4431,43.979,-2,-1,0
4432,43.989,-1,-1,0
4433,43.999,-2,-1,0
4434,44.009,-1,-1,0
4435,44.019,-1,-1,0
4436,44.029,-1,-1,0
4437,44.039,-2,-1,0
4438,44.049,-2,-1,0
4439,44.059,-2,-1,0
4440,44.069,-1,-1,0
4441,44.079,-1,-1,0
4442,44.089,-1,-1,0
4443,44.099,-1,-1,0
4444,44.109,-2,-1,0
4445,44.119,-2,-1,0
4446,44.129,-2,-1,0
4447,44.139,-2,-1,0
4448,44.149,-2,-1,0
4449,44.159,-2,-1,0
4450,44.169,-1,-1,0
4451,44.179,-1,-1,0
4452,44.189,-2,-1,0
4453,44.199,-2,-1,0
4454,44.209,-2,-1,0
4455,44.219,-1,-1,0
4456,44.229,-2,-1,0
4457,44.239,-2,-1,0
4458,44.249,-2,-1,0
4459,44.259,-2,-1,0
4460,44.269,-2,-1,0
4461,44.279,-1,-1,0
4462,44.289,-1,-1,0
4463,44.299,-2,-1,0
4464,44.309,-2,-1,0
4465,44.319,-1,-1,0
4466,44.329,-2,-1,0
4467,44.339,-1,-1,0
4468,44.349,-1,-1,0
4469,44.359,-2,-1,0
4470,44.369,-2,-1,0
4471,44.379,-2,-1,0
4472,44.389,-2,-1,0
4473,44.399,-2,-1,0
4474,44.409,-1,-1,0
4475,44.419,-2,-1,0
4476,44.429,-1,-1,0
4477,44.439,-1,-1,0
4478,44.449,-2,-1,0
4479,44.459,-2,-1,0
4480,44.469,-2,-1,0
4481,44.479,-2,-1,0
4482,44.489,-2,-1,0
4483,44.499,-1,-1,0
4484,44.509,-1,-1,0
4485,44.519,-1,-1,0
4486,44.529,-2,-1,0
4487,44.539,-1,-1,0
4488,44.549,-2,-1,0
4489,44.559,-2,-1,0
4490,44.569,-2,-1,0
4491,44.579,-1,-1,0
4492,44.589,-2,-1,0
4493,44.599,-2,-1,0
4494,44.609,-2,-1,0
4495,44.619,-1,-1,0
4496,44.629,-2,-1,0
4497,44.639,-2,-1,0
4498,44.649,-1,-1,0
4499,44.659,-2,-1,0
4500,44.669,-1,-1,0
4501,44.679,-2,-1,0
4502,44.689,-2,-1,0
4503,44.699,-2,-1,0
4504,44.709,-2,-1,0
4505,44.719,-2,-1,0
4506,44.729,-1,-1,0
4507,44.739,-2,-1,0
4508,44.749,-2,-1,0
4509,44.759,-1,-1,0
4510,44.769,-2,-1,0
4511,44.779,-2,-1,0
4512,44.789,-1,-1,0
4513,44.799,-1,-1,0
4514,44.809,-1,-1,0
4515,44.819,-2,-1,0
4516,44.829,-2,-1,0
4517,44.839,-2,-1,0
4518,44.849,-2,-1,0
4519,44.859,-2,-1,0
4520,44.869,-1,-1,0
4521,44.879,-2,-1,0
4522,44.889,-1,-1,0
4523,44.899,-2,-1,0
4524,44.909,-1,-1,0
4525,44.919,-2,-1,0
4526,44.929,-2,-1,0
4527,44.939,-1,-1,0
4528,44.949,-2,-1,0
4529,44.959,-1,-2,0
4530,44.969,-1,-1,0
4531,44.979,-2,-1,0
4532,44.989,-1,-1,0
4533,44.999,-2,-2,0
4534,45.009,-1,-1,0
4535,45.019,-1,-1,0
4536,45.029,-2,-2,0
4537,45.039,-2,-1,0
4538,45.049,-2,-1,0
4539,45.059,-2,-1,0
4540,45.069,-2,-2,0
4541,45.079,-1,-2,0
4542,45.089,-2,-1,0
4543,45.099,-2,-2,0
4544,45.109,-2,-1,0
4545,45.119,-1,-2,0
4546,45.129,-1,-1,0
4547,45.139,-2,-1,0
4548,45.149,-2,-2,0
4549,45.159,-2,-1,0
4550,45.169,-2,-1,0
4551,45.179,-1,-1,0
4552,45.189,-2,-1,0
4553,45.199,-1,-1,0
4554,45.209,-2,-1,0
4555,45.219,-1,-1,0
4556,45.229,-2,-1,0
4557,45.239,-2,-1,0
4558,45.249,-2,-1,0
4559,45.259,-2,-1,0
4560,45.269,-2,-1,0
4561,45.279,-2,-1,0
4562,45.289,-2,-1,0
4563,45.299,-1,-1,0
4564,45.309,-2,-1,0
4565,45.319,-2,-1,0
4566,45.329,-2,-1,0
4567,45.339,-1,-1,0
4568,45.349,-1,-1,0
4569,45.359,-1,-1,0
4570,45.369,-2,-1,0
4571,45.379,-1,-1,0
4572,45.389,-2,-1,0
4573,45.399,-1,-1,0
4574,45.409,-1,-1,0
4575,45.419,-1,-1,0
4576,45.429,-1,-1,0
4577,45.439,-1,-1,0
4578,45.449,-2,-1,0
4579,45.459,-2,-1,0
4580,45.469,-1,-1,0
4581,45.479,-1,-1,0
4582,45.489,-2,-1,0
4583,45.499,-2,-2,0
4584,45.509,-2,-1,0
4585,45.519,-2,-1,0
4586,45.529,-2,-1,0
4587,45.539,-2,-1,0
4588,45.549,-2,-1,0
4589,45.559,-2,-1,0
4590,45.569,-2,-1,0
4591,45.579,-1,-1,0
4592,45.589,-2,-1,0
4593,45.599,-1,-1,0
4594,45.609,-1,-1,0
4595,45.619,-1,-1,0
4596,45.629,-1,-1,0
4597,45.639,-1,-1,0
4598,45.649,-1,-1,0
4599,45.659,-2,-1,0
4600,45.669,-2,-1,0
4601,45.679,-2,-1,0
4602,45.689,-2,-2,0
4603,45.699,-2,-1,0
4604,45.709,-2,-1,0
4605,45.719,-2,-1,0
4606,45.729,-1,-1,0
4607,45.739,-2,-1,0
4608,45.749,-2,-1,0
4609,45.759,-1,-1,0
4610,45.769,-2,-1,0
4611,45.779,-2,-1,0
4612,45.789,-1,-1,0
4613,45.799,-1,-1,0
4614,45.809,-2,-1,0
4615,45.819,-1,-1,0
4616,45.829,-1,-1,0
4617,45.839,-1,-1,0
4618,45.849,-1,-1,0
4619,45.859,-2,-1,0
4620,45.869,-2,-1,0
4621,45.879,-2,-1,0
4622,45.889,-2,-1,0
4623,45.899,-1,-1,0
4624,45.909,-2,-2,0
4625,45.919,-2,-1,0
4626,45.929,-2,-1,0
4627,45.939,-2,-1,0
4628,45.949,-1,-1,0
4629,45.959,-2,-1,0
4630,45.969,-2,-2,0
4631,45.979,-2,-1,0
4632,45.989,-2,-1,0
4633,45.999,-1,-1,0
4634,46.009,-1,-1,0
4635,46.019,-1,-1,0
4636,46.029,-1,-1,0
4637,46.039,-2,-1,0
4638,46.049,-1,-1,0
4639,46.059,-1,-1,0
4640,46.069,-2,-1,0
4641,46.079,-1,-1,0
4642,46.089,-2,-1,0
4643,46.099,-1,-1,0
4644,46.109,-2,-1,0
4645,46.119,-1,-2,0
4646,46.129,-1,-1,0
4647,46.139,-2,-2,0
4648,46.149,-1,-1,0
4649,46.159,-1,-1,0
4650,46.169,-1,-1,0
4651,46.179,-1,-1,0
4652,46.189,-1,-1,0
4653,46.199,-1,-1,0
4654,46.209,-1,-1,0
4655,46.219,-2,-1,0
4656,46.229,-1,-1,0
4657,46.239,-2,-1,0
4658,46.249,-2,-1,0
4659,46.259,-1,-1,0
4660,46.269,-2,-1,0
4661,46.279,-1,-1,0
4662,46.289,-2,-1,0
4663,46.299,-2,-1,0
4664,46.309,-2,-1,0
4665,46.319,-2,-1,0
4666,46.329,-1,-2,0
4667,46.339,-2,-1,0
4668,46.349,-2,-1,0
4669,46.359,-2,-1,0
4670,46.369,-2,-1,0
4671,46.379,-2,-1,0
4672,46.389,-2,-1,0
4673,46.399,-2,-1,0
4674,46.409,-1,-1,0
4675,46.419,-2,-1,0
4676,46.429,-2,-1,0
4677,46.439,-1,-1,0
4678,46.449,-2,-1,0
4679,46.459,-2,-1,0
4680,46.469,-2,-1,0
4681,46.479,-2,-1,0
4682,46.489,-2,-1,0
4683,46.499,-2,-1,0
4684,46.509,-1,-1,0
4685,46.519,-2,-1,0
4686,46.529,-2,-1,0
4687,46.539,-2,-1,0
4688,46.549,-1,-1,0
4689,46.559,-2,-1,0
4690,46.569,-2,-1,0
4691,46.579,-2,-1,0
4692,46.589,-1,-1,0
4693,46.599,-2,-1,0
4694,46.609,-1,-1,0
4695,46.619,-2,-1,0
4696,46.629,-2,-1,0
4697,46.639,-2,-1,0
4698,46.649,-2,-1,0
4699,46.659,-1,-1,0
4700,46.669,-2,-1,0
4701,46.679,-2,-1,0
4702,46.689,-2,-1,0
4703,46.699,-2,-1,0
4704,46.709,-2,-1,0
4705,46.719,-1,-1,0
4706,46.729,-1,-1,0
4707,46.739,-2,-1,0
4708,46.749,-2,-1,0
4709,46.759,-1,-1,0
4710,46.769,-2,-1,0
4711,46.779,-2,-1,0
4712,46.789,-1,-1,0
4713,46.799,-1,-1,0
4714,46.809,-2,-1,0
4715,46.819,-2,-1,0
4716,46.829,-2,-1,0
4717,46.839,-1,-1,0
4718,46.849,-2,-1,0
4719,46.859,-2,-1,0
4720,46.869,-2,-1,0
4721,46.879,-2,-1,0
4722,46.889,-2,-1,0
4723,46.899,-1,-1,0
4724,46.909,-2,-1,0
4725,46.919,-2,-1,0
4726,46.929,-2,-1,0
4727,46.939,-2,-1,0
4728,46.949,-2,-1,0
4729,46.959,-2,-1,0
4730,46.969,-2,-1,0
4731,46.979,-2,-1,0
4732,46.989,-2,-1,0
4733,46.999,-2,-1,0
4734,47.009,-2,-1,0
4735,47.019,-2,-1,0
4736,47.029,-2,-1,0
4737,47.039,-2,-1,0
4738,47.049,-2,-1,0
4739,47.059,-2,-1,0
4740,47.069,-2,-1,0
4741,47.079,-2,-1,0
4742,47.089,-2,-1,0
4743,47.099,-2,-1,0
4744,47.109,-2,-1,0
4745,47.119,-2,-1,0
4746,47.129,-2,-1,0
4747,47.139,-2,-1,0
4748,47.149,-1,-1,0
4749,47.159,-1,-1,0
4750,47.169,-2,-1,0
4751,47.179,-2,-1,0
4752,47.189,-2,-1,0
4753,47.199,-2,-1,0
4754,47.209,-1,-1,0
4755,47.219,-2,-1,0
4756,47.229,-1,-1,0
4757,47.239,-1,-1,0
4758,47.249,-1,-1,0
4759,47.259,-2,-1,0
4760,47.269,-2,-1,0
4761,47.279,-2,-1,0
4762,47.289,-1,-1,0
4763,47.299,-2,-1,0
4764,47.309,-2,-1,0
4765,47.319,-1,-1,0
4766,47.329,-2,-1,0
4767,47.339,-2,-1,0
4768,47.349,-2,-1,0
4769,47.359,-2,-1,0
4770,47.369,-2,-1,0
4771,47.379,-1,-1,0
4772,47.389,-2,-1,0
4773,47.399,-2,-1,0
4774,47.409,-1,-1,0
4775,47.419,-1,-1,0
4776,47.429,-1,-1,0
4777,47.439,-1,-1,0
4778,47.449,-2,-1,0
4779,47.459,-2,-1,0
4780,47.469,-2,-1,0
4781,47.479,-2,-1,0
4782,47.489,-2,-1,0
4783,47.499,-2,-1,0
4784,47.509,-2,-1,0
4785,47.519,-1,-1,0
4786,47.529,-2,-1,0
4787,47.539,-2,-1,0
4788,47.549,-2,-1,0
4789,47.559,-2,-1,0
4790,47.569,-2,-1,0
4791,47.579,-2,-1,0
4792,47.589,-2,-1,0
4793,47.599,-2,-1,0
4794,47.609,-2,-1,0
4795,47.619,-2,-1,0
4796,47.629,-1,-1,0
4797,47.639,-1,-1,0
4798,47.649,-2,-1,0
4799,47.659,-1,-1,0
4800,47.669,-1,-1,0
4801,47.679,-2,-1,0
4802,47.689,-2,-1,0
4803,47.699,-2,-1,0
4804,47.709,-1,-1,0
4805,47.719,-2,-1,0
4806,47.729,-2,-1,0
4807,47.739,-2,-1,0
4808,47.749,-2,-1,0
4809,47.759,-2,-1,0
4810,47.769,-1,-1,0
4811,47.779,-1,-1,0
4812,47.789,-1,-1,0
4813,47.799,-2,-1,0
4814,47.809,-2,-1,0
4815,47.819,-2,-1,0
4816,47.829,-2,-1,0
4817,47.839,-2,-1,0
4818,47.849,-2,-1,0
4819,47.859,-2,-1,0
4820,47.869,-1,-2,0
4821,47.879,-1,-1,0
4822,47.889,-2,-1,0
4823,47.899,-2,-1,0
4824,47.909,-2,-1,0
4825,47.919,-1,-1,0
4826,47.929,-2,-1,0
4827,47.939,-2,-2,0
4828,47.949,-2,-1,0
4829,47.959,-2,-1,0
4830,47.969,-1,-1,0
4831,47.979,-2,-1,0
4832,47.989,-2,-1,0
4833,47.999,-1,-1,0
4834,48.009,-2,-1,0
4835,48.019,-2,-1,0
4836,48.029,-1,-1,0
4837,48.039,-2,-1,0
4838,48.049,-1,-1,0
4839,48.059,-2,-1,0
4840,48.069,-2,-1,0
4841,48.079,-1,-1,0
4842,48.089,-2,-1,0
4843,48.099,-1,-1,0
4844,48.109,-2,-1,0
4845,48.119,-1,-1,0
4846,48.129,-1,-1,0
4847,48.139,-2,-1,0
4848,48.149,-2,-1,0
4849,48.159,-2,-1,0
4850,48.169,-2,-1,0
4851,48.179,-1,-1,0
4852,48.189,-2,-1,0
4853,48.199,-2,-1,0
4854,48.209,-2,-1,0
4855,48.219,-2,-1,0
4856,48.229,-2,-1,0
4857,48.239,-2,-1,0
4858,48.249,-2,-1,0
4859,48.259,-2,-1,0
4860,48.269,-1,-1,0
4861,48.279,-2,-1,0
4862,48.289,-1,-1,0
4863,48.299,-1,-1,0
4864,48.309,-1,-1,0
4865,48.319,-1,-1,0
4866,48.329,-2,-1,0
4867,48.339,-1,-1,0
4868,48.349,-1,-1,0
4869,48.359,-1,-1,0
4870,48.369,-2,-1,0
4871,48.379,-2,-1,0
4872,48.389,-2,-1,0
4873,48.399,-2,-1,0
4874,48.409,-1,-1,0
4875,48.419,-2,-1,0
4876,48.429,-3,-1,0
4877,48.439,-2,-1,0
4878,48.449,-2,-1,0
4879,48.459,-2,-1,0
4880,48.469,-2,-1,0
4881,48.479,-3,-1,0
4882,48.489,-3,-1,0
4883,48.499,-2,-1,0
4884,48.509,-2,-1,0
4885,48.519,-2,-1,0
4886,48.529,-2,-1,0
4887,48.539,-2,-1,0
4888,48.549,-2,-1,0
4889,48.559,-2,-1,0
4890,48.569,-2,-1,0
4891,48.579,-3,-1,0
4892,48.589,-2,-1,0
4893,48.599,-3,-1,0
4894,48.609,-2,-1,0
4895,48.619,-2,-1,0
4896,48.629,-2,-1,0
4897,48.639,-2,-1,0
4898,48.649,-2,-1,0
4899,48.659,-2,-1,0
4900,48.669,-3,-1,0
4901,48.679,-2,-1,0
4902,48.689,-2,-1,0
4903,48.699,-3,-1,0
4904,48.709,-2,-1,0
4905,48.719,-2,-1,0
4906,48.729,-2,-1,0
4907,48.739,-2,-1,0
4908,48.749,-2,-1,0
4909,48.759,-2,-1,0
4910,48.769,-2,-1,0
4911,48.779,-2,-1,0
4912,48.789,-2,-1,0
4913,48.799,-2,-1,0
4914,48.809,-2,-1,0
4915,48.819,-2,-1,0
4916,48.829,-2,-1,0
4917,48.839,-2,-1,0
4918,48.849,-2,-1,0
4919,48.859,-2,-1,0
4920,48.869,-2,-1,0
4921,48.879,-2,-1,0
4922,48.889,-2,-1,0
4923,48.899,-2,-1,0
4924,48.909,-2,-1,0
4925,48.919,-2,-1,0
4926,48.929,-2,-1,0
4927,48.939,-2,-1,0
4928,48.949,-2,-1,0
4929,48.959,-2,-2,0
4930,48.969,-2,-2,0
4931,48.979,-2,-2,0
4932,48.989,-1,-3,0
4933,48.999,-2,-3,0
4934,49.009,-1,-4,0
4935,49.019,-1,-4,0
4936,49.029,-1,-4,0
4937,49.039,0,-5,0
4938,49.049,0,-4,0
4939,49.059,0,-3,0
4940,49.069,1,-3,0
4941,49.079,0,-3,0
4942,49.089,-1,-2,0
4943,49.099,-1,-1,0
4944,49.109,-1,-1,0
4945,49.119,-1,-1,0
4946,49.129,-1,-1,0
4947,49.139,-1,-1,0
4948,49.149,-1,-1,0
4949,49.159,-1,-1,0
4950,49.169,-1,-2,0
4951,49.179,-1,-3,0
4952,49.189,-4,-14,0
4953,49.199,-12,-16,0
4954,49.209,-3,-3,0
4955,49.219,-1,-1,0
4956,49.229,0,-2,0
4957,49.239,-1,-1,0
4958,49.249,0,-2,0
4959,49.259,1,-2,0
4960,49.269,1,-2,0
4961,49.279,2,-2,0
4962,49.289,2,-2,0
4963,49.299,1,-2,0
4964,49.309,0,-2,0
4965,49.319,0,-1,0
4966,49.329,-1,-1,0
4967,49.339,0,-1,0
4968,49.349,0,-2,0
4969,49.359,0,-2,0
4970,49.369,0,-1,0
4971,49.379,0,-1,0
4972,49.389,-1,-1,0
4973,49.399,-1,-1,0
4974,49.409,-2,-1,0
4975,49.419,-2,-1,0
4976,49.429,-1,-1,0
4977,49.439,0,-1,0
4978,49.449,0,-1,0
4979,49.459,0,-1,0
4980,49.469,0,-1,0
4981,49.479,0,-1,0
4982,49.489,0,-1,0
4983,49.499,0,-1,0
4984,49.509,-1,-1,0
4985,49.519,-1,-1,0
4986,49.529,-1,-1,0
4987,49.539,-1,-1,0
4988,49.549,-1,-1,0
4989,49.559,-1,-1,0
4990,49.569,-1,-1,0
4991,49.579,-1,-1,0
4992,49.589,-1,-1,0
4993,49.599,-1,-1,0
4994,49.609,-1,-1,0
4995,49.619,-1,-1,0
4996,49.629,-1,-2,0
4997,49.639,-1,-2,0
4998,49.649,0,-2,0
4999,49.659,0,-2,0
5000,49.669,0,-2,0
5001,49.679,0,-2,0
5002,49.689,0,-2,0
5003,49.699,-1,-1,0
5004,49.709,-1,-2,0
5005,49.719,-1,-2,0
5006,49.729,-1,-2,0
5007,49.739,0,-2,0
5008,49.749,0,-2,0
5009,49.759,-1,-1,0
5010,49.769,-1,-2,0
5011,49.779,-1,-2,0
5012,49.789,-1,-2,0
5013,49.799,-1,-2,0
5014,49.809,-1,-1,0
5015,49.819,0,-1,0
5016,49.829,-1,-2,0
5017,49.839,-1,-1,0
5018,49.849,-1,-2,0
5019,49.859,-1,-1,0
5020,49.869,-1,-1,0
5021,49.879,0,-1,0
5022,49.889,0,-2,0
5023,49.899,-1,-2,0
5024,49.909,0,-2,0
5025,49.919,-1,-1,0
5026,49.929,0,-2,0
5027,49.939,-1,-1,0
5028,49.949,-1,-2,0
5029,49.959,-1,-1,0
5030,49.969,-1,-2,0
5031,49.979,-1,-2,0
5032,49.989,0,-2,0
5033,49.999,0,-2,0
5034,50.009,-1,-2,0
5035,50.019,0,-2,0
5036,50.029,-1,-1,0
5037,50.039,-1,-2,0
5038,50.049,0,-2,0
5039,50.059,-1,-1,0
5040,50.069,0,-1,0
5041,50.079,-1,-1,0
5042,50.089,0,-2,0
5043,50.099,-1,-2,0
5044,50.109,-1,-1,0
5045,50.119,-1,-1,0
5046,50.129,-1,-2,0
5047,50.139,0,-2,0
5048,50.149,-1,-2,0
5049,50.159,-1,-2,0
5050,50.169,-1,-2,0
5051,50.179,-1,-2,0
5052,50.189,0,-2,0
5053,50.199,-1,-2,0
5054,50.209,-1,-1,0
5055,50.219,-1,-2,0
5056,50.229,-1,-1,0
5057,50.239,-1,-2,0
5058,50.249,-1,-2,0
5059,50.259,-1,-1,0
5060,50.269,-1,-1,0
5061,50.279,-1,-2,0
5062,50.289,-1,-2,0
5063,50.299,0,-1,0
5064,50.309,-1,-1,0
5065,50.319,0,-1,0
5066,50.329,0,-2,0
5067,50.339,-1,-1,0
5068,50.349,-1,-2,0
5069,50.359,0,-2,0
5070,50.369,-1,-2,0
5071,50.379,0,-1,0
5072,50.389,-1,-2,0
5073,50.399,-1,-1,0
5074,50.409,-1,-1,0
5075,50.419,-1,-1,0
5076,50.429,0,-1,0
5077,50.439,0,-2,0
5078,50.449,-1,-1,0
5079,50.459,-1,-2,0
5080,50.469,-1,-2,0
5081,50.479,-1,-2,0
5082,50.489,-1,-2,0
5083,50.499,0,-2,0
5084,50.509,-1,-1,0
5085,50.519,-1,-2,0
5086,50.529,-1,-2,0
5087,50.539,-1,-2,0
5088,50.549,-1,-2,0
5089,50.559,0,-1,0
5090,50.569,-1,-1,0
5091,50.579,-1,-1,0
5092,50.589,-1,-2,0
5093,50.599,0,-1,0
5094,50.609,-1,-2,0
5095,50.619,-1,-1,0
5096,50.629,-1,-1,0
5097,50.639,-1,-2,0
5098,50.649,0,-2,0
5099,50.659,0,-2,0
