,ts,id,Ax,Ay,Az,Gx,Gy,Gz
0,-0.371,IMU0,-0.0078125,0.9951171875,-0.04296875,0.5487804878048781,1.3414634146341464,0.24390243902439027
1,-0.371,IMU1,0.009765625,0.9990234375,-0.09375,-0.48780487804878053,0.9146341463414634,-0.1829268292682927
2,-0.361,IMU0,-0.0087890625,0.9970703125,-0.04296875,0.853658536585366,1.2804878048780488,0.24390243902439027
3,-0.361,IMU1,0.0087890625,1.0009765625,-0.09375,-0.48780487804878053,0.5487804878048781,-0.06097560975609757
4,-0.351,IMU0,-0.009765625,0.99609375,-0.04296875,0.853658536585366,1.3414634146341464,0.24390243902439027
5,-0.351,IMU1,0.009765625,1.0009765625,-0.09375,-0.3658536585365854,0.6097560975609757,-0.06097560975609757
6,-0.341,IMU0,-0.009765625,0.994140625,-0.0439453125,0.6707317073170732,1.4634146341463417,0.3658536585365854
7,-0.341,IMU1,0.0107421875,1.0,-0.09375,-0.426829268292683,1.1585365853658538,0.0
8,-0.331,IMU0,-0.0087890625,0.9951171875,-0.04296875,0.9146341463414634,1.2195121951219514,0.3658536585365854
9,-0.331,IMU1,0.01171875,1.0009765625,-0.0927734375,-0.3658536585365854,1.0365853658536586,0.0
10,-0.321,IMU0,-0.0068359375,0.9951171875,-0.0400390625,0.7317073170731708,1.2195121951219514,0.3658536585365854
11,-0.321,IMU1,0.0126953125,1.0009765625,-0.09375,-0.48780487804878053,0.7317073170731708,0.06097560975609757
12,-0.311,IMU0,-0.005859375,0.9951171875,-0.0400390625,0.853658536585366,1.0365853658536586,0.426829268292683
13,-0.311,IMU1,0.01171875,0.9990234375,-0.09375,-0.30487804878048785,0.426829268292683,0.06097560975609757
14,-0.301,IMU0,-0.005859375,0.9970703125,-0.0380859375,0.9146341463414634,1.1585365853658538,0.3658536585365854
15,-0.301,IMU1,0.01171875,1.0029296875,-0.08984375,-0.48780487804878053,0.7926829268292683,0.12195121951219513
16,-0.291,IMU0,-0.005859375,0.9951171875,-0.0390625,1.1585365853658538,0.9146341463414634,0.3658536585365854
17,-0.291,IMU1,0.013671875,1.0,-0.091796875,-0.3658536585365854,1.1585365853658538,0.12195121951219513
18,-0.281,IMU0,-0.0048828125,0.9990234375,-0.037109375,1.0365853658536586,1.2804878048780488,0.48780487804878053
19,-0.281,IMU1,0.0126953125,1.0029296875,-0.0908203125,-0.24390243902439027,0.9146341463414634,0.06097560975609757
20,-0.271,IMU0,-0.00390625,0.998046875,-0.0361328125,1.2804878048780488,1.2804878048780488,0.426829268292683
21,-0.271,IMU1,0.013671875,1.001953125,-0.08984375,-0.3658536585365854,1.524390243902439,0.12195121951219513
22,-0.261,IMU0,-0.00390625,1.025390625,-0.0400390625,1.4634146341463417,1.402439024390244,0.3658536585365854
23,-0.261,IMU1,0.013671875,1.0302734375,-0.09375,-0.3658536585365854,1.4634146341463417,0.06097560975609757
24,-0.251,IMU0,-0.001953125,0.9873046875,-0.0390625,1.5853658536585367,1.7682926829268295,0.3658536585365854
25,-0.251,IMU1,0.013671875,0.994140625,-0.08984375,-0.1829268292682927,1.5853658536585367,0.12195121951219513
26,-0.241,IMU0,-0.0009765625,0.9833984375,-0.0263671875,1.4634146341463417,1.707317073170732,0.30487804878048785
27,-0.241,IMU1,0.0146484375,0.9892578125,-0.0810546875,-0.12195121951219513,1.6463414634146343,0.06097560975609757
28,-0.231,IMU0,0.0048828125,1.009765625,-0.044921875,1.0975609756097562,1.0365853658536586,0.3658536585365854
29,-0.231,IMU1,0.0205078125,1.015625,-0.09375,-0.24390243902439027,0.853658536585366,0.06097560975609757
30,-0.221,IMU0,0.005859375,1.001953125,-0.0537109375,1.0975609756097562,-0.06097560975609757,0.426829268292683
31,-0.221,IMU1,0.0234375,1.0087890625,-0.099609375,-0.24390243902439027,-0.1829268292682927,0.12195121951219513
32,-0.211,IMU0,-0.00390625,0.982421875,-0.05859375,1.2804878048780488,-0.426829268292683,0.3658536585365854
33,-0.211,IMU1,0.0146484375,0.98828125,-0.1015625,-0.06097560975609757,-0.48780487804878053,-0.06097560975609757
34,-0.201,IMU0,0.0009765625,0.9892578125,-0.0634765625,1.2804878048780488,-0.6097560975609757,0.24390243902439027
35,-0.201,IMU1,0.01953125,0.994140625,-0.109375,-0.1829268292682927,-0.6707317073170732,-0.06097560975609757
36,-0.191,IMU0,0.0068359375,1.0107421875,-0.064453125,1.2195121951219514,-0.3658536585365854,0.3658536585365854
37,-0.191,IMU1,0.025390625,1.015625,-0.1083984375,-0.1829268292682927,-0.3658536585365854,0.06097560975609757
38,-0.181,IMU0,-0.0029296875,0.99609375,-0.068359375,1.3414634146341464,-0.12195121951219513,0.30487804878048785
39,-0.181,IMU1,0.0146484375,1.0029296875,-0.11328125,0.12195121951219513,-0.24390243902439027,0.0
40,-0.171,IMU0,0.001953125,0.9794921875,-0.0625,1.3414634146341464,0.06097560975609757,0.30487804878048785
41,-0.171,IMU1,0.01953125,0.984375,-0.1083984375,-0.06097560975609757,0.0,0.0
42,-0.161,IMU0,0.00390625,0.9970703125,-0.0673828125,1.2195121951219514,0.06097560975609757,0.30487804878048785
43,-0.161,IMU1,0.0224609375,1.001953125,-0.1123046875,-0.12195121951219513,0.0,0.0
44,-0.151,IMU0,0.005859375,1.0126953125,-0.0654296875,1.402439024390244,0.0,0.30487804878048785
45,-0.151,IMU1,0.0244140625,1.0166015625,-0.109375,0.0,-0.12195121951219513,0.0
46,-0.141,IMU0,0.001953125,0.9912109375,-0.0673828125,1.2195121951219514,0.0,0.1829268292682927
47,-0.141,IMU1,0.0185546875,0.99609375,-0.1123046875,-0.06097560975609757,-0.12195121951219513,-0.12195121951219513
48,-0.131,IMU0,0.005859375,1.0390625,-0.0732421875,0.9146341463414634,0.426829268292683,0.06097560975609757
49,-0.131,IMU1,0.0244140625,1.0390625,-0.12109375,-0.12195121951219513,0.06097560975609757,-0.30487804878048785
50,-0.121,IMU0,0.1640625,2.9326171875,-0.16796875,4.2682926829268295,0.426829268292683,-0.5487804878048781
51,-0.121,IMU1,0.19140625,2.9091796875,-0.2236328125,2.5609756097560976,0.6097560975609757,-0.7317073170731708
52,-0.111,IMU0,0.013671875,7.0556640625,-0.1484375,-5.060975609756098,1.9512195121951221,-2.378048780487805
53,-0.111,IMU1,0.05859375,7.0498046875,-0.21484375,-6.097560975609756,1.0975609756097562,-2.5
54,-0.101,IMU0,-0.392578125,12.5068359375,-0.25,5.2439024390243905,-3.414634146341464,0.6097560975609757
55,-0.101,IMU1,-0.3203125,12.46484375,-0.3408203125,3.536585365853659,-2.8658536585365857,0.24390243902439027
56,-0.091,IMU0,-0.091796875,15.951171875,-0.169921875,-0.853658536585366,-6.219512195121951,0.5487804878048781
57,-0.091,IMU1,-0.013671875,15.9755859375,-0.2841796875,-2.378048780487805,-5.853658536585367,0.426829268292683
58,-0.081,IMU0,-0.125,17.0576171875,-0.4365234375,2.7439024390243905,-6.829268292682928,2.804878048780488
59,-0.081,IMU1,-0.041015625,17.1025390625,-0.5625,2.5609756097560976,-6.158536585365854,2.1951219512195124
60,-0.071,IMU0,-0.1787109375,17.8056640625,-0.4794921875,1.5853658536585367,-0.12195121951219513,1.829268292682927
61,-0.071,IMU1,-0.0634765625,17.9638671875,-0.6396484375,1.402439024390244,1.1585365853658538,1.2804878048780488
62,-0.061,IMU0,-0.0390625,18.0615234375,-0.208984375,1.5853658536585367,-1.829268292682927,2.682926829268293
63,-0.061,IMU1,0.0771484375,18.30859375,-0.388671875,0.1829268292682927,-1.402439024390244,2.439024390243903
64,-0.051,IMU0,0.0185546875,18.654296875,-0.2744140625,0.9146341463414634,-9.207317073170733,3.536585365853659
65,-0.051,IMU1,0.1201171875,18.8056640625,-0.4404296875,-0.3658536585365854,-8.78048780487805,3.414634146341464
66,-0.041,IMU0,-0.1083984375,19.0517578125,-0.3271484375,2.378048780487805,-17.012195121951223,2.987804878048781
67,-0.041,IMU1,-0.0087890625,19.1455078125,-0.4697265625,0.9756097560975611,-16.463414634146343,2.9268292682926833
68,-0.031,IMU0,-0.15625,19.185546875,-0.353515625,4.024390243902439,-19.573170731707318,1.8902439024390245
69,-0.031,IMU1,-0.052734375,19.259765625,-0.484375,2.6219512195121952,-19.695121951219512,1.8902439024390245
70,-0.021,IMU0,-0.162109375,19.216796875,-0.3720703125,4.817073170731708,-12.621951219512196,1.829268292682927
71,-0.021,IMU1,-0.060546875,19.27734375,-0.4951171875,3.414634146341464,-12.134146341463415,1.7682926829268295
72,-0.011,IMU0,-0.0439453125,19.1591796875,-0.2001953125,2.6219512195121952,-7.987804878048781,3.5975609756097566
73,-0.011,IMU1,0.0498046875,19.21484375,-0.3251953125,1.402439024390244,-8.414634146341465,3.353658536585366
74,-0.001,IMU0,-0.1708984375,19.1142578125,-0.302734375,3.9024390243902443,-12.256097560975611,3.536585365853659
75,-0.001,IMU1,-0.0712890625,19.1669921875,-0.4228515625,3.4756097560975614,-12.926829268292684,3.231707317073171
76,0.009,IMU0,-0.1669921875,19.0712890625,-0.361328125,6.463414634146342,-8.841463414634147,3.1097560975609757
77,0.009,IMU1,-0.060546875,19.1181640625,-0.48046875,5.426829268292684,-9.329268292682928,2.8658536585365857
78,0.019,IMU0,-0.0048828125,18.978515625,-0.177734375,5.121951219512195,-9.878048780487806,4.024390243902439
79,0.019,IMU1,0.091796875,19.0283203125,-0.322265625,3.2926829268292686,-10.182926829268293,3.963414634146342
80,0.029,IMU0,0.0078125,18.87109375,-0.181640625,1.8902439024390245,-9.51219512195122,5.914634146341464
81,0.029,IMU1,0.091796875,18.921875,-0.318359375,0.24390243902439027,-9.756097560975611,5.853658536585367
82,0.039,IMU0,-0.083984375,18.814453125,-0.2939453125,8.353658536585366,-11.097560975609756,6.219512195121951
83,0.039,IMU1,0.0048828125,18.8642578125,-0.4140625,7.195121951219513,-11.28048780487805,6.036585365853659
84,0.049,IMU0,-0.1162109375,18.78125,-0.2265625,9.085365853658537,-11.585365853658537,4.695121951219512
85,0.049,IMU1,-0.015625,18.8271484375,-0.353515625,7.621951219512196,-11.707317073170733,4.51219512195122
86,0.059,IMU0,-0.0419921875,18.6806640625,-0.181640625,8.78048780487805,-12.682926829268293,5.060975609756098
87,0.059,IMU1,0.0576171875,18.728515625,-0.3095703125,7.378048780487806,-12.80487804878049,5.0
88,0.069,IMU0,-0.0234375,18.595703125,-0.140625,7.987804878048781,-13.963414634146343,5.548780487804878
89,0.069,IMU1,0.0693359375,18.642578125,-0.271484375,6.52439024390244,-13.902439024390246,5.487804878048781
90,0.079,IMU0,-0.017578125,18.5244140625,-0.17578125,8.658536585365855,-14.390243902439027,5.731707317073171
91,0.079,IMU1,0.0732421875,18.5751953125,-0.3056640625,7.378048780487806,-14.146341463414636,5.731707317073171
92,0.089,IMU0,-0.0205078125,18.490234375,-0.2080078125,10.426829268292684,-15.243902439024392,5.731707317073171
93,0.089,IMU1,0.0693359375,18.541015625,-0.330078125,9.02439024390244,-15.243902439024392,5.7926829268292686
94,0.099,IMU0,-0.0263671875,18.4765625,-0.1572265625,11.219512195121952,-15.975609756097562,5.487804878048781
95,0.099,IMU1,0.0654296875,18.5263671875,-0.2705078125,9.695121951219512,-15.79268292682927,5.548780487804878
96,0.109,IMU0,-0.021484375,18.44921875,-0.1044921875,10.792682926829269,-15.79268292682927,5.3048780487804885
97,0.109,IMU1,0.072265625,18.494140625,-0.23046875,9.390243902439025,-15.670731707317074,5.2439024390243905
98,0.119,IMU0,-0.005859375,18.44140625,-0.1376953125,10.975609756097562,-15.243902439024392,5.365853658536586
99,0.119,IMU1,0.0869140625,18.4873046875,-0.263671875,9.634146341463415,-15.487804878048783,5.3048780487804885
100,0.129,IMU0,-0.0068359375,18.44140625,-0.1591796875,12.073170731707318,-15.426829268292684,5.365853658536586
101,0.129,IMU1,0.083984375,18.48828125,-0.2802734375,10.670731707317074,-15.426829268292684,5.3048780487804885
102,0.139,IMU0,-0.0126953125,18.439453125,-0.119140625,12.682926829268293,-14.817073170731708,5.2439024390243905
103,0.139,IMU1,0.0810546875,18.486328125,-0.2392578125,11.097560975609756,-14.756097560975611,5.182926829268293
104,0.149,IMU0,-0.0009765625,18.4794921875,-0.095703125,12.74390243902439,-14.146341463414636,5.060975609756098
105,0.149,IMU1,0.09375,18.5244140625,-0.21875,11.341463414634147,-14.207317073170733,5.0
106,0.159,IMU0,0.01171875,18.533203125,-0.09375,13.109756097560977,-13.536585365853659,4.939024390243903
107,0.159,IMU1,0.1044921875,18.5810546875,-0.216796875,11.76829268292683,-13.719512195121952,4.878048780487806
108,0.169,IMU0,0.025390625,18.57421875,-0.0771484375,13.475609756097562,-12.74390243902439,4.817073170731708
109,0.169,IMU1,0.1162109375,18.619140625,-0.1962890625,12.195121951219512,-12.80487804878049,4.695121951219512
110,0.179,IMU0,0.029296875,18.650390625,-0.0458984375,13.109756097560977,-12.01219512195122,4.878048780487806
111,0.179,IMU1,0.1201171875,18.6962890625,-0.169921875,12.134146341463415,-12.134146341463415,4.573170731707317
112,0.189,IMU0,0.021484375,18.7158203125,-0.05078125,13.109756097560977,-11.219512195121952,4.51219512195122
113,0.189,IMU1,0.1123046875,18.7607421875,-0.1767578125,11.829268292682928,-11.28048780487805,4.2682926829268295
114,0.199,IMU0,0.0166015625,18.7900390625,-0.072265625,13.78048780487805,-10.670731707317074,4.024390243902439
115,0.199,IMU1,0.107421875,18.8369140625,-0.193359375,12.439024390243903,-10.670731707317074,3.8414634146341466
116,0.209,IMU0,0.0107421875,18.8388671875,-0.0087890625,13.78048780487805,-9.573170731707318,3.4756097560975614
117,0.209,IMU1,0.1083984375,18.880859375,-0.146484375,12.621951219512196,-9.634146341463415,3.353658536585366
118,0.219,IMU0,0.01171875,18.8642578125,0.0439453125,12.560975609756099,-8.292682926829269,2.7439024390243905
119,0.219,IMU1,0.1064453125,18.908203125,-0.087890625,11.402439024390246,-8.414634146341465,2.6219512195121952
120,0.229,IMU0,0.0244140625,18.85546875,0.0302734375,12.073170731707318,-7.01219512195122,2.378048780487805
121,0.229,IMU1,0.119140625,18.908203125,-0.0810546875,10.487804878048781,-6.890243902439025,2.1341463414634148
122,0.239,IMU0,0.029296875,18.8173828125,0.0205078125,12.073170731707318,-6.7682926829268295,2.0121951219512195
123,0.239,IMU1,0.12109375,18.8681640625,-0.099609375,10.365853658536587,-6.646341463414635,1.829268292682927
124,0.249,IMU0,0.03515625,18.8115234375,0.041015625,11.646341463414634,-6.2804878048780495,1.8902439024390245
125,0.249,IMU1,0.1328125,18.859375,-0.0859375,10.121951219512196,-6.2804878048780495,1.6463414634146343
126,0.259,IMU0,0.0341796875,18.8125,0.103515625,10.548780487804878,-5.182926829268293,1.6463414634146343
127,0.259,IMU1,0.1337890625,18.853515625,-0.025390625,9.26829268292683,-5.182926829268293,1.4634146341463417
128,0.269,IMU0,0.04296875,18.794921875,0.1416015625,9.146341463414634,-3.8414634146341466,1.2804878048780488
129,0.269,IMU1,0.138671875,18.8330078125,0.0185546875,7.865853658536586,-4.024390243902439,1.0365853658536586
130,0.279,IMU0,0.078125,18.7578125,0.16015625,8.109756097560977,-2.682926829268293,1.2195121951219514
131,0.279,IMU1,0.1689453125,18.8037109375,0.04296875,6.52439024390244,-2.6219512195121952,0.9756097560975611
132,0.289,IMU0,0.099609375,18.74609375,0.1787109375,6.890243902439025,-2.073170731707317,1.5853658536585367
133,0.289,IMU1,0.193359375,18.78515625,0.0576171875,5.3048780487804885,-2.0121951219512195,1.3414634146341464
134,0.299,IMU0,0.0888671875,18.6787109375,0.2216796875,5.182926829268293,-1.2195121951219514,2.25609756097561
135,0.299,IMU1,0.1796875,18.728515625,0.0966796875,3.780487804878049,-1.3414634146341464,1.9512195121951221
136,0.309,IMU0,0.1220703125,18.5947265625,0.232421875,3.048780487804878,-0.1829268292682927,3.1097560975609757
137,0.309,IMU1,0.2080078125,18.6328125,0.111328125,1.5853658536585367,-0.24390243902439027,2.804878048780488
138,0.319,IMU0,0.123046875,18.580078125,0.2470703125,0.9756097560975611,1.2195121951219514,4.329268292682928
139,0.319,IMU1,0.21875,18.61328125,0.1181640625,-0.24390243902439027,1.0975609756097562,3.963414634146342
140,0.329,IMU0,0.0859375,18.5400390625,0.2802734375,-1.6463414634146343,2.3170731707317076,5.182926829268293
141,0.329,IMU1,0.1806640625,18.5791015625,0.1484375,-2.987804878048781,2.378048780487805,4.878048780487806
142,0.339,IMU0,0.080078125,18.478515625,0.26171875,-4.146341463414634,4.024390243902439,6.097560975609756
143,0.339,IMU1,0.1669921875,18.5244140625,0.150390625,-5.487804878048781,4.024390243902439,5.670731707317073
144,0.349,IMU0,0.08203125,18.4189453125,0.2236328125,-6.097560975609756,5.3048780487804885,7.195121951219513
145,0.349,IMU1,0.169921875,18.455078125,0.1044921875,-7.621951219512196,5.365853658536586,6.829268292682928
146,0.359,IMU0,0.03515625,18.3173828125,0.23046875,-8.048780487804878,6.097560975609756,8.048780487804878
147,0.359,IMU1,0.130859375,18.35546875,0.109375,-9.451219512195122,6.341463414634147,7.621951219512196
148,0.369,IMU0,0.0078125,18.2509765625,0.212890625,-10.30487804878049,6.890243902439025,8.048780487804878
149,0.369,IMU1,0.099609375,18.314453125,0.0966796875,-11.76829268292683,7.134146341463415,7.621951219512196
150,0.379,IMU0,0.0263671875,18.2236328125,0.171875,-12.378048780487806,6.829268292682928,8.597560975609756
151,0.379,IMU1,0.1181640625,18.26171875,0.0517578125,-13.963414634146343,7.01219512195122,8.170731707317074
152,0.389,IMU0,-0.025390625,18.16015625,0.15234375,-14.26829268292683,6.341463414634147,9.207317073170733
153,0.389,IMU1,0.072265625,18.19921875,0.0322265625,-15.914634146341465,6.585365853658537,8.902439024390244
154,0.399,IMU0,-0.0537109375,18.140625,0.16015625,-16.70731707317073,5.975609756097562,9.26829268292683
155,0.399,IMU1,0.0283203125,18.19140625,0.03125,-18.231707317073173,6.158536585365854,8.902439024390244
156,0.409,IMU0,-0.0068359375,18.0732421875,0.126953125,-19.02439024390244,4.695121951219512,10.121951219512196
157,0.409,IMU1,0.0703125,18.1181640625,0.0068359375,-20.54878048780488,4.634146341463415,9.51219512195122
158,0.419,IMU0,-0.01953125,18.01171875,0.0888671875,-20.670731707317074,2.1341463414634148,11.158536585365855
159,0.419,IMU1,0.0693359375,18.0537109375,-0.037109375,-22.134146341463417,2.0121951219512195,10.548780487804878
160,0.429,IMU0,-0.060546875,17.962890625,0.0673828125,-22.25609756097561,-0.7926829268292683,11.463414634146343
161,0.429,IMU1,0.0341796875,18.0009765625,-0.0546875,-23.84146341463415,-0.6707317073170732,11.097560975609756
162,0.439,IMU0,-0.09765625,17.9072265625,0.0146484375,-23.475609756097562,-4.634146341463415,11.463414634146343
163,0.439,IMU1,-0.00390625,17.94921875,-0.099609375,-25.0609756097561,-4.573170731707317,11.158536585365855
164,0.449,IMU0,-0.1005859375,17.8359375,-0.0400390625,-23.53658536585366,-9.146341463414634,11.341463414634147
165,0.449,IMU1,-0.0146484375,17.8779296875,-0.1650390625,-25.000000000000004,-9.207317073170733,10.975609756097562
166,0.459,IMU0,-0.0810546875,17.728515625,-0.0302734375,-24.451219512195124,-13.963414634146343,11.52439024390244
167,0.459,IMU1,0.0009765625,17.765625,-0.1630859375,-25.853658536585368,-14.146341463414636,11.219512195121952
168,0.469,IMU0,-0.107421875,17.5927734375,-0.0634765625,-26.158536585365855,-18.597560975609756,12.073170731707318
169,0.469,IMU1,-0.0146484375,17.626953125,-0.185546875,-27.621951219512198,-18.902439024390244,11.76829268292683
170,0.479,IMU0,-0.17578125,17.4443359375,-0.13671875,-26.89024390243903,-23.78048780487805,11.951219512195124
171,0.479,IMU1,-0.0791015625,17.4814453125,-0.24609375,-28.53658536585366,-23.963414634146343,11.890243902439025
172,0.489,IMU0,-0.24609375,17.5927734375,-0.21875,-26.58536585365854,-28.902439024390247,11.097560975609756
173,0.489,IMU1,-0.1630859375,17.6650390625,-0.33984375,-28.292682926829272,-29.146341463414636,11.036585365853659
174,0.499,IMU0,-0.185546875,17.6123046875,-0.2080078125,-26.89024390243903,-33.90243902439025,11.158536585365855
175,0.499,IMU1,-0.109375,17.654296875,-0.3447265625,-28.170731707317074,-34.268292682926834,10.914634146341465
176,0.509,IMU0,-0.220703125,17.3037109375,-0.2607421875,-28.963414634146343,-37.31707317073171,11.585365853658537
177,0.509,IMU1,-0.1328125,17.3193359375,-0.3837890625,-30.30487804878049,-37.6829268292683,11.402439024390246
178,0.519,IMU0,-0.29296875,16.6396484375,-0.375,-29.81707317073171,-41.34146341463415,10.853658536585368
179,0.519,IMU1,-0.20703125,16.650390625,-0.486328125,-31.280487804878053,-41.82926829268293,10.792682926829269
180,0.529,IMU0,-0.2998046875,15.7705078125,-0.4443359375,-29.81707317073171,-46.15853658536586,9.939024390243903
181,0.529,IMU1,-0.2236328125,15.7626953125,-0.5634765625,-31.09756097560976,-46.707317073170735,9.878048780487806
182,0.539,IMU0,-0.2998046875,14.8662109375,-0.46875,-30.54878048780488,-51.585365853658544,9.26829268292683
183,0.539,IMU1,-0.2216796875,14.86328125,-0.5908203125,-32.07317073170732,-51.463414634146346,9.329268292682928
184,0.549,IMU0,-0.349609375,13.986328125,-0.53515625,-30.731707317073173,-57.31707317073171,8.353658536585366
185,0.549,IMU1,-0.2724609375,13.986328125,-0.6376953125,-32.5609756097561,-57.43902439024391,8.658536585365855
186,0.559,IMU0,-0.3681640625,13.171875,-0.6279296875,-29.39024390243903,-63.84146341463415,7.378048780487806
187,0.559,IMU1,-0.2978515625,13.1728515625,-0.7373046875,-30.914634146341466,-64.26829268292684,7.560975609756098
188,0.569,IMU0,-0.3994140625,12.6826171875,-0.66796875,-28.353658536585368,-70.48780487804879,5.548780487804878
189,0.569,IMU1,-0.3134765625,12.921875,-0.7626953125,-29.75609756097561,-70.42682926829269,5.853658536585367
190,0.579,IMU0,-0.3857421875,12.03125,-0.65625,-25.182926829268293,-77.07317073170732,5.914634146341464
191,0.579,IMU1,-0.330078125,12.0693359375,-0.7333984375,-25.426829268292686,-77.19512195121952,6.036585365853659
192,0.589,IMU0,-0.35546875,10.7666015625,-0.7890625,-22.98780487804878,-84.08536585365854,6.2804878048780495
193,0.589,IMU1,-0.2890625,10.7470703125,-0.853515625,-23.658536585365855,-84.32926829268294,6.646341463414635
194,0.599,IMU0,-0.42578125,9.7041015625,-0.794921875,-18.963414634146343,-91.76829268292684,4.2682926829268295
195,0.599,IMU1,-0.3681640625,9.6845703125,-0.88671875,-20.30487804878049,-92.07317073170732,5.0
196,0.609,IMU0,-0.400390625,8.8740234375,-0.79296875,-15.182926829268293,-99.45121951219512,3.536585365853659
197,0.609,IMU1,-0.3515625,8.8662109375,-0.880859375,-16.646341463414636,-99.93902439024392,4.2682926829268295
198,0.619,IMU0,-0.4287109375,8.3203125,-0.779296875,-11.890243902439025,-107.01219512195122,2.8658536585365857
199,0.619,IMU1,-0.3779296875,8.32421875,-0.8701171875,-13.170731707317074,-107.25609756097562,3.7195121951219514
200,0.629,IMU0,-0.4404296875,7.9248046875,-0.78125,-8.414634146341465,-113.90243902439025,1.7682926829268295
201,0.629,IMU1,-0.390625,7.9345703125,-0.865234375,-10.0,-114.08536585365854,2.804878048780488
202,0.639,IMU0,-0.4306640625,7.6123046875,-0.7861328125,-4.75609756097561,-120.60975609756099,1.0365853658536586
203,0.639,IMU1,-0.384765625,7.6171875,-0.8671875,-6.463414634146342,-120.73170731707319,2.1341463414634148
204,0.649,IMU0,-0.4736328125,7.177734375,-0.8388671875,-2.1951219512195124,-126.03658536585367,-0.12195121951219513
205,0.649,IMU1,-0.4482421875,7.0205078125,-0.908203125,-3.353658536585366,-126.09756097560977,1.0365853658536586
206,0.659,IMU0,0.4384765625,9.962890625,-1.7197265625,-1.524390243902439,-130.0609756097561,0.6097560975609757
207,0.659,IMU1,0.486328125,9.5458984375,-1.5751953125,-4.085365853658537,-130.2439024390244,3.4756097560975614
208,0.669,IMU0,-0.6708984375,8.8662109375,-3.14453125,11.28048780487805,-130.1219512195122,1.9512195121951221
209,0.669,IMU1,-0.78515625,8.08984375,-1.9833984375,-0.6097560975609757,-132.5,-7.682926829268293
210,0.679,IMU0,-0.3828125,7.8564453125,-2.265625,28.04878048780488,-141.76829268292684,1.829268292682927
211,0.679,IMU1,-0.384765625,7.423828125,-1.6923828125,22.5609756097561,-144.14634146341464,-0.06097560975609757
212,0.689,IMU0,-0.3427734375,6.7607421875,-1.5361328125,5.975609756097562,-143.84146341463415,-5.365853658536586
213,0.689,IMU1,-0.375,6.572265625,-1.20703125,2.1341463414634148,-145.7317073170732,-6.219512195121951
214,0.699,IMU0,-0.568359375,6.0419921875,-0.9404296875,19.32926829268293,-152.01219512195124,-0.24390243902439027
215,0.699,IMU1,-0.517578125,5.9189453125,-0.857421875,17.073170731707318,-153.53658536585368,0.48780487804878053
216,0.709,IMU0,-0.4267578125,5.3876953125,-0.892578125,10.853658536585368,-153.65853658536588,-6.402439024390245
217,0.709,IMU1,-0.41796875,5.337890625,-0.841796875,8.109756097560977,-154.20731707317074,-5.548780487804878
218,0.719,IMU0,-0.4443359375,5.0400390625,-0.7275390625,16.82926829268293,-158.71951219512198,-3.2926829268292686
219,0.719,IMU1,-0.4013671875,5.013671875,-0.759765625,14.695121951219514,-158.96341463414635,-1.707317073170732
220,0.729,IMU0,-0.45703125,4.8681640625,-0.5048828125,14.085365853658537,-160.1219512195122,-7.195121951219513
221,0.729,IMU1,-0.4296875,4.865234375,-0.548828125,11.097560975609756,-159.39024390243904,-5.731707317073171
222,0.739,IMU0,-0.388671875,4.703125,-0.5087890625,15.54878048780488,-163.2926829268293,-6.2804878048780495
223,0.739,IMU1,-0.3525390625,4.705078125,-0.5556640625,12.987804878048781,-162.8658536585366,-4.390243902439025
224,0.749,IMU0,-0.400390625,4.62890625,-0.361328125,15.670731707317074,-167.07317073170734,-7.500000000000001
225,0.749,IMU1,-0.36328125,4.634765625,-0.4248046875,13.231707317073171,-166.89024390243904,-5.731707317073171
226,0.759,IMU0,-0.3056640625,4.544921875,-0.3115234375,14.51219512195122,-169.87804878048783,-7.500000000000001
227,0.759,IMU1,-0.26953125,4.5537109375,-0.3720703125,12.500000000000002,-169.51219512195124,-5.609756097560976
228,0.769,IMU0,-0.306640625,4.494140625,-0.248046875,13.353658536585368,-172.8658536585366,-7.01219512195122
229,0.769,IMU1,-0.2705078125,4.5029296875,-0.3095703125,11.402439024390246,-172.7439024390244,-5.3048780487804885
230,0.779,IMU0,-0.275390625,4.4208984375,-0.19921875,11.76829268292683,-175.7926829268293,-6.829268292682928
231,0.779,IMU1,-0.23828125,4.4404296875,-0.2666015625,9.756097560975611,-175.3658536585366,-4.878048780487806
232,0.789,IMU0,-0.26171875,4.38671875,-0.1826171875,10.548780487804878,-179.20731707317074,-6.219512195121951
233,0.789,IMU1,-0.228515625,4.4052734375,-0.25,8.963414634146343,-179.39024390243904,-4.390243902439025
234,0.799,IMU0,-0.224609375,4.3701171875,-0.1083984375,8.475609756097562,-181.95121951219514,-5.670731707317073
235,0.799,IMU1,-0.1953125,4.384765625,-0.171875,6.890243902439025,-182.13414634146343,-3.8414634146341466
236,0.809,IMU0,-0.212890625,4.3251953125,-0.0576171875,6.585365853658537,-184.63414634146343,-5.2439024390243905
237,0.809,IMU1,-0.1796875,4.33984375,-0.1318359375,4.329268292682928,-183.96341463414635,-3.2926829268292686
238,0.819,IMU0,-0.177734375,4.2509765625,-0.0283203125,4.51219512195122,-187.13414634146343,-4.024390243902439
239,0.819,IMU1,-0.1484375,4.259765625,-0.0986328125,2.1341463414634148,-186.15853658536588,-2.0121951219512195
240,0.829,IMU0,-0.19921875,4.1865234375,-0.037109375,2.3170731707317076,-190.1219512195122,-2.7439024390243905
241,0.829,IMU1,-0.1630859375,4.2041015625,-0.095703125,0.48780487804878053,-189.32926829268294,-0.9146341463414634
242,0.839,IMU0,-0.1787109375,4.1142578125,-0.02734375,0.12195121951219513,-193.2317073170732,-1.1585365853658538
243,0.839,IMU1,-0.150390625,4.1328125,-0.076171875,-1.5853658536585367,-192.8048780487805,0.7926829268292683
244,0.849,IMU0,-0.1806640625,4.0712890625,0.0009765625,-2.682926829268293,-195.5487804878049,0.1829268292682927
245,0.849,IMU1,-0.1513671875,4.0869140625,-0.0595703125,-4.75609756097561,-195.06097560975613,2.073170731707317
246,0.859,IMU0,-0.1669921875,4.005859375,-0.021484375,-5.3048780487804885,-197.62195121951223,2.0121951219512195
247,0.859,IMU1,-0.1337890625,4.021484375,-0.080078125,-7.621951219512196,-197.56097560975613,4.085365853658537
248,0.869,IMU0,-0.1884765625,3.9599609375,-0.0361328125,-6.7682926829268295,-200.4268292682927,3.780487804878049
249,0.869,IMU1,-0.158203125,3.982421875,-0.0849609375,-9.207317073170733,-200.5487804878049,5.914634146341464
250,0.879,IMU0,-0.19921875,3.916015625,-0.015625,-9.02439024390244,-202.13414634146343,4.817073170731708
251,0.879,IMU1,-0.1650390625,3.9296875,-0.0732421875,-11.219512195121952,-202.31707317073173,6.951219512195123
252,0.889,IMU0,-0.169921875,3.853515625,-0.0673828125,-10.853658536585368,-203.84146341463418,6.097560975609756
253,0.889,IMU1,-0.1376953125,3.8583984375,-0.12890625,-12.987804878048781,-203.84146341463418,8.109756097560977
254,0.899,IMU0,-0.1650390625,3.8037109375,-0.0986328125,-12.439024390243903,-205.5487804878049,7.743902439024391
255,0.899,IMU1,-0.134765625,3.8115234375,-0.162109375,-15.060975609756099,-205.5487804878049,9.756097560975611
256,0.909,IMU0,-0.19921875,3.7666015625,-0.130859375,-13.719512195121952,-207.37804878048783,9.329268292682928
257,0.909,IMU1,-0.166015625,3.775390625,-0.1943359375,-16.82926829268293,-207.13414634146343,11.646341463414634
258,0.919,IMU0,-0.2099609375,3.720703125,-0.1787109375,-14.756097560975611,-208.96341463414635,10.182926829268293
259,0.919,IMU1,-0.177734375,3.7314453125,-0.2431640625,-17.682926829268293,-208.71951219512198,12.439024390243903
260,0.929,IMU0,-0.21875,3.66796875,-0.205078125,-15.182926829268293,-210.5487804878049,11.829268292682928
261,0.929,IMU1,-0.1865234375,3.677734375,-0.2626953125,-18.29268292682927,-209.93902439024393,14.085365853658537
262,0.939,IMU0,-0.2294921875,3.6005859375,-0.2451171875,-15.487804878048783,-211.82926829268294,12.80487804878049
263,0.939,IMU1,-0.2001953125,3.611328125,-0.3056640625,-18.78048780487805,-211.09756097560978,15.060975609756099
264,0.949,IMU0,-0.2412109375,3.5615234375,-0.302734375,-15.487804878048783,-212.68292682926833,14.26829268292683
265,0.949,IMU1,-0.2109375,3.5693359375,-0.3623046875,-18.29268292682927,-212.31707317073173,16.52439024390244
266,0.959,IMU0,-0.2744140625,3.5146484375,-0.35546875,-16.28048780487805,-213.53658536585368,15.000000000000002
267,0.959,IMU1,-0.244140625,3.5234375,-0.416015625,-18.597560975609756,-213.35365853658539,17.25609756097561
268,0.969,IMU0,-0.2939453125,3.4560546875,-0.4267578125,-15.914634146341465,-215.2439024390244,15.975609756097562
269,0.969,IMU1,-0.265625,3.4677734375,-0.4892578125,-18.10975609756098,-215.06097560975613,18.10975609756098
270,0.979,IMU0,-0.365234375,3.4150390625,-0.47265625,-15.365853658536587,-216.89024390243904,16.646341463414636
271,0.979,IMU1,-0.3359375,3.4267578125,-0.533203125,-17.31707317073171,-217.07317073170734,18.78048780487805
272,0.989,IMU0,-0.4150390625,3.3837890625,-0.53125,-13.841463414634148,-218.41463414634148,16.34146341463415
273,0.989,IMU1,-0.3857421875,3.396484375,-0.5966796875,-15.975609756097562,-218.78048780487808,18.53658536585366
274,0.999,IMU0,-0.4677734375,3.349609375,-0.529296875,-12.378048780487806,-220.2439024390244,16.158536585365855
275,0.999,IMU1,-0.439453125,3.361328125,-0.5966796875,-14.878048780487806,-220.00000000000003,18.475609756097562
276,1.009,IMU0,-0.548828125,3.3212890625,-0.5556640625,-10.914634146341465,-220.97560975609758,15.243902439024392
277,1.009,IMU1,-0.5224609375,3.3330078125,-0.6181640625,-14.02439024390244,-220.18292682926833,17.5609756097561
278,1.019,IMU0,-0.6142578125,3.2998046875,-0.615234375,-9.26829268292683,-219.87804878048783,13.841463414634148
279,1.019,IMU1,-0.5869140625,3.3115234375,-0.6748046875,-11.341463414634147,-220.00000000000003,16.097560975609756
280,1.029,IMU0,-0.6533203125,3.2734375,-0.599609375,-7.439024390243903,-217.68292682926833,11.707317073170733
281,1.029,IMU1,-0.6279296875,3.287109375,-0.6630859375,-10.060975609756099,-217.68292682926833,13.963414634146343
282,1.039,IMU0,-0.7158203125,3.27734375,-0.603515625,-7.073170731707318,-214.02439024390245,9.878048780487806
283,1.039,IMU1,-0.689453125,3.2919921875,-0.6669921875,-9.02439024390244,-214.08536585365854,12.073170731707318
284,1.049,IMU0,-0.7431640625,3.27734375,-0.6298828125,-4.634146341463415,-210.5487804878049,6.646341463414635
285,1.049,IMU1,-0.7158203125,3.2919921875,-0.693359375,-6.52439024390244,-210.7926829268293,8.78048780487805
286,1.059,IMU0,-0.7470703125,3.2900390625,-0.61328125,-3.536585365853659,-206.28048780487808,4.2682926829268295
287,1.059,IMU1,-0.7197265625,3.3037109375,-0.677734375,-5.3048780487804885,-206.46341463414635,6.341463414634147
288,1.069,IMU0,-0.75390625,3.3095703125,-0.5703125,-3.1707317073170733,-201.70731707317074,1.0365853658536586
289,1.069,IMU1,-0.7265625,3.322265625,-0.63671875,-4.939024390243903,-202.13414634146343,3.048780487804878
290,1.079,IMU0,-0.7373046875,3.2978515625,-0.5380859375,-3.048780487804878,-197.7439024390244,-1.707317073170732
291,1.079,IMU1,-0.7119140625,3.3115234375,-0.6015625,-4.817073170731708,-198.2317073170732,0.24390243902439027
292,1.089,IMU0,-0.712890625,3.271484375,-0.53515625,-2.25609756097561,-194.69512195121953,-3.8414634146341466
293,1.089,IMU1,-0.6875,3.2841796875,-0.5966796875,-4.51219512195122,-194.63414634146343,-1.829268292682927
294,1.099,IMU0,-0.724609375,3.2216796875,-0.5078125,-1.3414634146341464,-192.9878048780488,-6.402439024390245
295,1.099,IMU1,-0.6953125,3.234375,-0.5693359375,-3.780487804878049,-192.56097560975613,-4.329268292682928
296,1.109,IMU0,-0.6640625,3.041015625,-0.4541015625,-1.6463414634146343,-192.07317073170734,-8.231707317073171
297,1.109,IMU1,-0.634765625,3.0517578125,-0.5146484375,-4.207317073170732,-191.70731707317074,-6.219512195121951
298,1.119,IMU0,-0.6376953125,2.7060546875,-0.4169921875,-2.5,-192.13414634146343,-10.365853658536587
299,1.119,IMU1,-0.6123046875,2.7138671875,-0.4794921875,-5.060975609756098,-192.13414634146343,-8.292682926829269
300,1.129,IMU0,-0.54296875,2.265625,-0.4072265625,-3.2926829268292686,-193.2926829268293,-10.731707317073171
301,1.129,IMU1,-0.5185546875,2.271484375,-0.4677734375,-5.548780487804878,-193.41463414634148,-8.719512195121952
302,1.139,IMU0,-0.525390625,1.951171875,-0.4287109375,-3.4756097560975614,-195.609756097561,-12.865853658536587
303,1.139,IMU1,-0.501953125,1.9580078125,-0.490234375,-5.853658536585367,-195.3048780487805,-10.853658536585368
304,1.149,IMU0,-0.4658203125,1.353515625,-0.3984375,-4.573170731707317,-197.9878048780488,-12.195121951219512
305,1.149,IMU1,-0.4462890625,1.3583984375,-0.4541015625,-6.951219512195123,-197.9878048780488,-10.24390243902439
306,1.159,IMU0,-0.412109375,0.8916015625,-0.3623046875,-5.487804878048781,-200.1829268292683,-13.170731707317074
307,1.159,IMU1,-0.39453125,0.8974609375,-0.4130859375,-8.048780487804878,-200.2439024390244,-11.158536585365855
308,1.169,IMU0,-0.384765625,0.521484375,-0.3583984375,-7.01219512195122,-203.0487804878049,-12.926829268292684
309,1.169,IMU1,-0.369140625,0.52734375,-0.40625,-9.451219512195122,-202.8658536585366,-10.914634146341465
310,1.179,IMU0,-0.3720703125,0.2373046875,-0.359375,-9.207317073170733,-205.06097560975613,-13.170731707317074
311,1.179,IMU1,-0.3564453125,0.2431640625,-0.4072265625,-11.097560975609756,-205.12195121951223,-11.219512195121952
312,1.189,IMU0,-0.314453125,0.0185546875,-0.333984375,-11.76829268292683,-207.31707317073173,-12.74390243902439
313,1.189,IMU1,-0.298828125,0.0224609375,-0.3779296875,-13.29268292682927,-207.6829268292683,-10.853658536585368
314,1.199,IMU0,-0.3466796875,-0.18359375,-0.4658203125,-12.134146341463415,-210.4878048780488,-12.926829268292684
315,1.199,IMU1,-0.3330078125,-0.1767578125,-0.5146484375,-13.841463414634148,-210.97560975609758,-10.853658536585368
316,1.209,IMU0,-0.318359375,-0.30078125,-0.6572265625,-10.975609756097562,-210.91463414634148,-11.402439024390246
317,1.209,IMU1,-0.2998046875,-0.294921875,-0.697265625,-12.621951219512196,-211.09756097560978,-9.329268292682928
318,1.219,IMU0,-0.1591796875,-0.4013671875,-0.3974609375,-9.695121951219512,-214.26829268292684,-9.085365853658537
319,1.219,IMU1,-0.1455078125,-0.396484375,-0.4482421875,-11.341463414634147,-214.57317073170734,-7.01219512195122
320,1.229,IMU0,-0.2392578125,-0.4677734375,-0.4716796875,-9.51219512195122,-217.7439024390244,-6.585365853658537
321,1.229,IMU1,-0.2265625,-0.4619140625,-0.521484375,-11.76829268292683,-217.7439024390244,-4.451219512195122
322,1.239,IMU0,-0.33203125,-0.517578125,-0.5576171875,-8.048780487804878,-219.51219512195124,-7.01219512195122
323,1.239,IMU1,-0.3154296875,-0.51171875,-0.599609375,-10.548780487804878,-219.45121951219514,-4.817073170731708
324,1.249,IMU0,-0.2099609375,-0.6025390625,-0.4814453125,-9.146341463414634,-220.18292682926833,-5.548780487804878
325,1.249,IMU1,-0.201171875,-0.59765625,-0.5283203125,-10.975609756097562,-220.7317073170732,-3.4756097560975614
326,1.259,IMU0,-0.232421875,-0.6396484375,-0.505859375,-8.292682926829269,-221.15853658536588,-5.853658536585367
327,1.259,IMU1,-0.216796875,-0.6357421875,-0.5498046875,-10.060975609756099,-221.34146341463418,-3.780487804878049
328,1.269,IMU0,-0.1181640625,-0.755859375,-0.4638671875,-7.743902439024391,-222.7439024390244,-4.634146341463415
329,1.269,IMU1,-0.1044921875,-0.75,-0.5068359375,-10.121951219512196,-222.50000000000003,-2.378048780487805
330,1.279,IMU0,-0.18359375,-0.806640625,-0.5,-7.25609756097561,-224.69512195121953,-3.1097560975609757
331,1.279,IMU1,-0.1689453125,-0.80078125,-0.5419921875,-10.182926829268293,-223.90243902439028,-0.7317073170731708
332,1.289,IMU0,-0.1865234375,-0.8505859375,-0.501953125,-7.25609756097561,-226.28048780487808,-2.0121951219512195
333,1.289,IMU1,-0.173828125,-0.84375,-0.5439453125,-9.207317073170733,-225.97560975609758,0.24390243902439027
334,1.299,IMU0,-0.197265625,-0.87109375,-0.50390625,-7.317073170731708,-227.9878048780488,-0.5487804878048781
335,1.299,IMU1,-0.185546875,-0.865234375,-0.546875,-9.451219512195122,-227.8048780487805,1.707317073170732
336,1.309,IMU0,-0.2021484375,-0.873046875,-0.529296875,-7.073170731707318,-229.63414634146343,0.30487804878048785
337,1.309,IMU1,-0.189453125,-0.869140625,-0.5732421875,-9.573170731707318,-229.69512195121953,2.6219512195121952
338,1.319,IMU0,-0.197265625,-0.8798828125,-0.560546875,-6.707317073170732,-231.21951219512198,1.0975609756097562
339,1.319,IMU1,-0.1845703125,-0.8759765625,-0.6025390625,-9.207317073170733,-231.40243902439028,3.536585365853659
340,1.329,IMU0,-0.201171875,-0.8779296875,-0.58203125,-5.914634146341464,-232.74390243902442,2.0121951219512195
341,1.329,IMU1,-0.1884765625,-0.8720703125,-0.6220703125,-8.109756097560977,-232.9878048780488,4.451219512195122
342,1.339,IMU0,-0.21484375,-0.8779296875,-0.5673828125,-5.2439024390243905,-233.90243902439028,2.8658536585365857
343,1.339,IMU1,-0.2021484375,-0.8720703125,-0.609375,-7.500000000000001,-233.90243902439028,5.365853658536586
344,1.349,IMU0,-0.2412109375,-0.875,-0.5654296875,-4.817073170731708,-234.81707317073173,3.536585365853659
345,1.349,IMU1,-0.2275390625,-0.8701171875,-0.609375,-7.134146341463415,-234.57317073170734,5.914634146341464
346,1.359,IMU0,-0.2724609375,-0.8857421875,-0.5810546875,-3.9024390243902443,-236.28048780487808,4.2682926829268295
347,1.359,IMU1,-0.2587890625,-0.8798828125,-0.625,-6.7682926829268295,-236.21951219512198,6.7682926829268295
348,1.369,IMU0,-0.3310546875,-0.890625,-0.6103515625,-3.231707317073171,-237.25609756097563,4.75609756097561
349,1.369,IMU1,-0.318359375,-0.884765625,-0.65234375,-5.548780487804878,-237.07317073170734,7.195121951219513
350,1.379,IMU0,-0.373046875,-0.89453125,-0.6171875,-2.378048780487805,-237.74390243902442,4.695121951219512
351,1.379,IMU1,-0.361328125,-0.88671875,-0.658203125,-4.390243902439025,-237.9878048780488,7.134146341463415
352,1.389,IMU0,-0.404296875,-0.8974609375,-0.6318359375,-1.4634146341463417,-237.8658536585366,4.146341463414634
353,1.389,IMU1,-0.39453125,-0.8916015625,-0.671875,-3.353658536585366,-238.2317073170732,6.646341463414635
354,1.399,IMU0,-0.4130859375,-0.8974609375,-0.646484375,-0.6097560975609757,-237.37804878048783,3.536585365853659
355,1.399,IMU1,-0.4033203125,-0.890625,-0.6884765625,-2.9268292682926833,-237.43902439024393,5.975609756097562
356,1.409,IMU0,-0.4453125,-0.892578125,-0.6318359375,0.6707317073170732,-236.58536585365854,2.987804878048781
357,1.409,IMU1,-0.4345703125,-0.8857421875,-0.6748046875,-1.5853658536585367,-236.70731707317074,5.426829268292684
358,1.419,IMU0,-0.46484375,-0.8994140625,-0.5732421875,1.707317073170732,-235.7317073170732,2.073170731707317
359,1.419,IMU1,-0.4541015625,-0.8935546875,-0.6171875,-0.3658536585365854,-236.09756097560978,4.573170731707317
360,1.429,IMU0,-0.5,-0.8974609375,-0.5498046875,2.073170731707317,-234.14634146341464,0.7317073170731708
361,1.429,IMU1,-0.4873046875,-0.890625,-0.59375,0.06097560975609757,-234.32926829268294,3.1707317073170733
362,1.439,IMU0,-0.5107421875,-0.8984375,-0.5654296875,1.7682926829268295,-232.19512195121953,-0.3658536585365854
363,1.439,IMU1,-0.5,-0.892578125,-0.611328125,-0.426829268292683,-232.01219512195124,2.1341463414634148
364,1.449,IMU0,-0.5185546875,-0.89453125,-0.5576171875,2.1341463414634148,-229.39024390243904,-1.829268292682927
365,1.449,IMU1,-0.5078125,-0.88671875,-0.6025390625,-0.12195121951219513,-229.51219512195124,0.6097560975609757
366,1.459,IMU0,-0.513671875,-0.8955078125,-0.5048828125,2.378048780487805,-226.03658536585368,-3.048780487804878
367,1.459,IMU1,-0.5029296875,-0.8876953125,-0.5498046875,0.12195121951219513,-226.03658536585368,-0.6707317073170732
368,1.469,IMU0,-0.5078125,-0.892578125,-0.4736328125,2.682926829268293,-223.96341463414637,-4.024390243902439
369,1.469,IMU1,-0.498046875,-0.884765625,-0.5205078125,0.48780487804878053,-224.08536585365854,-1.6463414634146343
370,1.479,IMU0,-0.5068359375,-0.8935546875,-0.4384765625,2.6219512195121952,-222.50000000000003,-4.939024390243903
371,1.479,IMU1,-0.49609375,-0.88671875,-0.484375,0.7317073170731708,-223.109756097561,-2.6219512195121952
372,1.489,IMU0,-0.4921875,-0.8916015625,-0.390625,1.9512195121951221,-221.28048780487808,-5.7926829268292686
373,1.489,IMU1,-0.4814453125,-0.884765625,-0.43359375,-0.06097560975609757,-221.76829268292684,-3.414634146341464
374,1.499,IMU0,-0.5078125,-0.892578125,-0.380859375,1.2195121951219514,-220.4878048780488,-6.707317073170732
375,1.499,IMU1,-0.4970703125,-0.88671875,-0.4228515625,-0.9756097560975611,-220.7926829268293,-4.329268292682928
376,1.509,IMU0,-0.525390625,-0.890625,-0.3623046875,0.30487804878048785,-219.20731707317074,-7.134146341463415
377,1.509,IMU1,-0.515625,-0.8828125,-0.4072265625,-1.8902439024390245,-219.32926829268294,-4.817073170731708
378,1.519,IMU0,-0.49609375,-0.88671875,-0.32421875,-0.9756097560975611,-217.8658536585366,-8.170731707317074
379,1.519,IMU1,-0.4892578125,-0.8818359375,-0.365234375,-3.1097560975609757,-217.8048780487805,-5.853658536585367
380,1.529,IMU0,-0.4453125,-0.8828125,-0.3310546875,-2.3170731707317076,-217.56097560975613,-9.146341463414634
381,1.529,IMU1,-0.4365234375,-0.876953125,-0.375,-4.51219512195122,-217.37804878048783,-6.890243902439025
382,1.539,IMU0,-0.408203125,-0.873046875,-0.34765625,-3.9024390243902443,-217.43902439024393,-10.24390243902439
383,1.539,IMU1,-0.3974609375,-0.8671875,-0.390625,-5.975609756097562,-217.19512195121953,-7.987804878048781
384,1.549,IMU0,-0.3408203125,-0.873046875,-0.3515625,-5.121951219512195,-217.37804878048783,-10.670731707317074
385,1.549,IMU1,-0.3330078125,-0.8681640625,-0.3916015625,-7.439024390243903,-217.13414634146343,-8.414634146341465
386,1.559,IMU0,-0.26953125,-0.8671875,-0.373046875,-6.158536585365854,-217.68292682926833,-10.670731707317074
387,1.559,IMU1,-0.2587890625,-0.86328125,-0.412109375,-8.292682926829269,-217.50000000000003,-8.414634146341465
388,1.569,IMU0,-0.2109375,-0.8740234375,-0.37890625,-6.829268292682928,-218.71951219512198,-9.51219512195122
389,1.569,IMU1,-0.1982421875,-0.869140625,-0.41796875,-8.963414634146343,-219.02439024390245,-7.073170731707318
390,1.579,IMU0,-0.216796875,-0.8701171875,-0.3837890625,-7.195121951219513,-220.4268292682927,-7.926829268292684
391,1.579,IMU1,-0.2041015625,-0.865234375,-0.4248046875,-9.390243902439025,-220.6707317073171,-5.548780487804878
392,1.589,IMU0,-0.2275390625,-0.8681640625,-0.4267578125,-7.500000000000001,-221.76829268292684,-6.829268292682928
393,1.589,IMU1,-0.216796875,-0.861328125,-0.46484375,-9.756097560975611,-221.95121951219514,-4.390243902439025
394,1.599,IMU0,-0.185546875,-0.8681640625,-0.44921875,-8.109756097560977,-222.62195121951223,-5.853658536585367
395,1.599,IMU1,-0.1728515625,-0.8642578125,-0.498046875,-10.365853658536587,-223.0487804878049,-3.414634146341464
396,1.609,IMU0,-0.2197265625,-0.8564453125,-0.513671875,-8.719512195121952,-223.47560975609758,-4.634146341463415
397,1.609,IMU1,-0.2080078125,-0.849609375,-0.560546875,-11.097560975609756,-223.84146341463418,-2.1341463414634148
398,1.619,IMU0,-0.25,-0.859375,-0.548828125,-8.414634146341465,-225.4878048780488,-3.231707317073171
399,1.619,IMU1,-0.2412109375,-0.853515625,-0.591796875,-10.548780487804878,-225.85365853658539,-0.9146341463414634
400,1.629,IMU0,-0.29296875,-0.857421875,-0.56640625,-7.621951219512196,-227.62195121951223,-2.25609756097561
401,1.629,IMU1,-0.28125,-0.8515625,-0.603515625,-9.756097560975611,-227.8048780487805,0.06097560975609757
402,1.639,IMU0,-0.314453125,-0.859375,-0.5771484375,-6.585365853658537,-229.32926829268294,-1.829268292682927
403,1.639,IMU1,-0.3046875,-0.853515625,-0.619140625,-8.719512195121952,-229.51219512195124,0.5487804878048781
404,1.649,IMU0,-0.3310546875,-0.859375,-0.58203125,-5.731707317073171,-230.3658536585366,-1.5853658536585367
405,1.649,IMU1,-0.3203125,-0.857421875,-0.630859375,-7.8048780487804885,-230.609756097561,0.853658536585366
406,1.659,IMU0,-0.3408203125,-0.853515625,-0.599609375,-4.939024390243903,-231.21951219512198,-1.4634146341463417
407,1.659,IMU1,-0.3310546875,-0.84765625,-0.64453125,-6.951219512195123,-231.28048780487808,0.9146341463414634
408,1.669,IMU0,-0.3779296875,-0.8544921875,-0.5712890625,-3.9024390243902443,-232.07317073170734,-1.1585365853658538
409,1.669,IMU1,-0.3681640625,-0.8525390625,-0.6171875,-6.158536585365854,-231.95121951219514,1.3414634146341464
410,1.679,IMU0,-0.4189453125,-0.85546875,-0.5625,-2.5,-232.74390243902442,-1.402439024390244
411,1.679,IMU1,-0.4130859375,-0.8515625,-0.6025390625,-5.0,-232.68292682926833,1.0975609756097562
412,1.689,IMU0,-0.4658203125,-0.8603515625,-0.541015625,-1.8902439024390245,-232.07317073170734,-1.7682926829268295
413,1.689,IMU1,-0.4580078125,-0.853515625,-0.5791015625,-3.8414634146341466,-232.01219512195124,0.6097560975609757
414,1.699,IMU0,-0.494140625,-0.8603515625,-0.509765625,-1.2195121951219514,-230.06097560975613,-2.682926829268293
415,1.699,IMU1,-0.484375,-0.853515625,-0.552734375,-2.987804878048781,-230.00000000000003,-0.426829268292683
416,1.709,IMU0,-0.482421875,-0.861328125,-0.484375,-1.402439024390244,-227.43902439024393,-3.9024390243902443
417,1.709,IMU1,-0.46875,-0.8525390625,-0.5263671875,-3.536585365853659,-227.25609756097563,-1.524390243902439
418,1.719,IMU0,-0.46875,-0.8486328125,-0.5322265625,-1.2195121951219514,-225.00000000000003,-5.182926829268293
419,1.719,IMU1,-0.453125,-0.8408203125,-0.5693359375,-3.536585365853659,-224.81707317073173,-2.8658536585365857
420,1.729,IMU0,-0.421875,-0.84765625,-0.5263671875,-0.9146341463414634,-222.8048780487805,-6.463414634146342
421,1.729,IMU1,-0.41015625,-0.8427734375,-0.5703125,-3.2926829268292686,-222.62195121951223,-4.146341463414634
422,1.739,IMU0,-0.3837890625,-0.83984375,-0.5146484375,-1.0975609756097562,-221.21951219512198,-7.195121951219513
423,1.739,IMU1,-0.369140625,-0.8330078125,-0.560546875,-3.2926829268292686,-221.46341463414637,-4.878048780487806
424,1.749,IMU0,-0.369140625,-0.8330078125,-0.5244140625,-1.1585365853658538,-221.09756097560978,-7.865853658536586
425,1.749,IMU1,-0.3564453125,-0.830078125,-0.568359375,-3.353658536585366,-221.34146341463418,-5.548780487804878
426,1.759,IMU0,-0.353515625,-0.830078125,-0.5283203125,-1.0975609756097562,-221.03658536585368,-8.231707317073171
427,1.759,IMU1,-0.3427734375,-0.822265625,-0.5712890625,-3.1097560975609757,-221.03658536585368,-5.975609756097562
428,1.769,IMU0,-0.35546875,-0.826171875,-0.544921875,-0.7926829268292683,-221.21951219512198,-8.170731707317074
429,1.769,IMU1,-0.341796875,-0.822265625,-0.58203125,-2.5,-221.64634146341464,-5.975609756097562
430,1.779,IMU0,-0.3349609375,-0.8291015625,-0.5048828125,-0.5487804878048781,-221.46341463414637,-8.658536585365855
431,1.779,IMU1,-0.3193359375,-0.8203125,-0.546875,-2.3170731707317076,-221.95121951219514,-6.402439024390245
432,1.789,IMU0,-0.3134765625,-0.8271484375,-0.509765625,-0.1829268292682927,-221.64634146341464,-8.841463414634147
433,1.789,IMU1,-0.296875,-0.8173828125,-0.544921875,-2.3170731707317076,-221.95121951219514,-6.52439024390244
434,1.799,IMU0,-0.2763671875,-0.8349609375,-0.4873046875,0.1829268292682927,-222.62195121951223,-8.719512195121952
435,1.799,IMU1,-0.263671875,-0.8291015625,-0.5244140625,-1.829268292682927,-222.8048780487805,-6.402439024390245
436,1.809,IMU0,-0.2666015625,-0.833984375,-0.4833984375,0.06097560975609757,-223.109756097561,-8.231707317073171
437,1.809,IMU1,-0.251953125,-0.826171875,-0.5283203125,-1.9512195121951221,-223.47560975609758,-5.914634146341464
438,1.819,IMU0,-0.2744140625,-0.8251953125,-0.4638671875,-0.06097560975609757,-223.71951219512198,-7.743902439024391
439,1.819,IMU1,-0.26171875,-0.8232421875,-0.505859375,-2.1341463414634148,-224.02439024390245,-5.365853658536586
440,1.829,IMU0,-0.2919921875,-0.818359375,-0.47265625,-0.12195121951219513,-224.39024390243904,-7.317073170731708
441,1.829,IMU1,-0.2802734375,-0.81640625,-0.5166015625,-2.073170731707317,-224.63414634146343,-4.878048780487806
442,1.839,IMU0,-0.296875,-0.8212890625,-0.4638671875,-0.12195121951219513,-224.81707317073173,-6.951219512195123
443,1.839,IMU1,-0.2890625,-0.8154296875,-0.5078125,-2.0121951219512195,-225.2439024390244,-4.634146341463415
444,1.849,IMU0,-0.30078125,-0.8203125,-0.458984375,-0.1829268292682927,-225.18292682926833,-6.52439024390244
445,1.849,IMU1,-0.2890625,-0.81640625,-0.5029296875,-1.9512195121951221,-225.6707317073171,-4.207317073170732
446,1.859,IMU0,-0.3056640625,-0.818359375,-0.443359375,-0.1829268292682927,-225.5487804878049,-6.341463414634147
447,1.859,IMU1,-0.294921875,-0.8125,-0.490234375,-2.1951219512195124,-225.7317073170732,-4.024390243902439
448,1.869,IMU0,-0.2978515625,-0.80859375,-0.4345703125,-0.48780487804878053,-225.4268292682927,-6.097560975609756
449,1.869,IMU1,-0.2841796875,-0.8076171875,-0.4775390625,-2.5,-225.7317073170732,-3.780487804878049
450,1.879,IMU0,-0.3115234375,-0.8056640625,-0.4345703125,-0.48780487804878053,-225.6707317073171,-6.219512195121951
451,1.879,IMU1,-0.2998046875,-0.7998046875,-0.474609375,-2.5,-225.7926829268293,-3.9024390243902443
452,1.889,IMU0,-0.2978515625,-0.8173828125,-0.4189453125,-0.5487804878048781,-226.03658536585368,-5.914634146341464
453,1.889,IMU1,-0.2880859375,-0.810546875,-0.4580078125,-2.5,-225.91463414634148,-3.658536585365854
454,1.899,IMU0,-0.30859375,-0.8115234375,-0.404296875,-0.9756097560975611,-225.85365853658539,-5.548780487804878
455,1.899,IMU1,-0.296875,-0.8056640625,-0.4462890625,-3.048780487804878,-226.03658536585368,-3.231707317073171
456,1.909,IMU0,-0.3095703125,-0.802734375,-0.3994140625,-1.1585365853658538,-225.85365853658539,-5.731707317073171
457,1.909,IMU1,-0.298828125,-0.7958984375,-0.4423828125,-3.1097560975609757,-225.91463414634148,-3.353658536585366
458,1.919,IMU0,-0.2880859375,-0.80859375,-0.3955078125,-1.5853658536585367,-226.09756097560978,-5.487804878048781
459,1.919,IMU1,-0.2763671875,-0.802734375,-0.4345703125,-3.658536585365854,-226.15853658536588,-3.1707317073170733
460,1.929,IMU0,-0.29296875,-0.7998046875,-0.3955078125,-1.8902439024390245,-226.34146341463418,-5.182926829268293
461,1.929,IMU1,-0.2802734375,-0.796875,-0.4375,-3.963414634146342,-226.40243902439028,-2.8658536585365857
462,1.939,IMU0,-0.2783203125,-0.794921875,-0.388671875,-2.3170731707317076,-226.40243902439028,-5.060975609756098
463,1.939,IMU1,-0.2666015625,-0.7890625,-0.4345703125,-4.2682926829268295,-226.40243902439028,-2.7439024390243905
464,1.949,IMU0,-0.271484375,-0.791015625,-0.3818359375,-2.987804878048781,-226.21951219512198,-4.573170731707317
465,1.949,IMU1,-0.2578125,-0.787109375,-0.41796875,-4.817073170731708,-226.34146341463418,-2.3170731707317076
466,1.959,IMU0,-0.279296875,-0.7822265625,-0.384765625,-2.804878048780488,-226.40243902439028,-4.51219512195122
467,1.959,IMU1,-0.267578125,-0.7802734375,-0.4306640625,-5.121951219512195,-226.46341463414637,-2.1341463414634148
468,1.969,IMU0,-0.2568359375,-0.7900390625,-0.38671875,-3.536585365853659,-226.21951219512198,-4.146341463414634
469,1.969,IMU1,-0.244140625,-0.783203125,-0.4287109375,-5.670731707317073,-226.21951219512198,-1.7682926829268295
470,1.979,IMU0,-0.251953125,-0.7890625,-0.412109375,-4.085365853658537,-226.28048780487808,-3.7195121951219514
471,1.979,IMU1,-0.240234375,-0.783203125,-0.455078125,-6.097560975609756,-226.21951219512198,-1.3414634146341464
472,1.989,IMU0,-0.2392578125,-0.783203125,-0.4345703125,-4.024390243902439,-226.76829268292684,-3.2926829268292686
473,1.989,IMU1,-0.2265625,-0.77734375,-0.478515625,-6.219512195121951,-226.76829268292684,-0.9146341463414634
474,1.999,IMU0,-0.2314453125,-0.7900390625,-0.431640625,-3.963414634146342,-227.56097560975613,-2.7439024390243905
475,1.999,IMU1,-0.2177734375,-0.7822265625,-0.4775390625,-6.097560975609756,-227.62195121951223,-0.48780487804878053
476,2.009,IMU0,-0.232421875,-0.783203125,-0.431640625,-3.9024390243902443,-228.1707317073171,-2.1341463414634148
477,2.009,IMU1,-0.2197265625,-0.77734375,-0.4775390625,-5.853658536585367,-228.41463414634148,0.1829268292682927
478,2.019,IMU0,-0.2373046875,-0.779296875,-0.431640625,-3.7195121951219514,-228.59756097560978,-1.6463414634146343
479,2.019,IMU1,-0.2236328125,-0.7744140625,-0.4736328125,-5.975609756097562,-228.71951219512198,0.6707317073170732
480,2.029,IMU0,-0.2587890625,-0.77734375,-0.43359375,-3.5975609756097566,-229.02439024390245,-1.3414634146341464
481,2.029,IMU1,-0.2470703125,-0.7734375,-0.4755859375,-5.853658536585367,-229.14634146341464,1.0975609756097562
482,2.039,IMU0,-0.2509765625,-0.78125,-0.435546875,-3.414634146341464,-229.32926829268294,-0.9756097560975611
483,2.039,IMU1,-0.2412109375,-0.7744140625,-0.4765625,-5.670731707317073,-229.45121951219514,1.4634146341463417
484,2.049,IMU0,-0.265625,-0.78125,-0.4375,-3.231707317073171,-229.63414634146343,-0.426829268292683
485,2.049,IMU1,-0.25390625,-0.7734375,-0.478515625,-5.487804878048781,-229.57317073170734,2.0121951219512195
486,2.059,IMU0,-0.298828125,-0.7705078125,-0.44140625,-3.231707317073171,-229.32926829268294,-0.30487804878048785
487,2.059,IMU1,-0.2841796875,-0.763671875,-0.4853515625,-5.670731707317073,-229.39024390243904,2.073170731707317
488,2.069,IMU0,-0.306640625,-0.767578125,-0.447265625,-3.1707317073170733,-228.84146341463418,-0.426829268292683
489,2.069,IMU1,-0.291015625,-0.765625,-0.494140625,-5.609756097560976,-228.96341463414637,2.0121951219512195
490,2.079,IMU0,-0.3134765625,-0.76953125,-0.45703125,-2.378048780487805,-228.41463414634148,-0.3658536585365854
491,2.079,IMU1,-0.3037109375,-0.763671875,-0.5009765625,-4.817073170731708,-228.47560975609758,2.1341463414634148
492,2.089,IMU0,-0.328125,-0.7685546875,-0.4384765625,-1.8902439024390245,-227.8048780487805,-0.48780487804878053
493,2.089,IMU1,-0.318359375,-0.76171875,-0.4775390625,-4.329268292682928,-227.9878048780488,1.8902439024390245
494,2.099,IMU0,-0.33203125,-0.76171875,-0.4140625,-1.524390243902439,-227.07317073170734,-0.853658536585366
495,2.099,IMU1,-0.3212890625,-0.7568359375,-0.4609375,-4.085365853658537,-227.37804878048783,1.5853658536585367
496,2.109,IMU0,-0.3369140625,-0.7646484375,-0.40234375,-1.7682926829268295,-226.15853658536588,-1.0365853658536586
497,2.109,IMU1,-0.326171875,-0.759765625,-0.4443359375,-3.963414634146342,-226.34146341463418,1.402439024390244
498,2.119,IMU0,-0.34375,-0.7587890625,-0.3994140625,-1.4634146341463417,-225.609756097561,-1.707317073170732
499,2.119,IMU1,-0.33203125,-0.75390625,-0.439453125,-3.7195121951219514,-225.6707317073171,0.7317073170731708
500,2.129,IMU0,-0.3232421875,-0.765625,-0.3720703125,-1.707317073170732,-224.87804878048783,-1.829268292682927
501,2.129,IMU1,-0.3125,-0.7607421875,-0.416015625,-4.024390243902439,-224.81707317073173,0.6097560975609757
502,2.139,IMU0,-0.3486328125,-0.755859375,-0.388671875,-1.8902439024390245,-224.02439024390245,-2.3170731707317076
503,2.139,IMU1,-0.3369140625,-0.7470703125,-0.4326171875,-3.8414634146341466,-224.20731707317074,0.0
504,2.149,IMU0,-0.3291015625,-0.755859375,-0.3662109375,-1.9512195121951221,-223.1707317073171,-2.7439024390243905
505,2.149,IMU1,-0.31640625,-0.755859375,-0.4072265625,-4.085365853658537,-223.35365853658539,-0.3658536585365854
506,2.159,IMU0,-0.3330078125,-0.7509765625,-0.357421875,-2.439024390243903,-222.13414634146343,-2.6219512195121952
507,2.159,IMU1,-0.3251953125,-0.7412109375,-0.4072265625,-4.451219512195122,-222.37804878048783,-0.24390243902439027
508,2.169,IMU0,-0.34765625,-0.74609375,-0.353515625,-2.439024390243903,-221.28048780487808,-3.1707317073170733
509,2.169,IMU1,-0.3330078125,-0.73828125,-0.3984375,-4.390243902439025,-221.52439024390245,-0.7926829268292683
510,2.179,IMU0,-0.3349609375,-0.748046875,-0.349609375,-2.987804878048781,-220.4878048780488,-3.1097560975609757
511,2.179,IMU1,-0.3271484375,-0.7431640625,-0.390625,-4.75609756097561,-221.03658536585368,-0.853658536585366
512,2.189,IMU0,-0.3388671875,-0.744140625,-0.3583984375,-3.048780487804878,-219.75609756097563,-3.353658536585366
513,2.189,IMU1,-0.3310546875,-0.7373046875,-0.3974609375,-5.182926829268293,-220.3048780487805,-1.0365853658536586
514,2.199,IMU0,-0.3359375,-0.7421875,-0.3408203125,-3.048780487804878,-219.32926829268294,-3.658536585365854
515,2.199,IMU1,-0.32421875,-0.736328125,-0.3798828125,-5.548780487804878,-219.39024390243904,-1.2804878048780488
516,2.209,IMU0,-0.3427734375,-0.7451171875,-0.3359375,-2.9268292682926833,-218.96341463414635,-3.8414634146341466
517,2.209,IMU1,-0.33203125,-0.7373046875,-0.380859375,-6.036585365853659,-218.41463414634148,-1.402439024390244
518,2.219,IMU0,-0.337890625,-0.744140625,-0.3525390625,-3.5975609756097566,-218.1707317073171,-4.146341463414634
519,2.219,IMU1,-0.3251953125,-0.7353515625,-0.3896484375,-5.731707317073171,-218.0487804878049,-1.829268292682927
520,2.229,IMU0,-0.3232421875,-0.7421875,-0.3408203125,-3.780487804878049,-217.50000000000003,-4.146341463414634
521,2.229,IMU1,-0.3134765625,-0.7333984375,-0.3857421875,-6.341463414634147,-217.50000000000003,-1.829268292682927
522,2.239,IMU0,-0.3310546875,-0.744140625,-0.3515625,-3.963414634146342,-216.82926829268294,-4.390243902439025
523,2.239,IMU1,-0.3203125,-0.734375,-0.390625,-6.463414634146342,-216.82926829268294,-2.1341463414634148
524,2.249,IMU0,-0.310546875,-0.7421875,-0.3564453125,-4.75609756097561,-215.7926829268293,-4.390243902439025
525,2.249,IMU1,-0.30078125,-0.7392578125,-0.400390625,-7.134146341463415,-215.85365853658539,-2.1341463414634148
526,2.259,IMU0,-0.3076171875,-0.7373046875,-0.3642578125,-4.817073170731708,-215.5487804878049,-4.634146341463415
527,2.259,IMU1,-0.296875,-0.73046875,-0.4033203125,-7.134146341463415,-215.3658536585366,-2.378048780487805
528,2.269,IMU0,-0.3017578125,-0.73046875,-0.357421875,-5.182926829268293,-214.87804878048783,-4.695121951219512
529,2.269,IMU1,-0.2919921875,-0.724609375,-0.404296875,-7.134146341463415,-214.75609756097563,-2.5
530,2.279,IMU0,-0.2978515625,-0.7275390625,-0.373046875,-5.182926829268293,-214.39024390243904,-4.939024390243903
531,2.279,IMU1,-0.2841796875,-0.724609375,-0.41796875,-7.134146341463415,-214.51219512195124,-2.682926829268293
532,2.289,IMU0,-0.279296875,-0.732421875,-0.357421875,-5.2439024390243905,-214.08536585365854,-4.695121951219512
533,2.289,IMU1,-0.26953125,-0.73046875,-0.40234375,-7.134146341463415,-214.20731707317074,-2.5
534,2.299,IMU0,-0.2861328125,-0.7294921875,-0.369140625,-4.75609756097561,-214.39024390243904,-4.634146341463415
535,2.299,IMU1,-0.2734375,-0.7255859375,-0.4111328125,-7.621951219512196,-213.84146341463418,-2.25609756097561
536,2.309,IMU0,-0.27734375,-0.734375,-0.3857421875,-4.634146341463415,-214.51219512195124,-4.573170731707317
537,2.309,IMU1,-0.265625,-0.728515625,-0.4267578125,-7.560975609756098,-213.84146341463418,-2.3170731707317076
538,2.319,IMU0,-0.27734375,-0.734375,-0.3857421875,-4.634146341463415,-214.51219512195124,-4.573170731707317
539,2.319,IMU1,-0.2548828125,-0.7265625,-0.427734375,-7.560975609756098,-214.14634146341464,-2.073170731707317
540,2.329,IMU0,-0.265625,-0.732421875,-0.3984375,-4.878048780487806,-213.96341463414635,-4.2682926829268295
541,2.329,IMU1,-0.255859375,-0.7255859375,-0.4404296875,-7.560975609756098,-214.02439024390245,-2.0121951219512195
542,2.339,IMU0,-0.2587890625,-0.724609375,-0.412109375,-4.695121951219512,-213.47560975609758,-4.146341463414634
543,2.339,IMU1,-0.2470703125,-0.71875,-0.4521484375,-7.682926829268293,-213.47560975609758,-1.8902439024390245
544,2.349,IMU0,-0.25,-0.7216796875,-0.4130859375,-4.51219512195122,-212.9268292682927,-3.963414634146342
545,2.349,IMU1,-0.23828125,-0.716796875,-0.453125,-7.01219512195122,-212.68292682926833,-1.707317073170732
546,2.359,IMU0,-0.2568359375,-0.720703125,-0.4013671875,-4.146341463414634,-213.109756097561,-3.536585365853659
547,2.359,IMU1,-0.2431640625,-0.7158203125,-0.4423828125,-6.52439024390244,-212.68292682926833,-1.3414634146341464
548,2.369,IMU0,-0.2705078125,-0.716796875,-0.4091796875,-4.329268292682928,-212.7439024390244,-3.4756097560975614
549,2.369,IMU1,-0.2578125,-0.7109375,-0.451171875,-6.7682926829268295,-212.50000000000003,-1.2804878048780488
550,2.379,IMU0,-0.251953125,-0.7158203125,-0.4072265625,-3.963414634146342,-212.9878048780488,-3.536585365853659
551,2.379,IMU1,-0.2412109375,-0.7109375,-0.451171875,-6.402439024390245,-212.50000000000003,-1.2804878048780488
552,2.389,IMU0,-0.2529296875,-0.7099609375,-0.4296875,-4.207317073170732,-212.43902439024393,-3.2926829268292686
553,2.389,IMU1,-0.240234375,-0.70703125,-0.47265625,-6.2804878048780495,-212.56097560975613,-1.0975609756097562
554,2.399,IMU0,-0.251953125,-0.7060546875,-0.4521484375,-3.2926829268292686,-212.7439024390244,-3.5975609756097566
555,2.399,IMU1,-0.240234375,-0.701171875,-0.4912109375,-6.097560975609756,-212.19512195121953,-1.2804878048780488
556,2.409,IMU0,-0.2294921875,-0.7109375,-0.447265625,-2.804878048780488,-212.62195121951223,-3.536585365853659
557,2.409,IMU1,-0.21875,-0.70703125,-0.4892578125,-5.7926829268292686,-212.07317073170734,-1.2195121951219514
558,2.419,IMU0,-0.234375,-0.7060546875,-0.46484375,-2.804878048780488,-212.31707317073173,-3.414634146341464
559,2.419,IMU1,-0.220703125,-0.701171875,-0.5087890625,-5.548780487804878,-211.64634146341464,-1.0365853658536586
560,2.429,IMU0,-0.228515625,-0.7001953125,-0.48828125,-2.1951219512195124,-212.01219512195124,-3.353658536585366
561,2.429,IMU1,-0.2158203125,-0.6943359375,-0.53125,-4.695121951219512,-212.01219512195124,-1.1585365853658538
562,2.439,IMU0,-0.2236328125,-0.705078125,-0.4951171875,-1.7682926829268295,-212.01219512195124,-3.048780487804878
563,2.439,IMU1,-0.2119140625,-0.6982421875,-0.53515625,-4.2682926829268295,-212.01219512195124,-0.9146341463414634
564,2.449,IMU0,-0.2333984375,-0.701171875,-0.50390625,-1.1585365853658538,-212.19512195121953,-2.682926829268293
565,2.449,IMU1,-0.2216796875,-0.6962890625,-0.546875,-3.536585365853659,-211.82926829268294,-0.426829268292683
566,2.459,IMU0,-0.251953125,-0.6982421875,-0.5126953125,0.1829268292682927,-212.62195121951223,-2.8658536585365857
567,2.459,IMU1,-0.2373046875,-0.69140625,-0.5546875,-2.0121951219512195,-212.37804878048783,-0.6707317073170732
568,2.469,IMU0,-0.2490234375,-0.7041015625,-0.48828125,0.6097560975609757,-212.43902439024393,-2.7439024390243905
569,2.469,IMU1,-0.23828125,-0.6962890625,-0.5341796875,-1.3414634146341464,-212.8658536585366,-0.6707317073170732
570,2.479,IMU0,-0.2568359375,-0.697265625,-0.4658203125,0.9756097560975611,-212.13414634146343,-2.5
571,2.479,IMU1,-0.2421875,-0.6904296875,-0.505859375,-0.7926829268292683,-212.8048780487805,-0.3658536585365854
572,2.489,IMU0,-0.271484375,-0.689453125,-0.4619140625,2.5,-212.8048780487805,-3.1097560975609757
573,2.489,IMU1,-0.2578125,-0.6845703125,-0.50390625,0.06097560975609757,-212.56097560975613,-0.853658536585366
574,2.499,IMU0,-0.2529296875,-0.6982421875,-0.4443359375,3.048780487804878,-212.8048780487805,-3.231707317073171
575,2.499,IMU1,-0.2421875,-0.69140625,-0.486328125,0.3658536585365854,-212.43902439024393,-0.9756097560975611
576,2.509,IMU0,-0.263671875,-0.689453125,-0.4384765625,3.1097560975609757,-212.37804878048783,-3.1707317073170733
577,2.509,IMU1,-0.248046875,-0.685546875,-0.4814453125,0.5487804878048781,-212.25609756097563,-0.853658536585366
578,2.519,IMU0,-0.2822265625,-0.681640625,-0.4345703125,3.7195121951219514,-211.95121951219514,-3.9024390243902443
579,2.519,IMU1,-0.2685546875,-0.67578125,-0.4765625,1.3414634146341464,-211.95121951219514,-1.6463414634146343
580,2.529,IMU0,-0.255859375,-0.689453125,-0.41015625,3.9024390243902443,-211.52439024390245,-4.085365853658537
581,2.529,IMU1,-0.2470703125,-0.6845703125,-0.455078125,1.707317073170732,-211.52439024390245,-1.9512195121951221
582,2.539,IMU0,-0.2626953125,-0.6826171875,-0.3935546875,3.8414634146341466,-211.03658536585368,-4.024390243902439
583,2.539,IMU1,-0.2490234375,-0.6787109375,-0.439453125,1.7682926829268295,-210.97560975609758,-1.829268292682927
584,2.549,IMU0,-0.26953125,-0.6728515625,-0.3818359375,4.146341463414634,-210.5487804878049,-4.817073170731708
585,2.549,IMU1,-0.2548828125,-0.6669921875,-0.42578125,2.073170731707317,-210.5487804878049,-2.5609756097560976
586,2.559,IMU0,-0.2412109375,-0.6767578125,-0.3427734375,3.9024390243902443,-209.93902439024393,-4.878048780487806
587,2.559,IMU1,-0.2294921875,-0.6708984375,-0.3876953125,1.8902439024390245,-210.00000000000003,-2.7439024390243905
588,2.569,IMU0,-0.2431640625,-0.662109375,-0.3330078125,3.9024390243902443,-209.75609756097563,-5.0
589,2.569,IMU1,-0.228515625,-0.6572265625,-0.3759765625,1.7682926829268295,-209.75609756097563,-2.804878048780488
590,2.579,IMU0,-0.2451171875,-0.6630859375,-0.3193359375,3.780487804878049,-209.63414634146343,-5.3048780487804885
591,2.579,IMU1,-0.232421875,-0.65625,-0.365234375,1.7682926829268295,-209.51219512195124,-3.1707317073170733
592,2.589,IMU0,-0.23046875,-0.66796875,-0.3046875,3.2926829268292686,-209.14634146341464,-5.2439024390243905
593,2.589,IMU1,-0.2197265625,-0.6611328125,-0.34765625,0.9146341463414634,-208.90243902439028,-2.987804878048781
594,2.599,IMU0,-0.23828125,-0.6630859375,-0.3046875,2.8658536585365857,-208.90243902439028,-5.365853658536586
595,2.599,IMU1,-0.2275390625,-0.6591796875,-0.34765625,0.30487804878048785,-208.65853658536588,-3.048780487804878
596,2.609,IMU0,-0.2197265625,-0.6650390625,-0.2958984375,2.1951219512195124,-208.41463414634148,-5.365853658536586
597,2.609,IMU1,-0.20703125,-0.6591796875,-0.3349609375,-0.1829268292682927,-208.2317073170732,-3.1707317073170733
598,2.619,IMU0,-0.212890625,-0.662109375,-0.2763671875,2.073170731707317,-208.2317073170732,-5.2439024390243905
599,2.619,IMU1,-0.201171875,-0.6591796875,-0.318359375,-0.48780487804878053,-208.2317073170732,-3.048780487804878
600,2.629,IMU0,-0.2001953125,-0.65625,-0.271484375,1.7682926829268295,-207.9878048780488,-5.182926829268293
601,2.629,IMU1,-0.189453125,-0.6533203125,-0.3115234375,-0.7926829268292683,-207.9268292682927,-3.048780487804878
602,2.639,IMU0,-0.1845703125,-0.65625,-0.24609375,0.7926829268292683,-207.6829268292683,-4.878048780487806
603,2.639,IMU1,-0.1728515625,-0.65234375,-0.287109375,-1.524390243902439,-207.7439024390244,-2.804878048780488
604,2.649,IMU0,-0.177734375,-0.654296875,-0.248046875,0.30487804878048785,-207.7439024390244,-4.75609756097561
605,2.649,IMU1,-0.1640625,-0.6484375,-0.2880859375,-1.7682926829268295,-207.43902439024393,-2.6219512195121952
606,2.659,IMU0,-0.162109375,-0.6533203125,-0.234375,-0.853658536585366,-207.43902439024393,-4.024390243902439
607,2.659,IMU1,-0.1494140625,-0.6474609375,-0.275390625,-2.5609756097560976,-207.50000000000003,-2.0121951219512195
608,2.669,IMU0,-0.173828125,-0.6484375,-0.25390625,-1.9512195121951221,-207.07317073170734,-3.231707317073171
609,2.669,IMU1,-0.1611328125,-0.6435546875,-0.296875,-3.658536585365854,-207.62195121951223,-1.1585365853658538
610,2.679,IMU0,-0.18359375,-0.65234375,-0.2568359375,-2.682926829268293,-207.01219512195124,-2.6219512195121952
611,2.679,IMU1,-0.171875,-0.6484375,-0.2978515625,-4.2682926829268295,-207.56097560975613,-0.5487804878048781
612,2.689,IMU0,-0.1953125,-0.6513671875,-0.2685546875,-3.353658536585366,-206.70731707317074,-2.1951219512195124
613,2.689,IMU1,-0.1845703125,-0.646484375,-0.3125,-4.75609756097561,-207.50000000000003,-0.1829268292682927
614,2.699,IMU0,-0.1865234375,-0.6455078125,-0.27734375,-3.7195121951219514,-206.28048780487808,-1.9512195121951221
615,2.699,IMU1,-0.1728515625,-0.640625,-0.3212890625,-5.060975609756098,-207.13414634146343,0.06097560975609757
616,2.709,IMU0,-0.1875,-0.646484375,-0.29296875,-4.024390243902439,-206.40243902439028,-1.3414634146341464
617,2.709,IMU1,-0.1728515625,-0.6416015625,-0.3359375,-5.975609756097562,-206.52439024390245,0.6707317073170732
618,2.719,IMU0,-0.1923828125,-0.6376953125,-0.3095703125,-4.146341463414634,-206.40243902439028,-1.0365853658536586
619,2.719,IMU1,-0.1806640625,-0.6318359375,-0.3525390625,-6.402439024390245,-206.46341463414635,1.0975609756097562
620,2.729,IMU0,-0.1962890625,-0.6357421875,-0.306640625,-4.2682926829268295,-206.34146341463418,-0.6707317073170732
621,2.729,IMU1,-0.185546875,-0.630859375,-0.3486328125,-6.341463414634147,-206.46341463414635,1.524390243902439
622,2.739,IMU0,-0.20703125,-0.62890625,-0.3076171875,-4.2682926829268295,-206.03658536585368,-0.30487804878048785
623,2.739,IMU1,-0.1943359375,-0.6240234375,-0.3505859375,-6.402439024390245,-205.91463414634148,1.829268292682927
624,2.749,IMU0,-0.2197265625,-0.6328125,-0.3271484375,-4.085365853658537,-205.85365853658539,-0.06097560975609757
625,2.749,IMU1,-0.2080078125,-0.626953125,-0.369140625,-6.158536585365854,-205.91463414634148,2.0121951219512195
626,2.759,IMU0,-0.21484375,-0.63671875,-0.3203125,-3.963414634146342,-205.4878048780488,0.24390243902439027
627,2.759,IMU1,-0.205078125,-0.6298828125,-0.3623046875,-6.219512195121951,-205.5487804878049,2.378048780487805
628,2.769,IMU0,-0.228515625,-0.625,-0.3310546875,-3.963414634146342,-205.00000000000003,0.426829268292683
629,2.769,IMU1,-0.2177734375,-0.6201171875,-0.3720703125,-6.036585365853659,-205.1829268292683,2.439024390243903
630,2.779,IMU0,-0.2275390625,-0.626953125,-0.3359375,-3.963414634146342,-204.20731707317074,0.12195121951219513
631,2.779,IMU1,-0.216796875,-0.62109375,-0.3798828125,-5.731707317073171,-204.75609756097563,2.1341463414634148
632,2.789,IMU0,-0.2236328125,-0.6318359375,-0.357421875,-4.024390243902439,-203.53658536585368,0.6707317073170732
633,2.789,IMU1,-0.21484375,-0.626953125,-0.400390625,-5.7926829268292686,-204.14634146341464,2.6219512195121952
634,2.799,IMU0,-0.255859375,-0.6279296875,-0.375,-3.7195121951219514,-203.41463414634148,0.7317073170731708
635,2.799,IMU1,-0.2451171875,-0.623046875,-0.4189453125,-5.487804878048781,-203.47560975609758,2.682926829268293
636,2.809,IMU0,-0.2822265625,-0.634765625,-0.369140625,-3.4756097560975614,-202.6829268292683,0.6707317073170732
637,2.809,IMU1,-0.271484375,-0.6298828125,-0.4130859375,-5.3048780487804885,-202.6829268292683,2.7439024390243905
638,2.819,IMU0,-0.2958984375,-0.63671875,-0.359375,-2.6219512195121952,-201.82926829268294,0.30487804878048785
639,2.819,IMU1,-0.28515625,-0.6318359375,-0.40234375,-4.51219512195122,-201.89024390243904,2.3170731707317076
640,2.829,IMU0,-0.3076171875,-0.634765625,-0.361328125,-2.5609756097560976,-200.3658536585366,-0.30487804878048785
641,2.829,IMU1,-0.2958984375,-0.6298828125,-0.404296875,-4.390243902439025,-200.6707317073171,1.6463414634146343
642,2.839,IMU0,-0.2880859375,-0.6328125,-0.3603515625,-2.1341463414634148,-199.20731707317074,-0.853658536585366
643,2.839,IMU1,-0.2783203125,-0.6279296875,-0.4033203125,-4.146341463414634,-199.26829268292684,1.1585365853658538
644,2.849,IMU0,-0.3076171875,-0.62109375,-0.349609375,-1.524390243902439,-198.2926829268293,-1.2804878048780488
645,2.849,IMU1,-0.296875,-0.6162109375,-0.392578125,-3.658536585365854,-197.7439024390244,0.7926829268292683
646,2.859,IMU0,-0.3115234375,-0.6220703125,-0.337890625,-1.3414634146341464,-197.01219512195124,-2.1951219512195124
647,2.859,IMU1,-0.30078125,-0.6181640625,-0.384765625,-3.780487804878049,-196.76829268292684,-0.06097560975609757
648,2.869,IMU0,-0.29296875,-0.6220703125,-0.3291015625,-1.3414634146341464,-195.6707317073171,-2.6219512195121952
649,2.869,IMU1,-0.2822265625,-0.6171875,-0.375,-3.7195121951219514,-195.2439024390244,-0.5487804878048781
650,2.879,IMU0,-0.2978515625,-0.625,-0.3447265625,-1.402439024390244,-194.32926829268294,-3.2926829268292686
651,2.879,IMU1,-0.287109375,-0.619140625,-0.3896484375,-3.2926829268292686,-194.51219512195124,-1.3414634146341464
652,2.889,IMU0,-0.2763671875,-0.625,-0.3193359375,-1.707317073170732,-193.35365853658539,-3.658536585365854
653,2.889,IMU1,-0.265625,-0.6201171875,-0.3642578125,-3.7195121951219514,-193.2317073170732,-1.707317073170732
654,2.899,IMU0,-0.2890625,-0.6123046875,-0.333984375,-2.0121951219512195,-192.37804878048783,-4.024390243902439
655,2.899,IMU1,-0.27734375,-0.6064453125,-0.37890625,-3.8414634146341466,-192.43902439024393,-2.1341463414634148
656,2.909,IMU0,-0.2900390625,-0.6240234375,-0.341796875,-1.5853658536585367,-191.76829268292684,-4.634146341463415
657,2.909,IMU1,-0.2802734375,-0.619140625,-0.3837890625,-3.414634146341464,-191.89024390243904,-2.6219512195121952
658,2.919,IMU0,-0.2705078125,-0.623046875,-0.3310546875,-1.2804878048780488,-191.58536585365854,-4.75609756097561
659,2.919,IMU1,-0.26171875,-0.6181640625,-0.375,-3.231707317073171,-191.64634146341464,-2.804878048780488
660,2.929,IMU0,-0.28515625,-0.6171875,-0.3427734375,-1.4634146341463417,-191.09756097560978,-5.182926829268293
661,2.929,IMU1,-0.2744140625,-0.6123046875,-0.3857421875,-3.353658536585366,-190.91463414634148,-3.2926829268292686
662,2.939,IMU0,-0.2734375,-0.61328125,-0.3564453125,-1.6463414634146343,-190.4268292682927,-5.609756097560976
663,2.939,IMU1,-0.2607421875,-0.609375,-0.3984375,-3.7195121951219514,-189.87804878048783,-3.7195121951219514
664,2.949,IMU0,-0.2607421875,-0.6123046875,-0.3623046875,-1.5853658536585367,-189.87804878048783,-5.7926829268292686
665,2.949,IMU1,-0.248046875,-0.609375,-0.4052734375,-3.963414634146342,-189.02439024390245,-3.9024390243902443
666,2.959,IMU0,-0.2587890625,-0.6083984375,-0.3720703125,-1.5853658536585367,-189.51219512195124,-6.036585365853659
667,2.959,IMU1,-0.244140625,-0.6044921875,-0.4150390625,-3.4756097560975614,-189.02439024390245,-4.146341463414634
668,2.969,IMU0,-0.248046875,-0.609375,-0.3662109375,-1.524390243902439,-189.20731707317074,-6.158536585365854
669,2.969,IMU1,-0.2353515625,-0.6044921875,-0.408203125,-3.1097560975609757,-189.02439024390245,-4.329268292682928
670,2.979,IMU0,-0.2392578125,-0.6044921875,-0.3505859375,-1.2804878048780488,-188.84146341463418,-6.341463414634147
671,2.979,IMU1,-0.2265625,-0.599609375,-0.39453125,-3.1707317073170733,-188.78048780487808,-4.451219512195122
672,2.989,IMU0,-0.232421875,-0.6015625,-0.3466796875,-1.0975609756097562,-188.47560975609758,-6.585365853658537
673,2.989,IMU1,-0.2236328125,-0.591796875,-0.390625,-2.987804878048781,-188.35365853658539,-4.817073170731708
674,2.999,IMU0,-0.208984375,-0.59765625,-0.3525390625,-0.9756097560975611,-188.1707317073171,-6.829268292682928
675,2.999,IMU1,-0.1982421875,-0.5927734375,-0.3955078125,-2.987804878048781,-187.9268292682927,-5.0
676,3.009,IMU0,-0.19140625,-0.5908203125,-0.3515625,-0.853658536585366,-187.9878048780488,-6.646341463414635
677,3.009,IMU1,-0.1767578125,-0.5849609375,-0.3896484375,-2.9268292682926833,-187.8658536585366,-4.75609756097561
678,3.019,IMU0,-0.193359375,-0.5888671875,-0.337890625,-0.5487804878048781,-188.2317073170732,-6.52439024390244
679,3.019,IMU1,-0.1826171875,-0.583984375,-0.3818359375,-2.7439024390243905,-188.35365853658539,-4.51219512195122
680,3.029,IMU0,-0.19921875,-0.5849609375,-0.3330078125,-0.6707317073170732,-188.53658536585368,-6.2804878048780495
681,3.029,IMU1,-0.189453125,-0.5869140625,-0.37890625,-2.6219512195121952,-188.78048780487808,-4.329268292682928
682,3.039,IMU0,-0.1826171875,-0.587890625,-0.337890625,-0.853658536585366,-189.14634146341464,-5.975609756097562
683,3.039,IMU1,-0.173828125,-0.5849609375,-0.380859375,-2.5609756097560976,-189.32926829268294,-4.024390243902439
684,3.049,IMU0,-0.205078125,-0.5859375,-0.34375,-0.7317073170731708,-189.39024390243904,-5.7926829268292686
685,3.049,IMU1,-0.193359375,-0.5810546875,-0.3876953125,-2.5,-189.57317073170734,-3.8414634146341466
686,3.059,IMU0,-0.1767578125,-0.583984375,-0.333984375,-0.426829268292683,-189.69512195121953,-5.853658536585367
687,3.059,IMU1,-0.1640625,-0.5751953125,-0.3818359375,-2.439024390243903,-189.75609756097563,-3.9024390243902443
688,3.069,IMU0,-0.173828125,-0.578125,-0.32421875,-0.5487804878048781,-189.63414634146343,-5.609756097560976
689,3.069,IMU1,-0.158203125,-0.5751953125,-0.3662109375,-2.439024390243903,-189.93902439024393,-3.658536585365854
690,3.079,IMU0,-0.162109375,-0.5771484375,-0.3388671875,-0.3658536585365854,-189.51219512195124,-5.853658536585367
691,3.079,IMU1,-0.1494140625,-0.568359375,-0.3779296875,-2.378048780487805,-189.51219512195124,-3.8414634146341466
692,3.089,IMU0,-0.13671875,-0.58203125,-0.3203125,0.0,-190.3048780487805,-5.2439024390243905
693,3.089,IMU1,-0.1259765625,-0.5732421875,-0.365234375,-2.0121951219512195,-190.3658536585366,-3.231707317073171
694,3.099,IMU0,-0.166015625,-0.5771484375,-0.31640625,-0.12195121951219513,-191.70731707317074,-4.51219512195122
695,3.099,IMU1,-0.1533203125,-0.5703125,-0.3583984375,-2.1951219512195124,-191.89024390243904,-2.5
696,3.109,IMU0,-0.177734375,-0.580078125,-0.341796875,-0.12195121951219513,-193.47560975609758,-4.390243902439025
697,3.109,IMU1,-0.1689453125,-0.5751953125,-0.3876953125,-2.25609756097561,-193.65853658536588,-2.378048780487805
698,3.119,IMU0,-0.16015625,-0.5849609375,-0.34765625,-0.1829268292682927,-194.63414634146343,-3.9024390243902443
699,3.119,IMU1,-0.1513671875,-0.578125,-0.3935546875,-2.25609756097561,-195.00000000000003,-1.9512195121951221
700,3.129,IMU0,-0.173828125,-0.5703125,-0.37109375,0.0,-195.3658536585366,-3.780487804878049
701,3.129,IMU1,-0.1572265625,-0.5615234375,-0.4130859375,-2.073170731707317,-195.609756097561,-1.7682926829268295
702,3.139,IMU0,-0.1455078125,-0.5732421875,-0.36328125,0.3658536585365854,-195.85365853658539,-3.963414634146342
703,3.139,IMU1,-0.1357421875,-0.5654296875,-0.41015625,-1.5853658536585367,-196.03658536585368,-2.0121951219512195
704,3.149,IMU0,-0.1416015625,-0.5703125,-0.3505859375,0.7317073170731708,-195.97560975609758,-3.536585365853659
705,3.149,IMU1,-0.12890625,-0.5693359375,-0.3955078125,-1.402439024390244,-196.15853658536588,-1.524390243902439
706,3.159,IMU0,-0.130859375,-0.5673828125,-0.341796875,1.2195121951219514,-195.97560975609758,-3.353658536585366
707,3.159,IMU1,-0.1171875,-0.5625,-0.3828125,-0.853658536585366,-195.97560975609758,-1.3414634146341464
708,3.169,IMU0,-0.158203125,-0.5625,-0.3349609375,1.5853658536585367,-195.7926829268293,-3.1097560975609757
709,3.169,IMU1,-0.1494140625,-0.556640625,-0.3798828125,-0.6097560975609757,-195.7317073170732,-1.0365853658536586
710,3.179,IMU0,-0.1640625,-0.5693359375,-0.3154296875,1.6463414634146343,-195.3658536585366,-2.378048780487805
711,3.179,IMU1,-0.154296875,-0.564453125,-0.359375,-0.6097560975609757,-195.1829268292683,-0.426829268292683
712,3.189,IMU0,-0.1875,-0.5595703125,-0.32421875,1.5853658536585367,-194.57317073170734,-2.25609756097561
713,3.189,IMU1,-0.1748046875,-0.5595703125,-0.3642578125,-0.6097560975609757,-194.32926829268294,-0.1829268292682927
714,3.199,IMU0,-0.181640625,-0.5615234375,-0.3154296875,1.7682926829268295,-193.84146341463418,-2.378048780487805
715,3.199,IMU1,-0.169921875,-0.5546875,-0.36328125,-0.3658536585365854,-193.65853658536588,-0.3658536585365854
716,3.209,IMU0,-0.1796875,-0.568359375,-0.2978515625,1.829268292682927,-192.9268292682927,-2.073170731707317
717,3.209,IMU1,-0.1689453125,-0.564453125,-0.3447265625,-0.3658536585365854,-193.0487804878049,-0.06097560975609757
718,3.219,IMU0,-0.20703125,-0.5625,-0.302734375,2.073170731707317,-192.43902439024393,-2.073170731707317
719,3.219,IMU1,-0.1962890625,-0.5576171875,-0.3466796875,-0.3658536585365854,-192.19512195121953,-0.06097560975609757
720,3.229,IMU0,-0.1953125,-0.5625,-0.29296875,1.9512195121951221,-191.82926829268294,-2.1951219512195124
721,3.229,IMU1,-0.1875,-0.5576171875,-0.333984375,-0.3658536585365854,-191.64634146341464,-0.24390243902439027
722,3.239,IMU0,-0.201171875,-0.55859375,-0.2841796875,1.7682926829268295,-190.97560975609758,-2.378048780487805
723,3.239,IMU1,-0.1865234375,-0.5517578125,-0.3203125,-0.5487804878048781,-190.85365853658539,-0.426829268292683
724,3.249,IMU0,-0.18359375,-0.55859375,-0.271484375,1.5853658536585367,-190.609756097561,-2.6219512195121952
725,3.249,IMU1,-0.1728515625,-0.5517578125,-0.314453125,-0.48780487804878053,-190.6707317073171,-0.6097560975609757
726,3.259,IMU0,-0.1826171875,-0.552734375,-0.2763671875,1.1585365853658538,-190.1219512195122,-2.439024390243903
727,3.259,IMU1,-0.16796875,-0.5458984375,-0.31640625,-0.7926829268292683,-190.1829268292683,-0.426829268292683
728,3.269,IMU0,-0.1982421875,-0.5498046875,-0.2763671875,1.1585365853658538,-189.87804878048783,-2.439024390243903
729,3.269,IMU1,-0.1904296875,-0.5419921875,-0.3212890625,-0.7926829268292683,-189.87804878048783,-0.5487804878048781
730,3.279,IMU0,-0.1982421875,-0.5498046875,-0.2646484375,1.0975609756097562,-190.00000000000003,-2.073170731707317
731,3.279,IMU1,-0.1884765625,-0.544921875,-0.3076171875,-0.9756097560975611,-189.87804878048783,-0.12195121951219513
732,3.289,IMU0,-0.2158203125,-0.5498046875,-0.26171875,0.9146341463414634,-189.81707317073173,-1.8902439024390245
733,3.289,IMU1,-0.205078125,-0.5439453125,-0.3046875,-1.0365853658536586,-189.93902439024393,0.0
734,3.299,IMU0,-0.2265625,-0.55078125,-0.26953125,0.853658536585366,-189.57317073170734,-2.3170731707317076
735,3.299,IMU1,-0.2138671875,-0.5458984375,-0.3095703125,-1.1585365853658538,-189.39024390243904,-0.426829268292683
736,3.309,IMU0,-0.2109375,-0.5537109375,-0.265625,0.3658536585365854,-188.84146341463418,-2.1951219512195124
737,3.309,IMU1,-0.2001953125,-0.548828125,-0.306640625,-1.707317073170732,-188.78048780487808,-0.24390243902439027
738,3.319,IMU0,-0.224609375,-0.546875,-0.2666015625,0.30487804878048785,-188.2317073170732,-2.439024390243903
739,3.319,IMU1,-0.2119140625,-0.5419921875,-0.310546875,-1.829268292682927,-188.1707317073171,-0.6097560975609757
740,3.329,IMU0,-0.2109375,-0.546875,-0.2412109375,0.3658536585365854,-187.6829268292683,-2.5609756097560976
741,3.329,IMU1,-0.197265625,-0.5439453125,-0.287109375,-1.8902439024390245,-187.56097560975613,-0.7317073170731708
742,3.339,IMU0,-0.2138671875,-0.5478515625,-0.2265625,0.30487804878048785,-186.95121951219514,-2.378048780487805
743,3.339,IMU1,-0.201171875,-0.5458984375,-0.2705078125,-1.6463414634146343,-187.01219512195124,-0.5487804878048781
744,3.349,IMU0,-0.2080078125,-0.5498046875,-0.20703125,0.30487804878048785,-186.52439024390245,-2.3170731707317076
745,3.349,IMU1,-0.1953125,-0.546875,-0.2509765625,-1.707317073170732,-186.76829268292684,-0.426829268292683
746,3.359,IMU0,-0.20703125,-0.5537109375,-0.1826171875,-0.12195121951219513,-186.09756097560978,-2.0121951219512195
747,3.359,IMU1,-0.197265625,-0.5478515625,-0.224609375,-2.073170731707317,-186.28048780487808,-0.12195121951219513
748,3.369,IMU0,-0.2373046875,-0.546875,-0.185546875,-0.853658536585366,-185.4268292682927,-2.1341463414634148
749,3.369,IMU1,-0.2255859375,-0.54296875,-0.2265625,-2.804878048780488,-185.4878048780488,-0.30487804878048785
750,3.379,IMU0,-0.212890625,-0.55078125,-0.1689453125,-1.7682926829268295,-184.81707317073173,-2.3170731707317076
751,3.379,IMU1,-0.201171875,-0.5478515625,-0.2099609375,-3.7195121951219514,-184.69512195121953,-0.426829268292683
752,3.389,IMU0,-0.2197265625,-0.544921875,-0.1767578125,-2.5,-184.45121951219514,-2.3170731707317076
753,3.389,IMU1,-0.2109375,-0.541015625,-0.22265625,-4.573170731707317,-184.32926829268294,-0.426829268292683
754,3.399,IMU0,-0.2109375,-0.54296875,-0.1787109375,-3.1097560975609757,-184.02439024390245,-2.7439024390243905
755,3.399,IMU1,-0.2021484375,-0.5390625,-0.2255859375,-5.2439024390243905,-183.78048780487808,-0.9756097560975611
756,3.409,IMU0,-0.1787109375,-0.5458984375,-0.158203125,-3.8414634146341466,-183.53658536585368,-3.048780487804878
757,3.409,IMU1,-0.1708984375,-0.54296875,-0.201171875,-5.7926829268292686,-183.59756097560978,-1.2804878048780488
758,3.419,IMU0,-0.1669921875,-0.54296875,-0.1591796875,-4.329268292682928,-183.65853658536588,-3.1097560975609757
759,3.419,IMU1,-0.158203125,-0.537109375,-0.2001953125,-6.402439024390245,-183.59756097560978,-1.3414634146341464
760,3.429,IMU0,-0.1416015625,-0.5390625,-0.142578125,-4.939024390243903,-183.78048780487808,-2.682926829268293
761,3.429,IMU1,-0.1328125,-0.5361328125,-0.1884765625,-6.829268292682928,-183.65853658536588,-0.9756097560975611
762,3.439,IMU0,-0.1298828125,-0.5302734375,-0.140625,-5.426829268292684,-183.84146341463415,-1.707317073170732
763,3.439,IMU1,-0.119140625,-0.5263671875,-0.18359375,-7.378048780487806,-183.71951219512198,0.06097560975609757
764,3.449,IMU0,-0.1298828125,-0.525390625,-0.1376953125,-5.7926829268292686,-184.02439024390245,-0.3658536585365854
765,3.449,IMU1,-0.119140625,-0.5205078125,-0.1787109375,-7.621951219512196,-183.84146341463415,1.3414634146341464
766,3.459,IMU0,-0.1728515625,-0.5302734375,-0.1474609375,-6.158536585365854,-183.71951219512198,0.6097560975609757
767,3.459,IMU1,-0.1591796875,-0.5244140625,-0.1865234375,-8.109756097560977,-183.59756097560978,2.3170731707317076
768,3.469,IMU0,-0.1953125,-0.5322265625,-0.1552734375,-7.01219512195122,-183.2317073170732,0.9146341463414634
769,3.469,IMU1,-0.18359375,-0.52734375,-0.1943359375,-8.963414634146343,-183.1707317073171,2.682926829268293
770,3.479,IMU0,-0.2119140625,-0.53125,-0.1591796875,-7.926829268292684,-182.6829268292683,0.9146341463414634
771,3.479,IMU1,-0.201171875,-0.5244140625,-0.201171875,-9.878048780487806,-182.6829268292683,2.6219512195121952
772,3.489,IMU0,-0.216796875,-0.5224609375,-0.1826171875,-8.78048780487805,-182.13414634146343,0.6097560975609757
773,3.489,IMU1,-0.2060546875,-0.5185546875,-0.2265625,-10.792682926829269,-182.19512195121953,2.3170731707317076
774,3.499,IMU0,-0.203125,-0.525390625,-0.205078125,-9.146341463414634,-181.58536585365854,0.5487804878048781
775,3.499,IMU1,-0.193359375,-0.521484375,-0.2509765625,-11.28048780487805,-181.52439024390245,2.25609756097561
776,3.509,IMU0,-0.1953125,-0.5205078125,-0.2294921875,-9.146341463414634,-180.7926829268293,0.6707317073170732
777,3.509,IMU1,-0.1845703125,-0.515625,-0.27734375,-11.158536585365855,-180.91463414634148,2.25609756097561
778,3.519,IMU0,-0.1875,-0.517578125,-0.232421875,-8.963414634146343,-180.1829268292683,0.9146341463414634
779,3.519,IMU1,-0.1748046875,-0.5146484375,-0.28125,-10.914634146341465,-180.1829268292683,2.6219512195121952
780,3.529,IMU0,-0.19921875,-0.5166015625,-0.2265625,-8.658536585365855,-179.57317073170734,1.3414634146341464
781,3.529,IMU1,-0.1884765625,-0.51171875,-0.2734375,-10.487804878048781,-179.63414634146343,3.048780487804878
782,3.539,IMU0,-0.21875,-0.515625,-0.2216796875,-8.597560975609756,-178.90243902439025,1.6463414634146343
783,3.539,IMU1,-0.2080078125,-0.5107421875,-0.2705078125,-10.426829268292684,-179.02439024390245,3.353658536585366
784,3.549,IMU0,-0.224609375,-0.513671875,-0.2216796875,-8.597560975609756,-178.35365853658539,1.524390243902439
785,3.549,IMU1,-0.212890625,-0.5087890625,-0.2646484375,-10.426829268292684,-178.47560975609758,3.231707317073171
786,3.559,IMU0,-0.2275390625,-0.509765625,-0.2509765625,-8.719512195121952,-177.5609756097561,1.402439024390244
787,3.559,IMU1,-0.216796875,-0.5068359375,-0.2958984375,-10.731707317073171,-177.6219512195122,3.1097560975609757
788,3.569,IMU0,-0.2236328125,-0.509765625,-0.271484375,-8.536585365853659,-176.82926829268294,1.0975609756097562
789,3.569,IMU1,-0.2119140625,-0.505859375,-0.3203125,-10.731707317073171,-176.82926829268294,2.8658536585365857
790,3.579,IMU0,-0.2255859375,-0.5107421875,-0.26953125,-8.231707317073171,-175.91463414634148,1.0365853658536586
791,3.579,IMU1,-0.2138671875,-0.505859375,-0.31640625,-10.487804878048781,-175.85365853658539,2.682926829268293
792,3.589,IMU0,-0.2197265625,-0.51171875,-0.279296875,-8.292682926829269,-175.0609756097561,0.9146341463414634
793,3.589,IMU1,-0.2099609375,-0.50390625,-0.3291015625,-10.30487804878049,-175.00000000000003,2.5609756097560976
794,3.599,IMU0,-0.24609375,-0.505859375,-0.3095703125,-7.987804878048781,-174.26829268292684,0.6097560975609757
795,3.599,IMU1,-0.2333984375,-0.5,-0.353515625,-9.817073170731708,-174.20731707317074,2.25609756097561
796,3.609,IMU0,-0.2373046875,-0.5087890625,-0.3125,-7.195121951219513,-173.2317073170732,0.48780487804878053
797,3.609,IMU1,-0.2236328125,-0.5029296875,-0.3583984375,-9.146341463414634,-173.2317073170732,2.1341463414634148
798,3.619,IMU0,-0.251953125,-0.50390625,-0.2978515625,-6.402439024390245,-172.31707317073173,0.3658536585365854
799,3.619,IMU1,-0.2412109375,-0.498046875,-0.341796875,-8.170731707317074,-172.43902439024393,2.0121951219512195
800,3.629,IMU0,-0.2666015625,-0.5,-0.2939453125,-5.853658536585367,-171.09756097560978,-0.12195121951219513
801,3.629,IMU1,-0.2548828125,-0.4951171875,-0.33984375,-7.682926829268293,-171.21951219512198,1.4634146341463417
802,3.639,IMU0,-0.267578125,-0.5009765625,-0.2998046875,-5.548780487804878,-169.51219512195124,-0.853658536585366
803,3.639,IMU1,-0.2548828125,-0.498046875,-0.345703125,-7.500000000000001,-169.57317073170734,0.853658536585366
804,3.649,IMU0,-0.2626953125,-0.5,-0.3310546875,-5.2439024390243905,-167.6219512195122,-1.3414634146341464
805,3.649,IMU1,-0.251953125,-0.494140625,-0.3740234375,-7.195121951219513,-167.37804878048783,0.24390243902439027
806,3.659,IMU0,-0.291015625,-0.498046875,-0.3623046875,-5.0,-165.7317073170732,-1.9512195121951221
807,3.659,IMU1,-0.2802734375,-0.4912109375,-0.4072265625,-7.01219512195122,-165.6707317073171,-0.24390243902439027
808,3.669,IMU0,-0.2783203125,-0.501953125,-0.375,-4.451219512195122,-164.32926829268294,-2.5609756097560976
809,3.669,IMU1,-0.2685546875,-0.49609375,-0.4208984375,-6.341463414634147,-164.20731707317074,-0.9756097560975611
810,3.679,IMU0,-0.302734375,-0.4970703125,-0.3642578125,-3.4756097560975614,-162.9878048780488,-3.414634146341464
811,3.679,IMU1,-0.2919921875,-0.490234375,-0.412109375,-5.487804878048781,-162.8658536585366,-1.829268292682927
812,3.689,IMU0,-0.2890625,-0.4990234375,-0.3623046875,-2.7439024390243905,-161.76829268292684,-4.146341463414634
813,3.689,IMU1,-0.2802734375,-0.4921875,-0.4091796875,-4.817073170731708,-161.76829268292684,-2.6219512195121952
814,3.699,IMU0,-0.3017578125,-0.4951171875,-0.3720703125,-1.8902439024390245,-160.6707317073171,-4.75609756097561
815,3.699,IMU1,-0.2900390625,-0.4892578125,-0.419921875,-3.9024390243902443,-160.609756097561,-3.231707317073171
816,3.709,IMU0,-0.30078125,-0.49609375,-0.353515625,-1.2804878048780488,-159.26829268292684,-5.670731707317073
817,3.709,IMU1,-0.2890625,-0.490234375,-0.400390625,-3.1097560975609757,-159.32926829268294,-4.146341463414634
818,3.719,IMU0,-0.30078125,-0.494140625,-0.365234375,-0.853658536585366,-157.9878048780488,-6.585365853658537
819,3.719,IMU1,-0.2890625,-0.4892578125,-0.4091796875,-2.682926829268293,-157.9268292682927,-5.0
820,3.729,IMU0,-0.2900390625,-0.4951171875,-0.3564453125,-0.30487804878048785,-156.95121951219514,-7.560975609756098
821,3.729,IMU1,-0.28125,-0.4892578125,-0.3974609375,-2.073170731707317,-156.76829268292684,-6.158536585365854
822,3.739,IMU0,-0.2646484375,-0.4970703125,-0.359375,0.12195121951219513,-155.7926829268293,-8.170731707317074
823,3.739,IMU1,-0.2529296875,-0.4921875,-0.404296875,-1.707317073170732,-155.7926829268293,-6.707317073170732
824,3.749,IMU0,-0.26953125,-0.486328125,-0.341796875,0.48780487804878053,-154.57317073170734,-8.963414634146343
825,3.749,IMU1,-0.2578125,-0.482421875,-0.384765625,-1.2804878048780488,-154.75609756097563,-7.500000000000001
826,3.759,IMU0,-0.263671875,-0.486328125,-0.3642578125,1.0975609756097562,-153.78048780487805,-9.817073170731708
827,3.759,IMU1,-0.2529296875,-0.4814453125,-0.40625,-0.6097560975609757,-154.02439024390245,-8.414634146341465
828,3.769,IMU0,-0.234375,-0.4892578125,-0.337890625,1.402439024390244,-153.0487804878049,-10.24390243902439
829,3.769,IMU1,-0.2236328125,-0.4853515625,-0.3828125,-0.1829268292682927,-153.109756097561,-8.841463414634147
830,3.779,IMU0,-0.24609375,-0.478515625,-0.3359375,1.7682926829268295,-152.31707317073173,-10.670731707317074
831,3.779,IMU1,-0.23046875,-0.474609375,-0.376953125,0.0,-152.31707317073173,-9.207317073170733
832,3.789,IMU0,-0.228515625,-0.4765625,-0.30859375,2.1341463414634148,-151.89024390243904,-11.402439024390246
833,3.789,IMU1,-0.216796875,-0.4697265625,-0.3515625,0.30487804878048785,-151.89024390243904,-9.878048780487806
834,3.799,IMU0,-0.20703125,-0.4814453125,-0.2783203125,2.439024390243903,-151.64634146341464,-11.707317073170733
835,3.799,IMU1,-0.197265625,-0.4765625,-0.322265625,0.6097560975609757,-151.70731707317074,-10.182926829268293
836,3.809,IMU0,-0.1884765625,-0.47265625,-0.26953125,2.5609756097560976,-151.76829268292684,-12.256097560975611
837,3.809,IMU1,-0.1748046875,-0.46875,-0.3125,0.6097560975609757,-151.70731707317074,-10.731707317073171
838,3.819,IMU0,-0.1728515625,-0.470703125,-0.275390625,2.439024390243903,-151.09756097560978,-12.926829268292684
839,3.819,IMU1,-0.1611328125,-0.4677734375,-0.318359375,0.3658536585365854,-150.91463414634148,-11.402439024390246
840,3.829,IMU0,-0.1240234375,-0.4716796875,-0.2666015625,2.1341463414634148,-150.4268292682927,-13.414634146341465
841,3.829,IMU1,-0.111328125,-0.4697265625,-0.3076171875,0.24390243902439027,-150.3048780487805,-11.890243902439025
842,3.839,IMU0,-0.0732421875,-0.466796875,-0.25390625,2.0121951219512195,-150.4268292682927,-13.353658536585368
843,3.839,IMU1,-0.0595703125,-0.46484375,-0.2958984375,0.3658536585365854,-150.4878048780488,-11.890243902439025
844,3.849,IMU0,-0.0361328125,-0.4638671875,-0.2431640625,2.1341463414634148,-150.1829268292683,-12.80487804878049
845,3.849,IMU1,-0.021484375,-0.4599609375,-0.2861328125,0.30487804878048785,-150.3048780487805,-11.219512195121952
846,3.859,IMU0,-0.01171875,-0.45703125,-0.1982421875,2.3170731707317076,-150.0609756097561,-11.585365853658537
847,3.859,IMU1,0.001953125,-0.453125,-0.2373046875,0.3658536585365854,-150.1219512195122,-10.0
848,3.869,IMU0,-0.0126953125,-0.455078125,-0.16015625,2.0121951219512195,-150.1219512195122,-10.487804878048781
849,3.869,IMU1,0.0009765625,-0.451171875,-0.203125,0.0,-150.1219512195122,-8.902439024390244
850,3.879,IMU0,-0.005859375,-0.453125,-0.15625,1.0365853658536586,-150.0609756097561,-9.51219512195122
851,3.879,IMU1,0.005859375,-0.447265625,-0.1953125,-0.9146341463414634,-150.0,-7.926829268292684
852,3.889,IMU0,0.005859375,-0.451171875,-0.162109375,-0.24390243902439027,-149.81707317073173,-8.475609756097562
853,3.889,IMU1,0.01953125,-0.4462890625,-0.2021484375,-2.1951219512195124,-149.87804878048783,-6.951219512195123
854,3.899,IMU0,0.0048828125,-0.453125,-0.2119140625,-1.1585365853658538,-149.57317073170734,-7.317073170731708
855,3.899,IMU1,0.0185546875,-0.447265625,-0.2548828125,-3.1097560975609757,-149.45121951219514,-5.7926829268292686
856,3.909,IMU0,0.001953125,-0.453125,-0.2314453125,-1.4634146341463417,-148.35365853658539,-6.2804878048780495
857,3.909,IMU1,0.0146484375,-0.44921875,-0.2734375,-3.414634146341464,-148.78048780487805,-4.75609756097561
858,3.919,IMU0,0.0029296875,-0.45703125,-0.22265625,-1.402439024390244,-147.8658536585366,-5.121951219512195
859,3.919,IMU1,0.0166015625,-0.453125,-0.263671875,-3.7195121951219514,-147.8658536585366,-3.536585365853659
860,3.929,IMU0,-0.0107421875,-0.453125,-0.2333984375,-1.9512195121951221,-147.19512195121953,-3.7195121951219514
861,3.929,IMU1,0.0009765625,-0.4482421875,-0.279296875,-4.085365853658537,-147.07317073170734,-2.25609756097561
862,3.939,IMU0,-0.0244140625,-0.453125,-0.2548828125,-2.378048780487805,-146.76829268292684,-2.6219512195121952
863,3.939,IMU1,-0.013671875,-0.451171875,-0.2998046875,-4.451219512195122,-146.70731707317074,-1.1585365853658538
864,3.949,IMU0,-0.0380859375,-0.455078125,-0.2734375,-2.5609756097560976,-146.70731707317074,-1.6463414634146343
865,3.949,IMU1,-0.0244140625,-0.4521484375,-0.3173828125,-4.634146341463415,-146.64634146341464,-0.30487804878048785
866,3.959,IMU0,-0.0478515625,-0.4560546875,-0.294921875,-2.25609756097561,-146.58536585365854,-0.9756097560975611
867,3.959,IMU1,-0.0341796875,-0.451171875,-0.33984375,-4.2682926829268295,-146.40243902439025,0.3658536585365854
868,3.969,IMU0,-0.041015625,-0.4580078125,-0.2734375,-2.0121951219512195,-146.40243902439025,-0.3658536585365854
869,3.969,IMU1,-0.02734375,-0.453125,-0.318359375,-3.963414634146342,-146.34146341463415,0.9756097560975611
870,3.979,IMU0,-0.0537109375,-0.4501953125,-0.2900390625,-1.7682926829268295,-146.34146341463415,0.1829268292682927
871,3.979,IMU1,-0.0400390625,-0.4453125,-0.3330078125,-3.7195121951219514,-146.21951219512195,1.524390243902439
872,3.989,IMU0,-0.0634765625,-0.451171875,-0.2744140625,-1.402439024390244,-146.52439024390245,0.7317073170731708
873,3.989,IMU1,-0.0498046875,-0.447265625,-0.3203125,-3.1707317073170733,-146.46341463414635,2.1341463414634148
874,3.999,IMU0,-0.0673828125,-0.453125,-0.2841796875,-0.9146341463414634,-146.70731707317074,1.3414634146341464
875,3.999,IMU1,-0.0546875,-0.4501953125,-0.330078125,-2.804878048780488,-146.64634146341464,2.804878048780488
876,4.009,IMU0,-0.078125,-0.447265625,-0.2568359375,-0.5487804878048781,-146.40243902439025,1.8902439024390245
877,4.009,IMU1,-0.0654296875,-0.443359375,-0.3017578125,-2.3170731707317076,-146.64634146341464,3.231707317073171
878,4.019,IMU0,-0.09765625,-0.44921875,-0.2548828125,0.12195121951219513,-146.70731707317074,1.9512195121951221
879,4.019,IMU1,-0.0849609375,-0.443359375,-0.2998046875,-2.25609756097561,-146.46341463414635,3.414634146341464
880,4.029,IMU0,-0.08203125,-0.4501953125,-0.2431640625,0.5487804878048781,-146.82926829268294,2.073170731707317
881,4.029,IMU1,-0.0712890625,-0.4453125,-0.291015625,-1.8902439024390245,-146.58536585365854,3.536585365853659
882,4.039,IMU0,-0.0859375,-0.4423828125,-0.2548828125,0.48780487804878053,-146.76829268292684,2.3170731707317076
883,4.039,IMU1,-0.072265625,-0.4365234375,-0.30078125,-2.073170731707317,-146.52439024390245,3.780487804878049
884,4.049,IMU0,-0.080078125,-0.4423828125,-0.2626953125,0.853658536585366,-147.31707317073173,2.25609756097561
885,4.049,IMU1,-0.068359375,-0.4365234375,-0.3095703125,-1.5853658536585367,-147.31707317073173,3.7195121951219514
886,4.059,IMU0,-0.068359375,-0.4443359375,-0.2578125,0.6707317073170732,-147.31707317073173,2.6219512195121952
887,4.059,IMU1,-0.056640625,-0.44140625,-0.3037109375,-1.524390243902439,-147.5,4.024390243902439
888,4.069,IMU0,-0.0830078125,-0.4365234375,-0.2470703125,1.1585365853658538,-147.5609756097561,2.7439024390243905
889,4.069,IMU1,-0.0693359375,-0.4326171875,-0.291015625,-0.6707317073170732,-147.6219512195122,4.207317073170732
890,4.079,IMU0,-0.0751953125,-0.435546875,-0.2451171875,1.7682926829268295,-147.9268292682927,2.682926829268293
891,4.079,IMU1,-0.0634765625,-0.4306640625,-0.2900390625,-0.30487804878048785,-147.5,4.146341463414634
892,4.089,IMU0,-0.0634765625,-0.44140625,-0.23046875,1.9512195121951221,-147.8048780487805,2.987804878048781
893,4.089,IMU1,-0.0517578125,-0.4375,-0.2724609375,-0.12195121951219513,-147.25609756097563,4.390243902439025
894,4.099,IMU0,-0.064453125,-0.435546875,-0.232421875,1.707317073170732,-147.25609756097563,3.1707317073170733
895,4.099,IMU1,-0.052734375,-0.431640625,-0.2744140625,0.06097560975609757,-147.37804878048783,4.573170731707317
896,4.109,IMU0,-0.056640625,-0.43359375,-0.2138671875,2.0121951219512195,-147.37804878048783,3.353658536585366
897,4.109,IMU1,-0.044921875,-0.4287109375,-0.2578125,0.12195121951219513,-147.13414634146343,4.817073170731708
898,4.119,IMU0,-0.0732421875,-0.4375,-0.22265625,2.1951219512195124,-147.8048780487805,3.658536585365854
899,4.119,IMU1,-0.0625,-0.431640625,-0.265625,-0.24390243902439027,-147.4390243902439,5.182926829268293
900,4.129,IMU0,-0.0751953125,-0.4365234375,-0.2197265625,2.073170731707317,-147.8658536585366,4.146341463414634
901,4.129,IMU1,-0.064453125,-0.4326171875,-0.263671875,-0.426829268292683,-147.5,5.670731707317073
902,4.139,IMU0,-0.0830078125,-0.4306640625,-0.2138671875,1.707317073170732,-147.6219512195122,4.573170731707317
903,4.139,IMU1,-0.0703125,-0.42578125,-0.2578125,-0.6097560975609757,-147.5,6.036585365853659
904,4.149,IMU0,-0.11328125,-0.4296875,-0.21875,1.5853658536585367,-147.31707317073173,4.695121951219512
905,4.149,IMU1,-0.1025390625,-0.4228515625,-0.2607421875,-0.5487804878048781,-147.19512195121953,6.158536585365854
906,4.159,IMU0,-0.103515625,-0.4365234375,-0.2001953125,1.8902439024390245,-147.13414634146343,4.75609756097561
907,4.159,IMU1,-0.0927734375,-0.4296875,-0.2431640625,-0.1829268292682927,-146.82926829268294,6.2804878048780495
908,4.169,IMU0,-0.11328125,-0.431640625,-0.1923828125,1.9512195121951221,-146.89024390243904,4.939024390243903
909,4.169,IMU1,-0.1015625,-0.4267578125,-0.2333984375,0.0,-146.64634146341464,6.341463414634147
910,4.179,IMU0,-0.130859375,-0.42578125,-0.1953125,1.9512195121951221,-146.76829268292684,4.939024390243903
911,4.179,IMU1,-0.119140625,-0.421875,-0.23828125,0.06097560975609757,-146.64634146341464,6.341463414634147
912,4.189,IMU0,-0.1435546875,-0.4248046875,-0.2001953125,1.707317073170732,-146.58536585365854,5.3048780487804885
913,4.189,IMU1,-0.1318359375,-0.419921875,-0.244140625,-0.30487804878048785,-146.40243902439025,6.7682926829268295
914,4.199,IMU0,-0.17578125,-0.4189453125,-0.2119140625,1.5853658536585367,-146.03658536585368,5.426829268292684
915,4.199,IMU1,-0.1630859375,-0.4150390625,-0.2578125,-0.3658536585365854,-145.91463414634148,6.829268292682928
916,4.209,IMU0,-0.2080078125,-0.4248046875,-0.2197265625,1.5853658536585367,-145.5487804878049,5.3048780487804885
917,4.209,IMU1,-0.1962890625,-0.419921875,-0.2646484375,-0.3658536585365854,-145.1219512195122,6.707317073170732
918,4.219,IMU0,-0.22265625,-0.4306640625,-0.2119140625,1.524390243902439,-144.57317073170734,4.878048780487806
919,4.219,IMU1,-0.2119140625,-0.4267578125,-0.2548828125,-0.06097560975609757,-144.32926829268294,6.219512195121951
920,4.229,IMU0,-0.2314453125,-0.42578125,-0.1904296875,1.5853658536585367,-143.2317073170732,4.024390243902439
921,4.229,IMU1,-0.2216796875,-0.4208984375,-0.2333984375,0.06097560975609757,-143.0487804878049,5.365853658536586
922,4.239,IMU0,-0.220703125,-0.42578125,-0.16796875,1.7682926829268295,-141.76829268292684,2.987804878048781
923,4.239,IMU1,-0.2109375,-0.4189453125,-0.2109375,0.30487804878048785,-141.70731707317074,4.2682926829268295
924,4.249,IMU0,-0.201171875,-0.4267578125,-0.1513671875,1.9512195121951221,-141.15853658536588,2.25609756097561
925,4.249,IMU1,-0.189453125,-0.4208984375,-0.197265625,0.24390243902439027,-140.91463414634148,3.5975609756097566
926,4.259,IMU0,-0.1982421875,-0.4208984375,-0.142578125,1.2195121951219514,-140.3658536585366,1.707317073170732
927,4.259,IMU1,-0.1875,-0.4150390625,-0.189453125,-0.30487804878048785,-140.6707317073171,2.987804878048781
928,4.269,IMU0,-0.193359375,-0.4169921875,-0.134765625,0.5487804878048781,-139.69512195121953,1.1585365853658538
929,4.269,IMU1,-0.18359375,-0.4130859375,-0.18359375,-1.0365853658536586,-140.1829268292683,2.439024390243903
930,4.279,IMU0,-0.181640625,-0.4150390625,-0.13671875,-0.12195121951219513,-139.32926829268294,0.853658536585366
931,4.279,IMU1,-0.1708984375,-0.41015625,-0.18359375,-1.6463414634146343,-140.0,2.1341463414634148
932,4.289,IMU0,-0.1875,-0.4091796875,-0.138671875,0.0,-139.69512195121953,0.426829268292683
933,4.289,IMU1,-0.1767578125,-0.4052734375,-0.181640625,-1.9512195121951221,-139.51219512195124,1.7682926829268295
934,4.299,IMU0,-0.1875,-0.408203125,-0.1337890625,-0.48780487804878053,-139.45121951219514,0.12195121951219513
935,4.299,IMU1,-0.1767578125,-0.4033203125,-0.1787109375,-1.9512195121951221,-139.75609756097563,1.402439024390244
936,4.309,IMU0,-0.1884765625,-0.4111328125,-0.123046875,-0.853658536585366,-139.51219512195124,0.12195121951219513
937,4.309,IMU1,-0.1787109375,-0.4052734375,-0.1669921875,-2.1951219512195124,-140.1829268292683,1.402439024390244
938,4.319,IMU0,-0.1953125,-0.404296875,-0.12890625,-1.3414634146341464,-139.32926829268294,-0.1829268292682927
939,4.319,IMU1,-0.1845703125,-0.3994140625,-0.1728515625,-3.048780487804878,-139.51219512195124,1.0975609756097562
940,4.329,IMU0,-0.1962890625,-0.4052734375,-0.1240234375,-2.1341463414634148,-138.96341463414635,-0.5487804878048781
941,4.329,IMU1,-0.185546875,-0.3994140625,-0.16796875,-3.7195121951219514,-138.96341463414635,0.7317073170731708
942,4.339,IMU0,-0.19140625,-0.4033203125,-0.1298828125,-2.1951219512195124,-139.26829268292684,-0.7317073170731708
943,4.339,IMU1,-0.181640625,-0.3974609375,-0.1748046875,-4.085365853658537,-139.32926829268294,0.48780487804878053
944,4.349,IMU0,-0.19921875,-0.40234375,-0.1396484375,-2.987804878048781,-138.78048780487805,-0.9756097560975611
945,4.349,IMU1,-0.1884765625,-0.3974609375,-0.1826171875,-4.878048780487806,-139.02439024390245,0.1829268292682927
946,4.359,IMU0,-0.1904296875,-0.4033203125,-0.1376953125,-2.9268292682926833,-138.84146341463415,-1.3414634146341464
947,4.359,IMU1,-0.181640625,-0.3984375,-0.1826171875,-4.878048780487806,-138.53658536585368,-0.12195121951219513
948,4.369,IMU0,-0.1884765625,-0.4013671875,-0.1533203125,-3.231707317073171,-138.65853658536585,-1.4634146341463417
949,4.369,IMU1,-0.17578125,-0.396484375,-0.1982421875,-5.182926829268293,-138.109756097561,-0.1829268292682927
950,4.379,IMU0,-0.1982421875,-0.3994140625,-0.142578125,-3.7195121951219514,-137.8048780487805,-1.6463414634146343
951,4.379,IMU1,-0.1875,-0.3935546875,-0.1884765625,-5.365853658536586,-137.9268292682927,-0.426829268292683
952,4.389,IMU0,-0.193359375,-0.4033203125,-0.1416015625,-3.7195121951219514,-137.6219512195122,-1.7682926829268295
953,4.389,IMU1,-0.1826171875,-0.396484375,-0.1904296875,-5.975609756097562,-137.13414634146343,-0.48780487804878053
954,4.399,IMU0,-0.203125,-0.396484375,-0.1455078125,-4.451219512195122,-136.64634146341464,-2.0121951219512195
955,4.399,IMU1,-0.19140625,-0.390625,-0.189453125,-5.853658536585367,-136.58536585365854,-0.7317073170731708
956,4.409,IMU0,-0.197265625,-0.3935546875,-0.146484375,-4.451219512195122,-135.7926829268293,-2.378048780487805
957,4.409,IMU1,-0.185546875,-0.3876953125,-0.1904296875,-6.219512195121951,-135.7317073170732,-1.0975609756097562
958,4.419,IMU0,-0.177734375,-0.39453125,-0.1484375,-4.695121951219512,-135.3048780487805,-2.682926829268293
959,4.419,IMU1,-0.16796875,-0.388671875,-0.1962890625,-6.52439024390244,-135.2439024390244,-1.402439024390244
960,4.429,IMU0,-0.1796875,-0.3876953125,-0.1396484375,-5.182926829268293,-134.26829268292684,-2.7439024390243905
961,4.429,IMU1,-0.166015625,-0.38671875,-0.185546875,-6.951219512195123,-134.14634146341464,-1.3414634146341464
962,4.439,IMU0,-0.1826171875,-0.3876953125,-0.14453125,-5.365853658536586,-133.71951219512195,-3.048780487804878
963,4.439,IMU1,-0.17578125,-0.3818359375,-0.1943359375,-7.195121951219513,-133.71951219512195,-1.707317073170732
964,4.449,IMU0,-0.1728515625,-0.3916015625,-0.1455078125,-5.731707317073171,-133.1707317073171,-2.804878048780488
965,4.449,IMU1,-0.1611328125,-0.3857421875,-0.1904296875,-7.743902439024391,-132.9268292682927,-1.5853658536585367
966,4.459,IMU0,-0.1796875,-0.3876953125,-0.158203125,-5.914634146341464,-132.5609756097561,-3.1097560975609757
967,4.459,IMU1,-0.16796875,-0.3828125,-0.2041015625,-7.865853658536586,-132.5,-1.829268292682927
968,4.469,IMU0,-0.16796875,-0.388671875,-0.1650390625,-6.219512195121951,-132.07317073170734,-3.414634146341464
969,4.469,IMU1,-0.1552734375,-0.3828125,-0.2099609375,-8.109756097560977,-131.95121951219514,-2.1951219512195124
970,4.479,IMU0,-0.1572265625,-0.3828125,-0.158203125,-6.463414634146342,-131.34146341463415,-3.5975609756097566
971,4.479,IMU1,-0.1435546875,-0.3779296875,-0.203125,-8.475609756097562,-131.28048780487805,-2.378048780487805
972,4.489,IMU0,-0.1484375,-0.3818359375,-0.1640625,-6.7682926829268295,-130.85365853658539,-3.7195121951219514
973,4.489,IMU1,-0.13671875,-0.3759765625,-0.2109375,-8.475609756097562,-130.5487804878049,-2.5609756097560976
974,4.499,IMU0,-0.1328125,-0.3828125,-0.16796875,-7.073170731707318,-130.5487804878049,-3.7195121951219514
975,4.499,IMU1,-0.123046875,-0.3798828125,-0.2138671875,-8.414634146341465,-130.3048780487805,-2.6219512195121952
976,4.509,IMU0,-0.1328125,-0.380859375,-0.17578125,-7.134146341463415,-130.4268292682927,-3.658536585365854
977,4.509,IMU1,-0.119140625,-0.375,-0.21875,-9.085365853658537,-130.2439024390244,-2.5
978,4.519,IMU0,-0.12109375,-0.376953125,-0.1826171875,-7.378048780487806,-130.0,-3.658536585365854
979,4.519,IMU1,-0.1103515625,-0.3720703125,-0.2275390625,-9.02439024390244,-129.8780487804878,-2.5
980,4.529,IMU0,-0.11328125,-0.3798828125,-0.201171875,-7.195121951219513,-130.2439024390244,-3.048780487804878
981,4.529,IMU1,-0.1005859375,-0.375,-0.2470703125,-8.902439024390244,-130.0,-1.9512195121951221
982,4.539,IMU0,-0.125,-0.3818359375,-0.1943359375,-6.646341463414635,-130.7926829268293,-2.378048780487805
983,4.539,IMU1,-0.111328125,-0.3759765625,-0.2373046875,-8.353658536585366,-130.4878048780488,-1.2195121951219514
984,4.549,IMU0,-0.1474609375,-0.37890625,-0.1962890625,-6.463414634146342,-130.609756097561,-2.1951219512195124
985,4.549,IMU1,-0.134765625,-0.373046875,-0.240234375,-8.414634146341465,-130.5487804878049,-0.9756097560975611
986,4.559,IMU0,-0.1474609375,-0.380859375,-0.1884765625,-6.219512195121951,-130.5487804878049,-2.25609756097561
987,4.559,IMU1,-0.134765625,-0.375,-0.234375,-8.536585365853659,-130.3048780487805,-0.9756097560975611
988,4.569,IMU0,-0.12890625,-0.37890625,-0.1884765625,-6.2804878048780495,-130.2439024390244,-2.378048780487805
989,4.569,IMU1,-0.1171875,-0.3740234375,-0.2314453125,-8.414634146341465,-130.2439024390244,-1.0975609756097562
990,4.579,IMU0,-0.1298828125,-0.3720703125,-0.19921875,-6.585365853658537,-129.63414634146343,-2.5
991,4.579,IMU1,-0.1181640625,-0.3681640625,-0.24609375,-7.987804878048781,-129.9390243902439,-1.402439024390244
992,4.589,IMU0,-0.1083984375,-0.373046875,-0.203125,-6.2804878048780495,-129.39024390243904,-2.804878048780488
993,4.589,IMU1,-0.0966796875,-0.369140625,-0.248046875,-7.743902439024391,-129.8780487804878,-1.6463414634146343
994,4.599,IMU0,-0.0927734375,-0.3720703125,-0.2138671875,-5.914634146341464,-129.45121951219514,-2.682926829268293
995,4.599,IMU1,-0.0810546875,-0.3671875,-0.2578125,-8.048780487804878,-129.45121951219514,-1.402439024390244
996,4.609,IMU0,-0.0830078125,-0.369140625,-0.2265625,-5.731707317073171,-129.20731707317074,-2.3170731707317076
997,4.609,IMU1,-0.0712890625,-0.36328125,-0.2744140625,-7.439024390243903,-129.32926829268294,-1.1585365853658538
998,4.619,IMU0,-0.0791015625,-0.369140625,-0.23046875,-5.7926829268292686,-129.02439024390245,-1.829268292682927
999,4.619,IMU1,-0.068359375,-0.36328125,-0.275390625,-7.500000000000001,-129.14634146341464,-0.6707317073170732
1000,4.629,IMU0,-0.087890625,-0.3681640625,-0.236328125,-5.853658536585367,-128.71951219512195,-1.2804878048780488
1001,4.629,IMU1,-0.0771484375,-0.3623046875,-0.2822265625,-7.500000000000001,-128.90243902439025,-0.1829268292682927
1002,4.639,IMU0,-0.1005859375,-0.3720703125,-0.2568359375,-5.2439024390243905,-128.96341463414635,-0.9146341463414634
1003,4.639,IMU1,-0.087890625,-0.3671875,-0.3017578125,-7.073170731707318,-128.96341463414635,0.30487804878048785
1004,4.649,IMU0,-0.115234375,-0.37109375,-0.2587890625,-4.634146341463415,-129.26829268292684,-0.6707317073170732
1005,4.649,IMU1,-0.103515625,-0.3662109375,-0.302734375,-6.52439024390244,-129.39024390243904,0.5487804878048781
1006,4.659,IMU0,-0.107421875,-0.37109375,-0.271484375,-4.024390243902439,-129.63414634146343,-0.6097560975609757
1007,4.659,IMU1,-0.095703125,-0.3642578125,-0.3154296875,-5.853658536585367,-129.57317073170734,0.6097560975609757
1008,4.669,IMU0,-0.1142578125,-0.3681640625,-0.2666015625,-3.536585365853659,-130.1829268292683,-0.6707317073170732
1009,4.669,IMU1,-0.1005859375,-0.3623046875,-0.3115234375,-5.365853658536586,-130.1829268292683,0.48780487804878053
1010,4.679,IMU0,-0.107421875,-0.373046875,-0.28515625,-2.804878048780488,-130.7317073170732,-0.48780487804878053
1011,4.679,IMU1,-0.0947265625,-0.3662109375,-0.330078125,-4.75609756097561,-130.7317073170732,0.6707317073170732
1012,4.689,IMU0,-0.126953125,-0.369140625,-0.271484375,-1.8902439024390245,-131.34146341463415,-0.426829268292683
1013,4.689,IMU1,-0.1142578125,-0.3642578125,-0.3193359375,-3.963414634146342,-131.46341463414635,0.7926829268292683
1014,4.699,IMU0,-0.1396484375,-0.3681640625,-0.2822265625,-1.5853658536585367,-131.46341463414635,-0.48780487804878053
1015,4.699,IMU1,-0.1279296875,-0.3642578125,-0.3271484375,-3.414634146341464,-131.40243902439025,0.7317073170731708
1016,4.709,IMU0,-0.1337890625,-0.3681640625,-0.2880859375,-1.0365853658536586,-131.64634146341464,-0.7317073170731708
1017,4.709,IMU1,-0.1220703125,-0.3623046875,-0.330078125,-2.682926829268293,-131.58536585365854,0.48780487804878053
1018,4.719,IMU0,-0.1396484375,-0.3671875,-0.3056640625,-0.1829268292682927,-132.13414634146343,-0.9756097560975611
1019,4.719,IMU1,-0.126953125,-0.361328125,-0.3486328125,-2.073170731707317,-132.13414634146343,0.24390243902439027
1020,4.729,IMU0,-0.1337890625,-0.3662109375,-0.314453125,0.5487804878048781,-132.6829268292683,-1.2195121951219514
1021,4.729,IMU1,-0.1220703125,-0.3603515625,-0.359375,-1.3414634146341464,-132.5,0.0
1022,4.739,IMU0,-0.1328125,-0.3662109375,-0.3173828125,1.0975609756097562,-132.9268292682927,-1.524390243902439
1023,4.739,IMU1,-0.12109375,-0.3603515625,-0.3642578125,-0.7926829268292683,-132.8048780487805,-0.24390243902439027
1024,4.749,IMU0,-0.12890625,-0.36328125,-0.3203125,2.0121951219512195,-133.53658536585368,-1.829268292682927
1025,4.749,IMU1,-0.1171875,-0.3583984375,-0.3662109375,-0.12195121951219513,-133.2926829268293,-0.426829268292683
1026,4.759,IMU0,-0.1220703125,-0.365234375,-0.2978515625,2.804878048780488,-133.84146341463415,-2.073170731707317
1027,4.759,IMU1,-0.109375,-0.359375,-0.34375,0.853658536585366,-133.71951219512195,-0.6707317073170732
1028,4.769,IMU0,-0.126953125,-0.36328125,-0.3037109375,3.7195121951219514,-134.57317073170734,-2.3170731707317076
1029,4.769,IMU1,-0.1142578125,-0.357421875,-0.34765625,1.6463414634146343,-134.51219512195124,-0.9146341463414634
1030,4.779,IMU0,-0.1279296875,-0.3642578125,-0.275390625,4.390243902439025,-135.2439024390244,-2.3170731707317076
1031,4.779,IMU1,-0.115234375,-0.3603515625,-0.3203125,2.439024390243903,-135.3048780487805,-0.9146341463414634
1032,4.789,IMU0,-0.1376953125,-0.3603515625,-0.2734375,5.060975609756098,-135.5487804878049,-2.439024390243903
1033,4.789,IMU1,-0.126953125,-0.3564453125,-0.3173828125,3.1707317073170733,-135.5487804878049,-1.0975609756097562
1034,4.799,IMU0,-0.125,-0.3603515625,-0.2587890625,5.609756097560976,-135.2439024390244,-2.682926829268293
1035,4.799,IMU1,-0.1142578125,-0.35546875,-0.306640625,3.5975609756097566,-135.1829268292683,-1.402439024390244
1036,4.809,IMU0,-0.125,-0.35546875,-0.2470703125,6.158536585365854,-134.69512195121953,-3.1707317073170733
1037,4.809,IMU1,-0.1142578125,-0.3505859375,-0.29296875,4.146341463414634,-134.63414634146343,-1.829268292682927
1038,4.819,IMU0,-0.1064453125,-0.3583984375,-0.232421875,6.52439024390244,-134.20731707317074,-3.353658536585366
1039,4.819,IMU1,-0.095703125,-0.35546875,-0.279296875,4.451219512195122,-134.14634146341464,-1.9512195121951221
1040,4.829,IMU0,-0.107421875,-0.3544921875,-0.216796875,6.646341463414635,-133.90243902439025,-3.414634146341464
1041,4.829,IMU1,-0.095703125,-0.349609375,-0.265625,4.695121951219512,-133.84146341463415,-2.073170731707317
1042,4.839,IMU0,-0.115234375,-0.3486328125,-0.2080078125,6.951219512195123,-133.47560975609758,-3.4756097560975614
1043,4.839,IMU1,-0.1025390625,-0.345703125,-0.2529296875,5.0,-133.41463414634148,-2.1341463414634148
1044,4.849,IMU0,-0.10546875,-0.3515625,-0.1845703125,7.134146341463415,-133.78048780487805,-3.353658536585366
1045,4.849,IMU1,-0.09375,-0.3466796875,-0.2294921875,5.3048780487804885,-133.90243902439025,-2.073170731707317
1046,4.859,IMU0,-0.1240234375,-0.353515625,-0.1787109375,6.951219512195123,-133.90243902439025,-3.231707317073171
1047,4.859,IMU1,-0.11328125,-0.3486328125,-0.2216796875,5.3048780487804885,-134.08536585365854,-1.9512195121951221
1048,4.869,IMU0,-0.1220703125,-0.3505859375,-0.177734375,6.52439024390244,-133.78048780487805,-3.353658536585366
1049,4.869,IMU1,-0.1103515625,-0.3466796875,-0.2216796875,4.817073170731708,-133.90243902439025,-2.073170731707317
1050,4.879,IMU0,-0.1181640625,-0.3486328125,-0.169921875,6.52439024390244,-133.2317073170732,-3.414634146341464
1051,4.879,IMU1,-0.1064453125,-0.34375,-0.2138671875,4.75609756097561,-133.2317073170732,-2.1341463414634148
1052,4.889,IMU0,-0.1220703125,-0.345703125,-0.150390625,6.890243902439025,-132.9268292682927,-2.987804878048781
1053,4.889,IMU1,-0.111328125,-0.3408203125,-0.197265625,5.060975609756098,-132.9878048780488,-1.6463414634146343
1054,4.899,IMU0,-0.1259765625,-0.3427734375,-0.130859375,7.439024390243903,-133.47560975609758,-2.682926829268293
1055,4.899,IMU1,-0.11328125,-0.3369140625,-0.17578125,5.670731707317073,-133.41463414634148,-1.3414634146341464
1056,4.909,IMU0,-0.1484375,-0.349609375,-0.0986328125,7.500000000000001,-133.78048780487805,-2.439024390243903
1057,4.909,IMU1,-0.134765625,-0.3447265625,-0.142578125,5.670731707317073,-133.71951219512195,-1.0365853658536586
1058,4.919,IMU0,-0.1650390625,-0.35546875,-0.0751953125,6.829268292682928,-134.08536585365854,-2.804878048780488
1059,4.919,IMU1,-0.1533203125,-0.3515625,-0.119140625,5.060975609756098,-134.08536585365854,-1.402439024390244
1060,4.929,IMU0,-0.162109375,-0.3466796875,-0.056640625,6.097560975609756,-134.20731707317074,-3.658536585365854
1061,4.929,IMU1,-0.15234375,-0.3427734375,-0.1025390625,4.451219512195122,-134.26829268292684,-2.3170731707317076
1062,4.939,IMU0,-0.142578125,-0.34375,-0.037109375,5.365853658536586,-134.45121951219514,-4.51219512195122
1063,4.939,IMU1,-0.1337890625,-0.33984375,-0.08203125,3.658536585365854,-134.45121951219514,-3.1097560975609757
1064,4.949,IMU0,-0.1171875,-0.3291015625,-0.033203125,4.451219512195122,-134.69512195121953,-5.0
1065,4.949,IMU1,-0.109375,-0.326171875,-0.076171875,2.6219512195121952,-134.69512195121953,-3.658536585365854
1066,4.959,IMU0,-0.1171875,-0.3291015625,-0.033203125,4.451219512195122,-134.69512195121953,-5.0
1067,4.959,IMU1,-0.080078125,-0.302734375,-0.0771484375,1.5853658536585367,-135.0609756097561,-3.8414634146341466
1068,4.969,IMU0,-0.07421875,-0.30078125,-0.04296875,2.9268292682926833,-135.7926829268293,-4.75609756097561
1069,4.969,IMU1,-0.0625,-0.2998046875,-0.0908203125,0.9756097560975611,-135.5487804878049,-3.4756097560975614
1070,4.979,IMU0,-0.0732421875,-0.3134765625,-0.052734375,2.6219512195121952,-136.03658536585368,-4.51219512195122
1071,4.979,IMU1,-0.0625,-0.310546875,-0.095703125,0.7926829268292683,-135.97560975609758,-3.231707317073171
1072,4.989,IMU0,-0.064453125,-0.330078125,-0.0458984375,2.5609756097560976,-135.7926829268293,-4.634146341463415
1073,4.989,IMU1,-0.0537109375,-0.328125,-0.0888671875,0.7317073170731708,-135.6707317073171,-3.353658536585366
1074,4.999,IMU0,-0.0537109375,-0.3408203125,-0.0439453125,2.439024390243903,-135.0609756097561,-4.75609756097561
1075,4.999,IMU1,-0.0439453125,-0.337890625,-0.0869140625,0.7317073170731708,-135.0609756097561,-3.4756097560975614
1076,5.009,IMU0,-0.0048828125,-0.3720703125,0.0078125,1.2804878048780488,-134.02439024390245,-4.085365853658537
1077,5.009,IMU1,0.0048828125,-0.37109375,-0.0341796875,-0.30487804878048785,-134.02439024390245,-2.8658536585365857
1078,5.019,IMU0,0.0439453125,-0.35546875,0.0966796875,-1.2195121951219514,-132.8658536585366,-2.5
1079,5.019,IMU1,0.0546875,-0.353515625,0.0595703125,-2.9268292682926833,-132.7439024390244,-1.2195121951219514
1080,5.029,IMU0,-0.015625,-0.328125,0.0400390625,-3.963414634146342,-132.13414634146343,-1.1585365853658538
1081,5.029,IMU1,-0.0029296875,-0.32421875,0.0009765625,-5.853658536585367,-132.13414634146343,0.1829268292682927
1082,5.039,IMU0,-0.037109375,-0.3173828125,-0.01171875,-5.548780487804878,-131.82926829268294,-0.7317073170731708
