,ts,id,Gx,Gy,Gz,Ax,Ay,Az
0,-0.331,IMU0,14.939024390243905,-0.48780487804878053,-5.7926829268292686,-0.0048828125,-0.9951171875,-0.033203125
1,-0.331,IMU1,1.0975609756097562,0.6097560975609757,-0.06097560975609757,0.0234375,-1.0029296875,0.0673828125
2,-0.321,IMU0,15.000000000000002,-0.6097560975609757,-6.219512195121951,0.0029296875,-0.994140625,-0.033203125
3,-0.321,IMU1,1.0975609756097562,0.6097560975609757,-0.06097560975609757,0.0244140625,-1.001953125,0.0673828125
4,-0.311,IMU0,14.878048780487806,-0.9146341463414634,-6.219512195121951,-0.0224609375,-0.99609375,-0.0419921875
5,-0.311,IMU1,1.0975609756097562,0.6097560975609757,-0.06097560975609757,0.0234375,-1.001953125,0.0673828125
6,-0.301,IMU0,15.243902439024392,-0.6707317073170732,-6.341463414634147,-0.0078125,-1.001953125,-0.03515625
7,-0.301,IMU1,1.0365853658536586,0.6707317073170732,-0.12195121951219513,0.0234375,-1.0029296875,0.0673828125
8,-0.291,IMU0,15.060975609756099,-0.9146341463414634,-6.036585365853659,0.0078125,-0.9970703125,-0.03125
9,-0.291,IMU1,1.0365853658536586,0.6097560975609757,-0.12195121951219513,0.0234375,-1.001953125,0.0673828125
10,-0.281,IMU0,15.060975609756099,-0.7926829268292683,-6.2804878048780495,0.0244140625,-1.005859375,-0.0009765625
11,-0.281,IMU1,1.1585365853658538,0.6707317073170732,-0.1829268292682927,0.0234375,-1.001953125,0.0673828125
12,-0.271,IMU0,14.695121951219514,-0.6707317073170732,-6.341463414634147,0.037109375,-1.001953125,-0.0087890625
13,-0.271,IMU1,1.2195121951219514,0.6707317073170732,-0.1829268292682927,0.0244140625,-1.0009765625,0.0673828125
14,-0.261,IMU0,14.939024390243905,-0.426829268292683,-6.341463414634147,0.0166015625,-0.9921875,-0.0087890625
15,-0.261,IMU1,1.2195121951219514,0.6097560975609757,-0.1829268292682927,0.0244140625,-1.0029296875,0.0654296875
16,-0.251,IMU0,14.695121951219514,-0.5487804878048781,-6.097560975609756,0.0126953125,-1.0,-0.0126953125
17,-0.251,IMU1,1.0975609756097562,0.6707317073170732,-0.1829268292682927,0.0234375,-1.001953125,0.0673828125
18,-0.241,IMU0,14.878048780487806,-0.7926829268292683,-6.2804878048780495,0.013671875,-0.994140625,-0.0068359375
19,-0.241,IMU1,1.2195121951219514,0.7317073170731708,-0.12195121951219513,0.0234375,-1.001953125,0.0673828125
20,-0.231,IMU0,14.939024390243905,-0.853658536585366,-6.585365853658537,0.009765625,-0.986328125,-0.009765625
21,-0.231,IMU1,1.2195121951219514,0.6707317073170732,-0.12195121951219513,0.0224609375,-1.001953125,0.0673828125
22,-0.221,IMU0,15.182926829268293,-0.3658536585365854,-6.707317073170732,-0.0048828125,-0.98828125,-0.025390625
23,-0.221,IMU1,1.1585365853658538,0.6707317073170732,-0.12195121951219513,0.0224609375,-1.0029296875,0.0654296875
24,-0.211,IMU0,15.121951219512196,-0.5487804878048781,-6.707317073170732,0.01171875,-0.994140625,-0.0185546875
25,-0.211,IMU1,1.1585365853658538,0.6707317073170732,-0.12195121951219513,0.0224609375,-1.001953125,0.064453125
26,-0.201,IMU0,14.695121951219514,-0.5487804878048781,-6.402439024390245,0.021484375,-0.9990234375,-0.0341796875
27,-0.201,IMU1,1.1585365853658538,0.6707317073170732,-0.12195121951219513,0.0224609375,-1.001953125,0.0654296875
28,-0.191,IMU0,15.060975609756099,-0.7317073170731708,-6.341463414634147,0.017578125,-0.9892578125,-0.02734375
29,-0.191,IMU1,1.0975609756097562,0.6707317073170732,-0.12195121951219513,0.0224609375,-1.001953125,0.064453125
30,-0.181,IMU0,14.878048780487806,-0.9146341463414634,-6.463414634146342,0.0009765625,-0.978515625,-0.0166015625
31,-0.181,IMU1,1.0975609756097562,0.6707317073170732,-0.12195121951219513,0.0244140625,-1.001953125,0.0654296875
32,-0.171,IMU0,14.756097560975611,-0.9756097560975611,-6.341463414634147,0.021484375,-0.9921875,-0.0224609375
33,-0.171,IMU1,1.0975609756097562,0.6707317073170732,-0.12195121951219513,0.0244140625,-1.00390625,0.0673828125
34,-0.161,IMU0,14.573170731707318,-0.9756097560975611,-6.341463414634147,0.0322265625,-0.9931640625,-0.021484375
35,-0.161,IMU1,1.0975609756097562,0.6097560975609757,-0.1829268292682927,0.0244140625,-1.0029296875,0.068359375
36,-0.151,IMU0,14.878048780487806,-0.9146341463414634,-6.463414634146342,0.0126953125,-0.9990234375,-0.01171875
37,-0.151,IMU1,1.2195121951219514,0.6707317073170732,-0.1829268292682927,0.0224609375,-0.9990234375,0.06640625
38,-0.141,IMU0,14.817073170731708,-0.7317073170731708,-6.402439024390245,0.0205078125,-0.99609375,0.0
39,-0.141,IMU1,1.1585365853658538,0.7317073170731708,-0.12195121951219513,0.0205078125,-0.998046875,0.0673828125
40,-0.131,IMU0,15.243902439024392,-0.7926829268292683,-6.463414634146342,0.0361328125,-0.9951171875,-0.017578125
41,-0.131,IMU1,1.2195121951219514,0.7317073170731708,-0.12195121951219513,0.0224609375,-1.0029296875,0.06640625
42,-0.121,IMU0,15.609756097560977,-0.6097560975609757,-6.341463414634147,0.017578125,-0.9912109375,-0.013671875
43,-0.121,IMU1,1.2195121951219514,0.7317073170731708,-0.1829268292682927,0.025390625,-1.005859375,0.064453125
44,-0.111,IMU0,15.060975609756099,-0.48780487804878053,-6.52439024390244,0.017578125,-1.0166015625,-0.0029296875
45,-0.111,IMU1,1.0975609756097562,0.6707317073170732,-0.12195121951219513,0.0224609375,-1.025390625,0.0673828125
46,-0.101,IMU0,14.634146341463415,-1.1585365853658538,-6.585365853658537,-0.076171875,-1.5185546875,0.06640625
47,-0.101,IMU1,0.9146341463414634,0.06097560975609757,-0.3658536585365854,-0.0654296875,-1.583984375,0.1123046875
48,-0.091,IMU0,17.865853658536587,-5.182926829268293,-5.182926829268293,0.001953125,-5.0517578125,0.1337890625
49,-0.091,IMU1,4.51219512195122,-4.451219512195122,0.7317073170731708,0.021484375,-5.2041015625,0.0693359375
50,-0.081,IMU0,13.963414634146343,-10.792682926829269,-3.414634146341464,0.103515625,-9.1669921875,0.1943359375
51,-0.081,IMU1,1.2195121951219514,-9.02439024390244,2.8658536585365857,0.1220703125,-9.4892578125,0.0830078125
52,-0.071,IMU0,15.426829268292684,-12.439024390243903,-7.378048780487806,-0.2861328125,-11.455078125,0.2177734375
53,-0.071,IMU1,0.12195121951219513,-11.341463414634147,-1.2195121951219514,-0.24609375,-11.6279296875,-0.0888671875
54,-0.061,IMU0,11.463414634146343,-22.439024390243905,-11.707317073170733,-0.3525390625,-11.8583984375,0.2568359375
55,-0.061,IMU1,-5.060975609756098,-22.5609756097561,-5.7926829268292686,-0.375,-12.0966796875,-0.0009765625
56,-0.051,IMU0,11.036585365853659,-24.512195121951223,-10.121951219512196,-0.05859375,-11.7705078125,0.1728515625
57,-0.051,IMU1,-6.707317073170732,-26.52439024390244,-4.2682926829268295,-0.0625,-12.0244140625,-0.0791015625
58,-0.041,IMU0,8.963414634146343,-22.073170731707318,-8.231707317073171,-0.123046875,-11.43359375,0.2783203125
59,-0.041,IMU1,-6.951219512195123,-21.52439024390244,-2.987804878048781,-0.154296875,-11.67578125,0.095703125
60,-0.031,IMU0,13.658536585365855,-19.939024390243905,-10.24390243902439,-0.1787109375,-10.908203125,0.267578125
61,-0.031,IMU1,-0.48780487804878053,-20.243902439024392,-4.2682926829268295,-0.1904296875,-11.2109375,0.0703125
62,-0.021,IMU0,13.170731707317074,-21.28048780487805,-10.30487804878049,-0.126953125,-10.025390625,0.1123046875
63,-0.021,IMU1,3.5975609756097566,-18.84146341463415,-3.8414634146341466,-0.1298828125,-10.2529296875,0.009765625
64,-0.011,IMU0,9.085365853658537,-25.000000000000004,-10.0,-0.076171875,-9.7861328125,0.2744140625
65,-0.011,IMU1,0.9756097560975611,-24.512195121951223,-3.414634146341464,-0.12890625,-9.9716796875,0.0810546875
66,-0.001,IMU0,16.890243902439025,-30.426829268292686,-9.878048780487806,-0.15625,-10.3349609375,0.142578125
67,-0.001,IMU1,6.2804878048780495,-31.219512195121954,-3.658536585365854,-0.1552734375,-10.447265625,-0.02734375
68,0.009,IMU0,16.951219512195124,-34.390243902439025,-10.060975609756099,-0.041015625,-10.578125,0.06640625
69,0.009,IMU1,4.878048780487806,-35.243902439024396,-4.085365853658537,-0.0869140625,-10.6435546875,-0.0927734375
70,0.019,IMU0,12.195121951219512,-40.1829268292683,-9.756097560975611,-0.1083984375,-10.685546875,0.197265625
71,0.019,IMU1,-1.402439024390244,-40.243902439024396,-4.024390243902439,-0.15625,-10.779296875,-0.052734375
72,0.029,IMU0,16.463414634146343,-43.90243902439025,-10.792682926829269,-0.052734375,-10.7724609375,0.142578125
73,0.029,IMU1,2.1951219512195124,-44.69512195121952,-5.426829268292684,-0.0810546875,-10.833984375,-0.1015625
74,0.039,IMU0,15.609756097560977,-47.13414634146342,-10.731707317073171,-0.01953125,-10.8037109375,0.146484375
75,0.039,IMU1,1.8902439024390245,-48.23170731707317,-5.609756097560976,-0.0751953125,-10.849609375,-0.1533203125
76,0.049,IMU0,15.121951219512196,-50.91463414634147,-10.731707317073171,-0.072265625,-10.83984375,0.1728515625
77,0.049,IMU1,1.2804878048780488,-51.40243902439025,-5.975609756097562,-0.140625,-10.884765625,-0.064453125
78,0.059,IMU0,14.878048780487806,-53.53658536585366,-11.036585365853659,-0.0458984375,-10.8203125,0.2236328125
79,0.059,IMU1,0.9756097560975611,-53.47560975609757,-5.975609756097562,-0.11328125,-10.8583984375,0.0224609375
80,0.069,IMU0,17.5,-50.426829268292686,-11.097560975609756,-0.0556640625,-10.8046875,0.287109375
81,0.069,IMU1,3.9024390243902443,-50.60975609756098,-5.975609756097562,-0.0947265625,-10.828125,0.0576171875
82,0.079,IMU0,19.878048780487806,-50.304878048780495,-10.914634146341465,-0.0634765625,-10.7939453125,0.1279296875
83,0.079,IMU1,6.097560975609756,-50.73170731707317,-6.097560975609756,-0.091796875,-10.8310546875,-0.1015625
84,0.089,IMU0,18.963414634146343,-49.451219512195124,-11.097560975609756,-0.04296875,-10.763671875,0.255859375
85,0.089,IMU1,5.0,-49.75609756097561,-6.585365853658537,-0.0732421875,-10.79296875,0.0341796875
86,0.099,IMU0,22.25609756097561,-46.58536585365854,-11.951219512195124,-0.044921875,-10.71875,0.255859375
87,0.099,IMU1,8.597560975609756,-46.951219512195124,-7.500000000000001,-0.099609375,-10.7587890625,0.021484375
88,0.109,IMU0,23.78048780487805,-46.707317073170735,-12.560975609756099,-0.0517578125,-10.701171875,0.197265625
89,0.109,IMU1,9.756097560975611,-46.58536585365854,-7.987804878048781,-0.0966796875,-10.7255859375,-0.03125
90,0.119,IMU0,24.634146341463417,-46.28048780487805,-13.29268292682927,-0.041015625,-10.638671875,0.2919921875
91,0.119,IMU1,10.853658536585368,-45.97560975609756,-8.414634146341465,-0.080078125,-10.66015625,0.037109375
92,0.129,IMU0,26.402439024390247,-45.670731707317074,-13.963414634146343,-0.052734375,-10.60546875,0.2138671875
93,0.129,IMU1,13.29268292682927,-45.0609756097561,-8.963414634146343,-0.099609375,-10.61328125,-0.0185546875
94,0.139,IMU0,26.76829268292683,-45.85365853658537,-14.390243902439027,-0.052734375,-10.552734375,0.2392578125
95,0.139,IMU1,13.78048780487805,-45.0609756097561,-9.329268292682928,-0.0908203125,-10.56640625,0.021484375
96,0.149,IMU0,28.963414634146343,-44.024390243902445,-15.000000000000002,-0.0625,-10.5234375,0.2431640625
97,0.149,IMU1,16.28048780487805,-43.47560975609756,-10.060975609756099,-0.103515625,-10.55078125,0.0048828125
98,0.159,IMU0,29.634146341463417,-43.35365853658537,-15.853658536585368,-0.025390625,-10.4990234375,0.208984375
99,0.159,IMU1,17.195121951219512,-42.804878048780495,-10.731707317073171,-0.0849609375,-10.51171875,-0.0068359375
100,0.169,IMU0,31.09756097560976,-42.31707317073171,-16.402439024390244,-0.0322265625,-10.458984375,0.1982421875
101,0.169,IMU1,18.719512195121954,-41.768292682926834,-11.219512195121952,-0.072265625,-10.4658203125,0.0048828125
102,0.179,IMU0,32.6219512195122,-41.40243902439025,-16.890243902439025,-0.0517578125,-10.40234375,0.16796875
103,0.179,IMU1,20.121951219512198,-40.73170731707317,-11.707317073170733,-0.08203125,-10.4296875,-0.0302734375
104,0.189,IMU0,33.59756097560976,-40.1829268292683,-17.621951219512198,-0.037109375,-10.3466796875,0.1953125
105,0.189,IMU1,21.34146341463415,-39.63414634146342,-12.195121951219512,-0.0810546875,-10.373046875,-0.013671875
106,0.199,IMU0,35.1829268292683,-38.84146341463415,-18.231707317073173,-0.052734375,-10.2900390625,0.1630859375
107,0.199,IMU1,23.29268292682927,-38.04878048780488,-12.80487804878049,-0.0966796875,-10.3125,-0.025390625
108,0.209,IMU0,36.463414634146346,-37.6829268292683,-18.597560975609756,-0.0498046875,-10.240234375,0.1650390625
109,0.209,IMU1,24.390243902439025,-37.01219512195122,-13.29268292682927,-0.087890625,-10.255859375,-0.03515625
110,0.219,IMU0,38.10975609756098,-36.707317073170735,-18.902439024390244,-0.04296875,-10.158203125,0.169921875
111,0.219,IMU1,25.731707317073173,-35.85365853658537,-13.78048780487805,-0.091796875,-10.185546875,-0.0322265625
112,0.229,IMU0,39.146341463414636,-35.487804878048784,-19.146341463414636,-0.0439453125,-10.099609375,0.1669921875
113,0.229,IMU1,26.76829268292683,-34.81707317073171,-14.146341463414636,-0.0908203125,-10.1123046875,-0.052734375
114,0.239,IMU0,40.0609756097561,-34.57317073170732,-19.939024390243905,-0.0400390625,-10.052734375,0.162109375
115,0.239,IMU1,27.987804878048784,-33.78048780487805,-14.634146341463415,-0.087890625,-10.0673828125,-0.041015625
116,0.249,IMU0,41.28048780487805,-33.29268292682927,-20.243902439024392,-0.060546875,-10.0029296875,0.1240234375
117,0.249,IMU1,29.26829268292683,-32.43902439024391,-15.121951219512196,-0.103515625,-10.005859375,-0.068359375
118,0.259,IMU0,41.40243902439025,-32.25609756097561,-20.853658536585368,-0.068359375,-9.94140625,0.1005859375
119,0.259,IMU1,30.0609756097561,-31.402439024390247,-15.609756097560977,-0.1005859375,-9.9462890625,-0.078125
120,0.269,IMU0,42.6219512195122,-30.731707317073173,-20.853658536585368,-0.0869140625,-9.8662109375,0.1171875
121,0.269,IMU1,30.975609756097565,-29.81707317073171,-15.914634146341465,-0.109375,-9.8828125,-0.08203125
122,0.279,IMU0,43.53658536585366,-29.08536585365854,-21.585365853658537,-0.0703125,-9.80859375,0.0908203125
123,0.279,IMU1,31.89024390243903,-28.475609756097562,-16.28048780487805,-0.103515625,-9.8251953125,-0.1123046875
124,0.289,IMU0,44.146341463414636,-27.865853658536587,-21.890243902439025,-0.072265625,-9.7578125,0.087890625
125,0.289,IMU1,32.6219512195122,-27.073170731707318,-16.52439024390244,-0.103515625,-9.771484375,-0.1181640625
126,0.299,IMU0,45.0609756097561,-26.52439024390244,-22.378048780487806,-0.06640625,-9.6865234375,0.0546875
127,0.299,IMU1,33.41463414634146,-25.48780487804878,-16.951219512195124,-0.1142578125,-9.7109375,-0.1455078125
128,0.309,IMU0,45.426829268292686,-24.939024390243905,-22.98780487804878,-0.0625,-9.6181640625,0.009765625
129,0.309,IMU1,33.78048780487805,-23.902439024390247,-17.195121951219512,-0.1162109375,-9.6318359375,-0.1650390625
130,0.319,IMU0,46.21951219512196,-23.414634146341466,-23.10975609756098,-0.076171875,-9.5322265625,-0.0166015625
131,0.319,IMU1,34.390243902439025,-22.073170731707318,-17.5,-0.125,-9.556640625,-0.1865234375
132,0.329,IMU0,46.28048780487805,-21.646341463414636,-23.353658536585368,-0.083984375,-9.466796875,-0.0478515625
133,0.329,IMU1,34.32926829268293,-20.182926829268293,-17.865853658536587,-0.1064453125,-9.482421875,-0.2265625
134,0.339,IMU0,45.304878048780495,-19.695121951219512,-23.414634146341466,-0.0771484375,-9.390625,-0.068359375
135,0.339,IMU1,34.08536585365854,-18.231707317073173,-18.170731707317074,-0.109375,-9.400390625,-0.2451171875
136,0.349,IMU0,45.487804878048784,-17.621951219512198,-24.146341463414636,-0.09765625,-9.32421875,-0.0673828125
137,0.349,IMU1,34.024390243902445,-15.975609756097562,-18.597560975609756,-0.1259765625,-9.3212890625,-0.271484375
138,0.359,IMU0,44.87804878048781,-15.30487804878049,-24.390243902439025,-0.08203125,-9.26171875,-0.0966796875
139,0.359,IMU1,33.47560975609756,-13.902439024390246,-18.963414634146343,-0.115234375,-9.2568359375,-0.2861328125
140,0.369,IMU0,44.81707317073171,-12.560975609756099,-25.000000000000004,-0.1259765625,-9.208984375,-0.1064453125
141,0.369,IMU1,33.04878048780488,-11.463414634146343,-19.207317073170735,-0.1416015625,-9.185546875,-0.30078125
142,0.379,IMU0,44.146341463414636,-10.426829268292684,-25.426829268292686,-0.1318359375,-9.142578125,-0.1650390625
143,0.379,IMU1,32.25609756097561,-9.146341463414634,-19.451219512195124,-0.142578125,-9.119140625,-0.3359375
144,0.389,IMU0,43.35365853658537,-8.109756097560977,-25.60975609756098,-0.1318359375,-9.0283203125,-0.1923828125
145,0.389,IMU1,31.463414634146343,-6.585365853658537,-19.573170731707318,-0.154296875,-9.029296875,-0.3486328125
146,0.399,IMU0,42.13414634146342,-5.365853658536586,-25.48780487804878,-0.140625,-8.94921875,-0.21484375
147,0.399,IMU1,30.731707317073173,-3.8414634146341466,-19.634146341463417,-0.162109375,-8.9560546875,-0.3837890625
148,0.409,IMU0,40.97560975609756,-2.9268292682926833,-24.878048780487806,-0.1494140625,-8.8974609375,-0.2451171875
149,0.409,IMU1,29.39024390243903,-1.1585365853658538,-19.573170731707318,-0.1728515625,-8.890625,-0.41015625
150,0.419,IMU0,39.93902439024391,0.12195121951219513,-24.695121951219516,-0.1767578125,-8.8115234375,-0.2763671875
151,0.419,IMU1,28.292682926829272,1.8902439024390245,-19.390243902439025,-0.1875,-8.8017578125,-0.4267578125
152,0.429,IMU0,38.78048780487805,3.1097560975609757,-24.939024390243905,-0.177734375,-8.7099609375,-0.298828125
153,0.429,IMU1,26.89024390243903,5.0,-19.146341463414636,-0.1904296875,-8.7080078125,-0.4541015625
154,0.439,IMU0,36.890243902439025,6.158536585365854,-24.695121951219516,-0.1943359375,-8.6171875,-0.3115234375
155,0.439,IMU1,25.30487804878049,8.231707317073171,-18.84146341463415,-0.201171875,-8.62890625,-0.4638671875
156,0.449,IMU0,35.79268292682927,9.695121951219512,-24.32926829268293,-0.2060546875,-8.533203125,-0.30859375
157,0.449,IMU1,23.902439024390247,11.76829268292683,-18.53658536585366,-0.2138671875,-8.5439453125,-0.47265625
158,0.459,IMU0,34.451219512195124,13.170731707317074,-24.02439024390244,-0.2236328125,-8.4541015625,-0.3291015625
159,0.459,IMU1,22.500000000000004,15.121951219512196,-18.170731707317074,-0.2255859375,-8.46875,-0.4814453125
160,0.469,IMU0,33.04878048780488,16.158536585365855,-23.84146341463415,-0.21875,-8.3779296875,-0.3388671875
161,0.469,IMU1,21.097560975609756,18.475609756097562,-17.743902439024392,-0.2353515625,-8.390625,-0.494140625
162,0.479,IMU0,31.280487804878053,19.26829268292683,-23.353658536585368,-0.2529296875,-8.3076171875,-0.3544921875
163,0.479,IMU1,19.451219512195124,21.76829268292683,-17.195121951219512,-0.2578125,-8.3076171875,-0.513671875
164,0.489,IMU0,29.75609756097561,22.5609756097561,-23.04878048780488,-0.2470703125,-8.2392578125,-0.3779296875
165,0.489,IMU1,17.682926829268293,24.939024390243905,-16.585365853658537,-0.26171875,-8.2412109375,-0.5263671875
166,0.499,IMU0,27.926829268292686,25.54878048780488,-22.378048780487806,-0.25,-8.1611328125,-0.3935546875
167,0.499,IMU1,16.097560975609756,28.353658536585368,-15.914634146341465,-0.259765625,-8.15234375,-0.54296875
168,0.509,IMU0,26.219512195121954,29.08536585365854,-21.463414634146343,-0.2587890625,-8.0712890625,-0.4208984375
169,0.509,IMU1,14.146341463414636,31.707317073170735,-15.30487804878049,-0.2705078125,-8.064453125,-0.5556640625
170,0.519,IMU0,24.390243902439025,32.25609756097561,-20.975609756097562,-0.2587890625,-7.974609375,-0.43359375
171,0.519,IMU1,12.01219512195122,35.0609756097561,-14.573170731707318,-0.2724609375,-7.9765625,-0.5712890625
172,0.529,IMU0,22.012195121951223,35.36585365853659,-20.48780487804878,-0.26953125,-7.8837890625,-0.4609375
173,0.529,IMU1,9.878048780487806,38.29268292682927,-13.902439024390246,-0.2783203125,-7.8828125,-0.583984375
174,0.539,IMU0,20.0,38.71951219512196,-20.243902439024392,-0.2607421875,-7.8017578125,-0.46484375
175,0.539,IMU1,7.500000000000001,41.524390243902445,-13.170731707317074,-0.27734375,-7.7978515625,-0.6025390625
176,0.549,IMU0,17.682926829268293,41.768292682926834,-20.0,-0.251953125,-7.7099609375,-0.515625
177,0.549,IMU1,5.121951219512195,44.69512195121952,-12.500000000000002,-0.28125,-7.708984375,-0.6298828125
178,0.559,IMU0,15.54878048780488,44.69512195121952,-18.963414634146343,-0.2802734375,-7.623046875,-0.5048828125
179,0.559,IMU1,2.3170731707317076,47.743902439024396,-11.829268292682928,-0.2861328125,-7.6103515625,-0.634765625
180,0.569,IMU0,13.475609756097562,47.5609756097561,-18.29268292682927,-0.2978515625,-7.5478515625,-0.5166015625
181,0.569,IMU1,-0.30487804878048785,50.91463414634147,-11.158536585365855,-0.2939453125,-7.5244140625,-0.6318359375
182,0.579,IMU0,10.853658536585368,50.426829268292686,-17.439024390243905,-0.3017578125,-7.453125,-0.5107421875
183,0.579,IMU1,-3.1097560975609757,53.84146341463415,-10.487804878048781,-0.3046875,-7.4375,-0.6357421875
184,0.589,IMU0,8.170731707317074,53.41463414634147,-16.646341463414636,-0.3212890625,-7.359375,-0.4892578125
185,0.589,IMU1,-5.670731707317073,56.768292682926834,-9.634146341463415,-0.314453125,-7.365234375,-0.6123046875
186,0.599,IMU0,5.487804878048781,55.60975609756098,-16.28048780487805,-0.3212890625,-7.283203125,-0.498046875
187,0.599,IMU1,-8.292682926829269,59.39024390243903,-8.841463414634147,-0.3232421875,-7.2841796875,-0.6171875
188,0.609,IMU0,2.7439024390243905,58.17073170731708,-15.060975609756099,-0.3369140625,-7.2021484375,-0.4404296875
189,0.609,IMU1,-11.097560975609756,61.646341463414636,-7.987804878048781,-0.3193359375,-7.1953125,-0.568359375
190,0.619,IMU0,1.2804878048780488,60.060975609756106,-14.329268292682928,-0.3359375,-7.10546875,-0.419921875
191,0.619,IMU1,-12.987804878048781,63.90243902439025,-7.195121951219513,-0.322265625,-7.103515625,-0.548828125
192,0.629,IMU0,-1.0975609756097562,61.707317073170735,-13.78048780487805,-0.3359375,-6.9990234375,-0.400390625
193,0.629,IMU1,-15.30487804878049,65.48780487804879,-6.402439024390245,-0.3251953125,-7.00390625,-0.521484375
194,0.639,IMU0,-2.804878048780488,63.41463414634147,-13.353658536585368,-0.32421875,-6.8935546875,-0.38671875
195,0.639,IMU1,-17.195121951219512,66.95121951219512,-5.731707317073171,-0.3134765625,-6.916015625,-0.482421875
196,0.649,IMU0,-4.2682926829268295,64.51219512195122,-12.80487804878049,-0.3173828125,-6.837890625,-0.345703125
197,0.649,IMU1,-18.719512195121954,68.23170731707317,-5.060975609756098,-0.326171875,-6.8525390625,-0.455078125
198,0.659,IMU0,-5.7926829268292686,65.2439024390244,-12.01219512195122,-0.3076171875,-6.7958984375,-0.2939453125
199,0.659,IMU1,-20.30487804878049,69.20731707317074,-4.451219512195122,-0.3212890625,-6.8076171875,-0.3955078125
200,0.669,IMU0,-6.219512195121951,66.40243902439025,-11.463414634146343,-0.3115234375,-6.712890625,-0.3056640625
201,0.669,IMU1,-21.219512195121954,70.2439024390244,-3.8414634146341466,-0.31640625,-6.7353515625,-0.4013671875
202,0.679,IMU0,-7.987804878048781,66.95121951219512,-10.670731707317074,-0.314453125,-6.64453125,-0.255859375
203,0.679,IMU1,-22.865853658536587,70.54878048780489,-3.231707317073171,-0.3173828125,-6.6611328125,-0.359375
204,0.689,IMU0,-8.292682926829269,67.5609756097561,-10.182926829268293,-0.28125,-6.5673828125,-0.22265625
205,0.689,IMU1,-23.414634146341466,71.21951219512195,-2.682926829268293,-0.310546875,-6.5751953125,-0.32421875
206,0.699,IMU0,-9.390243902439025,67.92682926829269,-9.878048780487806,-0.296875,-6.474609375,-0.2421875
207,0.699,IMU1,-24.32926829268293,71.28048780487805,-2.0121951219512195,-0.3212890625,-6.494140625,-0.318359375
208,0.709,IMU0,-10.426829268292684,67.92682926829269,-9.085365853658537,-0.294921875,-6.3984375,-0.212890625
209,0.709,IMU1,-25.243902439024392,71.40243902439025,-1.402439024390244,-0.31640625,-6.408203125,-0.2861328125
210,0.719,IMU0,-11.219512195121952,67.98780487804879,-8.597560975609756,-0.2978515625,-6.318359375,-0.1826171875
211,0.719,IMU1,-26.219512195121954,71.58536585365854,-0.7926829268292683,-0.3125,-6.3369140625,-0.279296875
212,0.729,IMU0,-12.317073170731708,67.8658536585366,-8.048780487804878,-0.2783203125,-6.240234375,-0.119140625
213,0.729,IMU1,-27.134146341463417,71.70731707317074,-0.24390243902439027,-0.3037109375,-6.2509765625,-0.2294921875
214,0.739,IMU0,-12.865853658536587,68.53658536585367,-7.317073170731708,-0.2919921875,-6.1650390625,-0.1171875
215,0.739,IMU1,-27.682926829268297,72.01219512195122,0.1829268292682927,-0.2890625,-6.1708984375,-0.208984375
216,0.749,IMU0,-13.536585365853659,68.59756097560977,-7.01219512195122,-0.2734375,-6.0712890625,-0.109375
217,0.749,IMU1,-28.658536585365855,72.07317073170732,0.6097560975609757,-0.2744140625,-6.0859375,-0.166015625
218,0.759,IMU0,-13.719512195121952,68.96341463414635,-6.890243902439025,-0.2626953125,-5.958984375,-0.0703125
219,0.759,IMU1,-28.902439024390247,72.37804878048782,0.7926829268292683,-0.2685546875,-5.986328125,-0.1201171875
220,0.769,IMU0,-13.841463414634148,68.96341463414635,-6.646341463414635,-0.251953125,-5.875,-0.03515625
221,0.769,IMU1,-29.08536585365854,72.8048780487805,1.0365853658536586,-0.267578125,-5.8984375,-0.0849609375
222,0.779,IMU0,-13.658536585365855,69.26829268292684,-6.463414634146342,-0.259765625,-5.8291015625,0.0263671875
223,0.779,IMU1,-29.146341463414636,73.04878048780489,1.2195121951219514,-0.2666015625,-5.8505859375,-0.0380859375
224,0.789,IMU0,-14.02439024390244,69.51219512195122,-6.097560975609756,-0.2568359375,-5.734375,0.0830078125
225,0.789,IMU1,-29.39024390243903,73.23170731707317,1.524390243902439,-0.2568359375,-5.763671875,0.0068359375
226,0.799,IMU0,-13.29268292682927,69.75609756097562,-6.341463414634147,-0.2392578125,-5.6298828125,0.1328125
227,0.799,IMU1,-28.292682926829272,73.53658536585367,1.707317073170732,-0.2421875,-5.671875,0.0400390625
228,0.809,IMU0,-12.865853658536587,69.69512195121952,-5.7926829268292686,-0.1923828125,-5.556640625,0.1669921875
229,0.809,IMU1,-27.865853658536587,73.65853658536587,1.829268292682927,-0.2138671875,-5.591796875,0.08984375
230,0.819,IMU0,-11.707317073170733,70.3658536585366,-6.2804878048780495,-0.1787109375,-5.482421875,0.2216796875
231,0.819,IMU1,-26.707317073170735,73.96341463414635,1.707317073170732,-0.19140625,-5.51953125,0.1376953125
232,0.829,IMU0,-10.487804878048781,70.85365853658537,-6.402439024390245,-0.158203125,-5.3974609375,0.2529296875
233,0.829,IMU1,-25.365853658536587,74.02439024390245,1.524390243902439,-0.1845703125,-5.43359375,0.177734375
234,0.839,IMU0,-9.26829268292683,70.54878048780489,-6.646341463414635,-0.162109375,-5.703125,0.306640625
235,0.839,IMU1,-23.963414634146343,73.84146341463415,1.402439024390244,-0.1923828125,-5.751953125,0.220703125
236,0.849,IMU0,-6.829268292682928,70.67073170731707,-6.52439024390244,-0.1806640625,-5.9228515625,0.30078125
237,0.849,IMU1,-21.585365853658537,74.20731707317074,1.2195121951219514,-0.2041015625,-5.95703125,0.2373046875
238,0.859,IMU0,-5.487804878048781,70.0609756097561,-6.2804878048780495,-0.181640625,-5.9921875,0.3310546875
239,0.859,IMU1,-20.182926829268293,73.90243902439025,1.2195121951219514,-0.1943359375,-6.03515625,0.283203125
240,0.869,IMU0,-3.1707317073170733,70.3658536585366,-6.52439024390244,-0.1962890625,-6.0185546875,0.3486328125
241,0.869,IMU1,-17.439024390243905,74.26829268292684,1.1585365853658538,-0.2138671875,-6.0478515625,0.2978515625
242,0.879,IMU0,-1.1585365853658538,70.0609756097561,-6.463414634146342,-0.1982421875,-6.0029296875,0.3740234375
243,0.879,IMU1,-15.79268292682927,73.96341463414635,1.2804878048780488,-0.2099609375,-6.015625,0.3125
244,0.889,IMU0,1.2195121951219514,70.67073170731707,-6.829268292682928,-0.2138671875,-5.953125,0.3984375
245,0.889,IMU1,-12.74390243902439,74.32926829268294,1.3414634146341464,-0.21875,-5.962890625,0.3310546875
246,0.899,IMU0,3.231707317073171,70.67073170731707,-6.402439024390245,-0.21875,-5.8642578125,0.41796875
247,0.899,IMU1,-10.609756097560977,74.26829268292684,1.5853658536585367,-0.2275390625,-5.89453125,0.3291015625
248,0.909,IMU0,5.426829268292684,70.73170731707317,-5.7926829268292686,-0.208984375,-5.798828125,0.4189453125
249,0.909,IMU1,-8.353658536585366,74.39024390243902,1.7682926829268295,-0.2138671875,-5.8251953125,0.35546875
250,0.919,IMU0,7.743902439024391,71.28048780487805,-5.7926829268292686,-0.2109375,-5.7353515625,0.4208984375
251,0.919,IMU1,-5.670731707317073,74.63414634146342,2.073170731707317,-0.2255859375,-5.7529296875,0.3583984375
252,0.929,IMU0,10.121951219512196,71.52439024390245,-5.731707317073171,-0.220703125,-5.6767578125,0.4052734375
253,0.929,IMU1,-3.353658536585366,74.75609756097562,2.378048780487805,-0.2216796875,-5.69921875,0.3623046875
254,0.939,IMU0,12.439024390243903,71.89024390243902,-5.670731707317073,-0.2138671875,-5.6318359375,0.4189453125
255,0.939,IMU1,-0.6707317073170732,75.1219512195122,2.682926829268293,-0.2216796875,-5.650390625,0.36328125
256,0.949,IMU0,14.634146341463415,71.76829268292684,-5.0,-0.2177734375,-5.56640625,0.3876953125
257,0.949,IMU1,1.707317073170732,75.2439024390244,3.048780487804878,-0.2216796875,-5.6005859375,0.3515625
258,0.959,IMU0,16.890243902439025,71.89024390243902,-4.51219512195122,-0.2041015625,-5.525390625,0.3935546875
259,0.959,IMU1,4.085365853658537,75.48780487804879,3.536585365853659,-0.2158203125,-5.5537109375,0.345703125
260,0.969,IMU0,19.390243902439025,71.95121951219512,-4.329268292682928,-0.19921875,-5.44921875,0.375
261,0.969,IMU1,6.463414634146342,75.67073170731707,3.963414634146342,-0.2109375,-5.4794921875,0.3193359375
262,0.979,IMU0,21.52439024390244,72.19512195121952,-4.024390243902439,-0.193359375,-5.3994140625,0.3505859375
263,0.979,IMU1,8.414634146341465,75.73170731707317,4.390243902439025,-0.197265625,-5.423828125,0.2978515625
264,0.989,IMU0,22.98780487804878,72.8048780487805,-3.536585365853659,-0.1923828125,-5.3359375,0.3271484375
265,0.989,IMU1,10.24390243902439,75.97560975609757,4.878048780487806,-0.181640625,-5.373046875,0.2783203125
266,0.999,IMU0,24.75609756097561,72.6829268292683,-3.1097560975609757,-0.1396484375,-5.208984375,0.3125
267,0.999,IMU1,11.829268292682928,76.15853658536587,5.2439024390243905,-0.16796875,-5.234375,0.2568359375
268,1.009,IMU0,26.219512195121954,72.92682926829269,-2.5,-0.14453125,-4.986328125,0.2978515625
269,1.009,IMU1,13.109756097560977,76.40243902439025,5.426829268292684,-0.1513671875,-5.0029296875,0.2470703125
270,1.019,IMU0,27.31707317073171,73.53658536585367,-2.5609756097560976,-0.1240234375,-4.658203125,0.240234375
271,1.019,IMU1,14.756097560975611,76.95121951219512,5.548780487804878,-0.1376953125,-4.6953125,0.2109375
272,1.029,IMU0,27.682926829268297,73.90243902439025,-2.7439024390243905,-0.109375,-4.26953125,0.1845703125
273,1.029,IMU1,15.060975609756099,77.19512195121952,5.670731707317073,-0.12890625,-4.31640625,0.1767578125
274,1.039,IMU0,28.780487804878053,74.26829268292684,-2.378048780487805,-0.1015625,-3.84375,0.1689453125
275,1.039,IMU1,16.219512195121954,77.8658536585366,5.670731707317073,-0.1044921875,-3.8935546875,0.1640625
276,1.049,IMU0,29.695121951219516,74.75609756097562,-2.8658536585365857,-0.09765625,-3.4462890625,0.12890625
277,1.049,IMU1,17.134146341463417,78.35365853658537,5.670731707317073,-0.095703125,-3.498046875,0.1337890625
278,1.059,IMU0,29.939024390243905,75.1219512195122,-2.682926829268293,-0.1005859375,-3.064453125,0.0966796875
279,1.059,IMU1,17.621951219512198,78.96341463414635,5.670731707317073,-0.0908203125,-3.1083984375,0.109375
280,1.069,IMU0,30.182926829268297,76.03658536585367,-2.804878048780488,-0.1005859375,-2.666015625,0.064453125
281,1.069,IMU1,17.926829268292686,79.51219512195122,5.670731707317073,-0.0849609375,-2.701171875,0.0849609375
282,1.079,IMU0,30.54878048780488,76.64634146341464,-2.5,-0.0908203125,-2.263671875,0.0185546875
283,1.079,IMU1,18.29268292682927,80.1829268292683,5.7926829268292686,-0.0849609375,-2.2958984375,0.0615234375
284,1.089,IMU0,30.914634146341466,77.5,-2.25609756097561,-0.0791015625,-1.890625,-0.0224609375
285,1.089,IMU1,18.353658536585368,80.91463414634147,5.853658536585367,-0.078125,-1.9130859375,0.0341796875
286,1.099,IMU0,30.792682926829272,78.29268292682927,-2.25609756097561,-0.0810546875,-1.51953125,-0.0283203125
287,1.099,IMU1,17.98780487804878,81.58536585365854,6.097560975609756,-0.0654296875,-1.5517578125,0.01953125
288,1.109,IMU0,30.426829268292686,79.32926829268294,-2.073170731707317,-0.078125,-1.1728515625,-0.0654296875
289,1.109,IMU1,17.865853658536587,82.37804878048782,6.2804878048780495,-0.0615234375,-1.1982421875,0.0009765625
290,1.119,IMU0,29.695121951219516,80.1829268292683,-1.8902439024390245,-0.06640625,-0.83984375,-0.0751953125
291,1.119,IMU1,17.195121951219512,83.04878048780489,6.52439024390244,-0.0498046875,-0.85546875,-0.0166015625
292,1.129,IMU0,29.207317073170735,80.85365853658537,-2.073170731707317,-0.0380859375,-0.5126953125,-0.109375
293,1.129,IMU1,16.70731707317073,83.96341463414635,6.52439024390244,-0.0205078125,-0.5361328125,-0.0302734375
294,1.139,IMU0,29.02439024390244,81.89024390243902,-1.707317073170732,-0.0439453125,-0.197265625,-0.146484375
295,1.139,IMU1,16.097560975609756,84.87804878048782,6.52439024390244,-0.0107421875,-0.21484375,-0.0556640625
296,1.149,IMU0,28.414634146341466,82.13414634146342,-1.707317073170732,-0.01953125,0.03125,-0.169921875
297,1.149,IMU1,15.30487804878049,85.48780487804879,6.707317073170732,-0.0107421875,0.0244140625,-0.0625
298,1.159,IMU0,27.5609756097561,83.10975609756099,-1.6463414634146343,0.0107421875,0.16015625,-0.1669921875
299,1.159,IMU1,14.451219512195124,86.40243902439025,6.829268292682928,0.01953125,0.1494140625,-0.0859375
300,1.169,IMU0,26.402439024390247,83.90243902439025,-1.524390243902439,0.0126953125,0.21484375,-0.21875
301,1.169,IMU1,13.414634146341465,87.25609756097562,6.707317073170732,0.0361328125,0.2138671875,-0.1064453125
302,1.179,IMU0,25.426829268292686,85.00000000000001,-1.8902439024390245,0.0234375,0.2568359375,-0.255859375
303,1.179,IMU1,12.378048780487806,88.29268292682927,6.646341463414635,0.03515625,0.248046875,-0.130859375
304,1.189,IMU0,23.658536585365855,85.54878048780489,-1.8902439024390245,0.0439453125,0.2724609375,-0.2724609375
305,1.189,IMU1,10.731707317073171,89.08536585365854,6.463414634146342,0.0498046875,0.265625,-0.1455078125
306,1.199,IMU0,22.378048780487806,86.58536585365854,-2.378048780487805,0.0625,0.2763671875,-0.283203125
307,1.199,IMU1,9.451219512195122,90.1829268292683,6.036585365853659,0.0751953125,0.2763671875,-0.1572265625
308,1.209,IMU0,20.670731707317074,87.25609756097562,-2.8658536585365857,0.0615234375,0.279296875,-0.2412109375
309,1.209,IMU1,7.560975609756098,91.09756097560977,5.609756097560976,0.0830078125,0.28125,-0.140625
310,1.219,IMU0,20.0,88.71951219512196,-3.658536585365854,0.0703125,0.283203125,-0.2392578125
311,1.219,IMU1,6.646341463414635,92.31707317073172,5.121951219512195,0.0908203125,0.287109375,-0.138671875
312,1.229,IMU0,17.865853658536587,89.51219512195122,-4.024390243902439,0.0546875,0.2841796875,-0.224609375
313,1.229,IMU1,5.0,93.23170731707317,4.390243902439025,0.1044921875,0.2880859375,-0.130859375
314,1.239,IMU0,16.70731707317073,91.03658536585367,-4.75609756097561,0.0888671875,0.28125,-0.244140625
315,1.239,IMU1,4.207317073170732,94.63414634146342,3.7195121951219514,0.119140625,0.2880859375,-0.1318359375
316,1.249,IMU0,16.158536585365855,91.58536585365854,-5.121951219512195,0.087890625,0.291015625,-0.232421875
317,1.249,IMU1,2.9268292682926833,95.67073170731709,2.9268292682926833,0.125,0.287109375,-0.1181640625
318,1.259,IMU0,15.365853658536587,92.8048780487805,-6.158536585365854,0.1171875,0.2919921875,-0.234375
319,1.259,IMU1,1.9512195121951221,96.89024390243904,2.073170731707317,0.138671875,0.2880859375,-0.1103515625
320,1.269,IMU0,14.51219512195122,93.53658536585367,-7.439024390243903,0.095703125,0.296875,-0.2265625
321,1.269,IMU1,0.9146341463414634,97.8048780487805,1.0975609756097562,0.1220703125,0.2880859375,-0.095703125
322,1.279,IMU0,13.414634146341465,94.26829268292684,-8.170731707317074,0.091796875,0.283203125,-0.1982421875
323,1.279,IMU1,0.06097560975609757,98.78048780487806,0.30487804878048785,0.12109375,0.28515625,-0.0849609375
324,1.289,IMU0,12.682926829268293,95.1219512195122,-9.146341463414634,0.09765625,0.302734375,-0.1865234375
325,1.289,IMU1,-0.7926829268292683,99.51219512195122,-0.6707317073170732,0.125,0.28515625,-0.0712890625
326,1.299,IMU0,11.890243902439025,96.09756097560977,-9.939024390243903,0.0859375,0.296875,-0.169921875
327,1.299,IMU1,-1.2804878048780488,100.2439024390244,-1.4634146341463417,0.1103515625,0.2841796875,-0.0478515625
328,1.309,IMU0,11.219512195121952,96.82926829268294,-10.609756097560977,0.0732421875,0.291015625,-0.1552734375
329,1.309,IMU1,-1.4634146341463417,101.03658536585367,-2.3170731707317076,0.099609375,0.283203125,-0.0419921875
330,1.319,IMU0,10.975609756097562,96.82926829268294,-11.219512195121952,0.0634765625,0.2724609375,-0.1552734375
331,1.319,IMU1,-2.1341463414634148,101.58536585365854,-2.9268292682926833,0.0849609375,0.283203125,-0.033203125
332,1.329,IMU0,10.609756097560977,97.6219512195122,-11.829268292682928,0.0556640625,0.2861328125,-0.146484375
333,1.329,IMU1,-2.5609756097560976,102.19512195121952,-3.658536585365854,0.08203125,0.2822265625,-0.015625
334,1.339,IMU0,10.365853658536587,98.41463414634147,-12.74390243902439,0.0458984375,0.291015625,-0.1220703125
335,1.339,IMU1,-2.7439024390243905,102.8658536585366,-4.2682926829268295,0.072265625,0.2802734375,-0.0166015625
336,1.349,IMU0,9.695121951219512,98.84146341463415,-13.536585365853659,0.021484375,0.2919921875,-0.111328125
337,1.349,IMU1,-3.048780487804878,103.35365853658537,-4.75609756097561,0.0546875,0.2802734375,-0.0009765625
338,1.359,IMU0,10.0,99.02439024390245,-13.841463414634148,0.0361328125,0.2763671875,-0.09375
339,1.359,IMU1,-3.2926829268292686,103.84146341463415,-5.2439024390243905,0.0546875,0.2783203125,0.0185546875
340,1.369,IMU0,9.878048780487806,99.20731707317074,-14.26829268292683,0.017578125,0.2880859375,-0.087890625
341,1.369,IMU1,-3.4756097560975614,104.08536585365854,-5.670731707317073,0.0380859375,0.2763671875,0.0400390625
342,1.379,IMU0,9.878048780487806,99.69512195121952,-14.51219512195122,0.0087890625,0.287109375,-0.05859375
343,1.379,IMU1,-3.414634146341464,104.26829268292684,-6.036585365853659,0.0205078125,0.2744140625,0.0517578125
344,1.389,IMU0,10.121951219512196,99.63414634146342,-14.573170731707318,-0.025390625,0.26953125,-0.0361328125
345,1.389,IMU1,-3.414634146341464,104.32926829268294,-6.219512195121951,0.0078125,0.2734375,0.0615234375
346,1.399,IMU0,10.060975609756099,99.75609756097562,-14.756097560975611,-0.0595703125,0.2939453125,0.0048828125
347,1.399,IMU1,-3.1707317073170733,104.45121951219514,-6.402439024390245,-0.00390625,0.2724609375,0.0869140625
348,1.409,IMU0,10.426829268292684,99.87804878048782,-14.756097560975611,-0.048828125,0.302734375,-0.0087890625
349,1.409,IMU1,-2.682926829268293,104.51219512195122,-6.585365853658537,-0.017578125,0.271484375,0.0859375
350,1.419,IMU0,10.792682926829269,99.51219512195122,-15.060975609756099,-0.06640625,0.2919921875,0.0029296875
351,1.419,IMU1,-2.6219512195121952,104.26829268292684,-6.463414634146342,-0.041015625,0.2705078125,0.099609375
352,1.429,IMU0,11.219512195121952,99.81707317073172,-14.634146341463415,-0.0986328125,0.2880859375,0.021484375
353,1.429,IMU1,-2.1951219512195124,104.14634146341464,-6.2804878048780495,-0.0595703125,0.26953125,0.115234375
354,1.439,IMU0,11.463414634146343,99.57317073170732,-14.573170731707318,-0.10546875,0.29296875,0.0205078125
355,1.439,IMU1,-1.9512195121951221,103.90243902439025,-5.975609756097562,-0.064453125,0.26953125,0.1201171875
356,1.449,IMU0,11.646341463414634,99.32926829268294,-14.207317073170733,-0.0966796875,0.27734375,0.0263671875
357,1.449,IMU1,-1.524390243902439,103.78048780487806,-5.731707317073171,-0.0693359375,0.267578125,0.1328125
358,1.459,IMU0,12.439024390243903,99.08536585365854,-13.902439024390246,-0.1025390625,0.265625,0.03125
359,1.459,IMU1,-0.7926829268292683,103.65853658536587,-5.365853658536586,-0.0869140625,0.265625,0.134765625
360,1.469,IMU0,12.865853658536587,98.78048780487806,-13.475609756097562,-0.0986328125,0.2724609375,0.0341796875
361,1.469,IMU1,-0.48780487804878053,103.35365853658537,-4.939024390243903,-0.09765625,0.265625,0.150390625
362,1.479,IMU0,14.26829268292683,98.65853658536587,-13.04878048780488,-0.119140625,0.2685546875,0.021484375
363,1.479,IMU1,0.3658536585365854,103.23170731707317,-4.451219512195122,-0.103515625,0.263671875,0.1513671875
364,1.489,IMU0,14.26829268292683,98.47560975609757,-12.01219512195122,-0.142578125,0.2626953125,0.03125
365,1.489,IMU1,0.9146341463414634,102.98780487804879,-3.9024390243902443,-0.1142578125,0.263671875,0.1455078125
366,1.499,IMU0,14.878048780487806,98.17073170731709,-11.829268292682928,-0.1220703125,0.2587890625,0.0419921875
367,1.499,IMU1,1.402439024390244,102.6829268292683,-3.414634146341464,-0.1103515625,0.26171875,0.1484375
368,1.509,IMU0,15.54878048780488,97.7439024390244,-11.463414634146343,-0.1435546875,0.2421875,0.0341796875
369,1.509,IMU1,1.9512195121951221,102.43902439024392,-2.804878048780488,-0.1220703125,0.2607421875,0.1337890625
370,1.519,IMU0,15.060975609756099,97.6829268292683,-11.036585365853659,-0.1357421875,0.2529296875,0.02734375
371,1.519,IMU1,2.1341463414634148,102.07317073170732,-2.25609756097561,-0.1162109375,0.2607421875,0.138671875
372,1.529,IMU0,16.219512195121954,97.43902439024392,-10.487804878048781,-0.15625,0.25,0.013671875
373,1.529,IMU1,2.8658536585365857,102.07317073170732,-1.6463414634146343,-0.126953125,0.2587890625,0.12890625
374,1.539,IMU0,15.975609756097562,97.25609756097562,-10.0,-0.1552734375,0.2587890625,0.01953125
375,1.539,IMU1,2.987804878048781,101.64634146341464,-1.0365853658536586,-0.1279296875,0.2578125,0.119140625
376,1.549,IMU0,15.975609756097562,97.01219512195122,-9.390243902439025,-0.1611328125,0.2568359375,0.0361328125
377,1.549,IMU1,3.2926829268292686,101.40243902439025,-0.426829268292683,-0.126953125,0.2587890625,0.12890625
378,1.559,IMU0,16.951219512195124,96.76829268292684,-8.597560975609756,-0.1669921875,0.2529296875,0.0166015625
379,1.559,IMU1,3.658536585365854,101.09756097560977,0.24390243902439027,-0.13671875,0.2578125,0.1201171875
380,1.569,IMU0,17.134146341463417,96.03658536585367,-7.621951219512196,-0.1435546875,0.2529296875,0.0224609375
381,1.569,IMU1,3.8414634146341466,100.73170731707317,1.0365853658536586,-0.130859375,0.2578125,0.1220703125
382,1.579,IMU0,17.378048780487806,96.03658536585367,-7.317073170731708,-0.1484375,0.2529296875,-0.005859375
383,1.579,IMU1,4.2682926829268295,100.42682926829269,1.707317073170732,-0.1259765625,0.255859375,0.109375
384,1.589,IMU0,17.621951219512198,95.79268292682927,-6.890243902439025,-0.1376953125,0.2490234375,-0.0048828125
385,1.589,IMU1,4.390243902439025,100.00000000000001,2.378048780487805,-0.1142578125,0.2548828125,0.109375
386,1.599,IMU0,17.743902439024392,95.79268292682927,-6.097560975609756,-0.1181640625,0.2509765625,-0.01953125
387,1.599,IMU1,4.695121951219512,99.87804878048782,2.9268292682926833,-0.0986328125,0.25390625,0.1064453125
388,1.609,IMU0,17.98780487804878,95.60975609756099,-5.609756097560976,-0.111328125,0.2529296875,0.0009765625
389,1.609,IMU1,4.634146341463415,99.63414634146342,3.353658536585366,-0.0966796875,0.251953125,0.09765625
390,1.619,IMU0,17.621951219512198,95.1829268292683,-4.75609756097561,-0.1171875,0.2607421875,0.0263671875
391,1.619,IMU1,4.573170731707317,99.45121951219512,3.8414634146341466,-0.0927734375,0.2509765625,0.1103515625
392,1.629,IMU0,17.98780487804878,94.87804878048782,-4.51219512195122,-0.0927734375,0.2744140625,0.01953125
393,1.629,IMU1,4.878048780487806,99.32926829268294,4.146341463414634,-0.0830078125,0.2509765625,0.1064453125
394,1.639,IMU0,18.10975609756098,94.39024390243904,-4.329268292682928,-0.1015625,0.28125,0.005859375
395,1.639,IMU1,5.0,99.02439024390245,4.51219512195122,-0.0751953125,0.25,0.109375
396,1.649,IMU0,18.353658536585368,94.32926829268294,-4.085365853658537,-0.0869140625,0.2578125,0.0166015625
397,1.649,IMU1,5.3048780487804885,98.90243902439025,4.817073170731708,-0.0615234375,0.2490234375,0.099609375
398,1.659,IMU0,18.475609756097562,94.14634146341464,-3.8414634146341466,-0.0703125,0.244140625,-0.009765625
399,1.659,IMU1,5.182926829268293,98.65853658536587,5.121951219512195,-0.0458984375,0.248046875,0.0966796875
400,1.669,IMU0,18.597560975609756,94.26829268292684,-3.536585365853659,-0.041015625,0.2587890625,-0.0302734375
401,1.669,IMU1,5.2439024390243905,98.59756097560977,5.3048780487804885,-0.029296875,0.2470703125,0.0947265625
402,1.679,IMU0,18.53658536585366,94.14634146341464,-3.4756097560975614,-0.0185546875,0.2509765625,-0.037109375
403,1.679,IMU1,5.3048780487804885,98.41463414634147,5.426829268292684,-0.015625,0.24609375,0.0888671875
404,1.689,IMU0,18.170731707317074,93.96341463414635,-3.658536585365854,-0.0087890625,0.25390625,-0.0419921875
405,1.689,IMU1,5.365853658536586,98.29268292682927,5.3048780487804885,-0.00390625,0.2470703125,0.087890625
406,1.699,IMU0,17.926829268292686,93.96341463414635,-3.1707317073170733,0.0068359375,0.255859375,-0.037109375
407,1.699,IMU1,5.487804878048781,98.23170731707317,5.182926829268293,0.0029296875,0.2470703125,0.08203125
408,1.709,IMU0,18.10975609756098,94.14634146341464,-3.658536585365854,0.01171875,0.2548828125,-0.0283203125
409,1.709,IMU1,5.426829268292684,98.23170731707317,5.121951219512195,0.0068359375,0.2451171875,0.0751953125
410,1.719,IMU0,17.865853658536587,94.20731707317074,-3.658536585365854,0.0087890625,0.26171875,-0.0322265625
411,1.719,IMU1,5.487804878048781,98.29268292682927,5.0,0.0146484375,0.244140625,0.07421875
412,1.729,IMU0,17.926829268292686,94.08536585365854,-4.207317073170732,0.0107421875,0.259765625,-0.041015625
413,1.729,IMU1,5.3048780487804885,98.29268292682927,4.817073170731708,0.017578125,0.2431640625,0.068359375
414,1.739,IMU0,17.926829268292686,94.39024390243904,-4.573170731707317,0.0087890625,0.2412109375,-0.06640625
415,1.739,IMU1,5.182926829268293,98.35365853658537,4.573170731707317,0.0283203125,0.2421875,0.052734375
416,1.749,IMU0,18.04878048780488,94.26829268292684,-4.51219512195122,0.005859375,0.2587890625,-0.052734375
417,1.749,IMU1,4.939024390243903,98.41463414634147,4.329268292682928,0.0234375,0.2421875,0.0576171875
418,1.759,IMU0,18.170731707317074,93.90243902439025,-4.634146341463415,0.03515625,0.255859375,-0.0712890625
419,1.759,IMU1,5.0,98.53658536585367,4.024390243902439,0.0234375,0.2412109375,0.041015625
420,1.769,IMU0,17.439024390243905,94.08536585365854,-4.75609756097561,0.0205078125,0.2578125,-0.0673828125
421,1.769,IMU1,4.329268292682928,98.41463414634147,3.9024390243902443,0.02734375,0.240234375,0.04296875
422,1.779,IMU0,17.5609756097561,94.26829268292684,-5.365853658536586,0.021484375,0.26171875,-0.0517578125
423,1.779,IMU1,4.207317073170732,98.59756097560977,3.5975609756097566,0.03125,0.240234375,0.048828125
424,1.789,IMU0,17.621951219512198,94.51219512195122,-5.548780487804878,-0.0009765625,0.24609375,-0.0537109375
425,1.789,IMU1,4.085365853658537,98.71951219512196,3.231707317073171,0.0302734375,0.2373046875,0.05078125
426,1.799,IMU0,17.5609756097561,94.81707317073172,-5.975609756097562,-0.001953125,0.25390625,-0.0595703125
427,1.799,IMU1,4.085365853658537,98.90243902439025,2.9268292682926833,0.0263671875,0.23828125,0.0498046875
428,1.809,IMU0,17.378048780487806,94.87804878048782,-6.036585365853659,0.0048828125,0.248046875,-0.078125
429,1.809,IMU1,3.780487804878049,98.90243902439025,2.6219512195121952,0.0341796875,0.2373046875,0.0478515625
430,1.819,IMU0,16.951219512195124,94.63414634146342,-5.975609756097562,-0.0048828125,0.244140625,-0.06640625
431,1.819,IMU1,3.5975609756097566,98.90243902439025,2.378048780487805,0.025390625,0.2373046875,0.052734375
432,1.829,IMU0,16.646341463414636,94.75609756097562,-6.341463414634147,-0.017578125,0.2490234375,-0.0888671875
433,1.829,IMU1,3.5975609756097566,98.96341463414635,2.1341463414634148,0.0234375,0.236328125,0.0380859375
434,1.839,IMU0,16.097560975609756,94.08536585365854,-6.463414634146342,-0.0224609375,0.25390625,-0.0673828125
435,1.839,IMU1,3.231707317073171,98.71951219512196,1.9512195121951221,0.0234375,0.236328125,0.048828125
436,1.849,IMU0,16.28048780487805,94.39024390243904,-6.7682926829268295,-0.0146484375,0.2548828125,-0.0771484375
437,1.849,IMU1,3.231707317073171,98.84146341463415,1.5853658536585367,0.0224609375,0.2353515625,0.0478515625
438,1.859,IMU0,16.03658536585366,94.08536585365854,-7.134146341463415,-0.013671875,0.2578125,-0.0927734375
439,1.859,IMU1,2.804878048780488,98.71951219512196,1.402439024390244,0.0224609375,0.234375,0.0390625
440,1.869,IMU0,15.853658536585368,94.26829268292684,-7.134146341463415,-0.0048828125,0.259765625,-0.0869140625
441,1.869,IMU1,2.804878048780488,98.71951219512196,1.2804878048780488,0.01171875,0.2333984375,0.056640625
442,1.879,IMU0,15.914634146341465,94.32926829268294,-7.560975609756098,0.01171875,0.2490234375,-0.0927734375
443,1.879,IMU1,2.9268292682926833,98.78048780487806,1.0365853658536586,0.0185546875,0.232421875,0.0390625
444,1.889,IMU0,15.54878048780488,94.14634146341464,-7.621951219512196,-0.0078125,0.240234375,-0.0791015625
445,1.889,IMU1,2.5,98.59756097560977,0.853658536585366,0.0263671875,0.232421875,0.044921875
446,1.899,IMU0,15.670731707317074,94.39024390243904,-7.926829268292684,-0.0107421875,0.2294921875,-0.08984375
447,1.899,IMU1,2.682926829268293,98.59756097560977,0.48780487804878053,0.01953125,0.23046875,0.0390625
448,1.909,IMU0,15.487804878048783,93.96341463414635,-8.292682926829269,-0.0185546875,0.2216796875,-0.0927734375
449,1.909,IMU1,2.3170731707317076,98.35365853658537,0.3658536585365854,0.013671875,0.228515625,0.0302734375
450,1.919,IMU0,15.54878048780488,94.02439024390245,-8.475609756097562,-0.0126953125,0.2255859375,-0.091796875
451,1.919,IMU1,2.1951219512195124,98.29268292682927,0.1829268292682927,0.0126953125,0.228515625,0.0439453125
452,1.929,IMU0,15.426829268292684,93.96341463414635,-8.597560975609756,-0.01171875,0.2294921875,-0.0791015625
453,1.929,IMU1,2.0121951219512195,98.35365853658537,0.0,0.0068359375,0.2255859375,0.029296875
454,1.939,IMU0,14.939024390243905,93.78048780487806,-8.536585365853659,-0.0087890625,0.2431640625,-0.0771484375
455,1.939,IMU1,1.524390243902439,98.17073170731709,-0.12195121951219513,0.005859375,0.2255859375,0.044921875
456,1.949,IMU0,15.000000000000002,93.96341463414635,-8.78048780487805,-0.029296875,0.2470703125,-0.0732421875
457,1.949,IMU1,1.707317073170732,98.35365853658537,-0.30487804878048785,-0.001953125,0.224609375,0.0419921875
458,1.959,IMU0,14.695121951219514,93.53658536585367,-8.719512195121952,-0.046875,0.2373046875,-0.078125
459,1.959,IMU1,1.402439024390244,98.04878048780489,-0.426829268292683,-0.0068359375,0.2255859375,0.046875
460,1.969,IMU0,14.146341463414636,93.59756097560977,-8.902439024390244,-0.046875,0.240234375,-0.0712890625
461,1.969,IMU1,1.3414634146341464,98.04878048780489,-0.48780487804878053,-0.005859375,0.224609375,0.0556640625
462,1.979,IMU0,14.207317073170733,93.41463414634147,-9.51219512195122,-0.04296875,0.228515625,-0.0869140625
463,1.979,IMU1,1.3414634146341464,97.8658536585366,-0.5487804878048781,-0.017578125,0.22265625,0.046875
464,1.989,IMU0,13.719512195121952,93.41463414634147,-9.085365853658537,-0.0322265625,0.23046875,-0.05078125
465,1.989,IMU1,1.2195121951219514,97.6219512195122,-0.6097560975609757,-0.009765625,0.2216796875,0.0625
466,1.999,IMU0,14.146341463414636,93.17073170731707,-8.963414634146343,-0.029296875,0.2216796875,-0.05859375
467,1.999,IMU1,1.3414634146341464,97.6219512195122,-0.7317073170731708,-0.0087890625,0.2197265625,0.0517578125
468,2.009,IMU0,13.963414634146343,93.10975609756099,-9.207317073170733,-0.03125,0.2197265625,-0.052734375
469,2.009,IMU1,0.9146341463414634,97.25609756097562,-0.7317073170731708,-0.0185546875,0.21875,0.05859375
470,2.019,IMU0,14.207317073170733,93.29268292682927,-9.51219512195122,-0.0263671875,0.228515625,-0.0673828125
471,2.019,IMU1,1.0975609756097562,97.25609756097562,-0.853658536585366,-0.01171875,0.21875,0.0673828125
472,2.029,IMU0,14.390243902439027,92.7439024390244,-9.573170731707318,-0.03515625,0.23046875,-0.0400390625
473,2.029,IMU1,0.9756097560975611,97.01219512195122,-0.9146341463414634,-0.025390625,0.21875,0.06640625
474,2.039,IMU0,13.841463414634148,92.7439024390244,-9.329268292682928,-0.05078125,0.2216796875,-0.005859375
475,2.039,IMU1,1.0365853658536586,96.82926829268294,-0.9756097560975611,-0.03515625,0.21875,0.0732421875
476,2.049,IMU0,14.207317073170733,92.31707317073172,-9.634146341463415,-0.044921875,0.21875,-0.0146484375
477,2.049,IMU1,1.0365853658536586,96.52439024390245,-0.9146341463414634,-0.033203125,0.2177734375,0.07421875
478,2.059,IMU0,14.573170731707318,92.07317073170732,-9.573170731707318,-0.0654296875,0.2353515625,-0.0283203125
479,2.059,IMU1,1.0975609756097562,96.28048780487806,-0.853658536585366,-0.0478515625,0.216796875,0.0771484375
480,2.069,IMU0,14.207317073170733,92.13414634146342,-9.085365853658537,-0.05859375,0.2373046875,-0.05078125
481,2.069,IMU1,1.1585365853658538,96.09756097560977,-0.7317073170731708,-0.052734375,0.2158203125,0.076171875
482,2.079,IMU0,14.26829268292683,91.58536585365854,-8.841463414634147,-0.068359375,0.25390625,-0.0341796875
483,2.079,IMU1,1.0975609756097562,95.97560975609757,-0.426829268292683,-0.05859375,0.2138671875,0.0693359375
484,2.089,IMU0,14.26829268292683,91.46341463414635,-8.536585365853659,-0.0771484375,0.2421875,-0.0419921875
485,2.089,IMU1,0.9146341463414634,95.60975609756099,-0.30487804878048785,-0.05859375,0.212890625,0.064453125
486,2.099,IMU0,14.878048780487806,90.97560975609757,-8.231707317073171,-0.0625,0.21875,-0.0361328125
487,2.099,IMU1,1.0975609756097562,95.42682926829269,-0.06097560975609757,-0.060546875,0.2119140625,0.0654296875
488,2.109,IMU0,14.817073170731708,90.73170731707317,-8.048780487804878,-0.0966796875,0.2138671875,-0.0556640625
489,2.109,IMU1,1.0975609756097562,95.1219512195122,0.1829268292682927,-0.0732421875,0.2119140625,0.0732421875
490,2.119,IMU0,14.390243902439027,90.79268292682927,-7.682926829268293,-0.0732421875,0.2314453125,-0.0693359375
491,2.119,IMU1,1.1585365853658538,94.87804878048782,0.426829268292683,-0.0634765625,0.2109375,0.068359375
492,2.129,IMU0,13.841463414634148,90.48780487804879,-7.500000000000001,-0.09375,0.2265625,-0.0419921875
493,2.129,IMU1,1.0365853658536586,94.63414634146342,0.7926829268292683,-0.0673828125,0.2109375,0.083984375
494,2.139,IMU0,13.963414634146343,90.3658536585366,-7.560975609756098,-0.1123046875,0.2333984375,-0.0458984375
495,2.139,IMU1,1.402439024390244,94.51219512195122,1.0365853658536586,-0.064453125,0.2099609375,0.072265625
496,2.149,IMU0,13.963414634146343,89.81707317073172,-7.378048780487806,-0.111328125,0.2333984375,-0.0537109375
497,2.149,IMU1,1.0365853658536586,94.08536585365854,1.402439024390244,-0.0556640625,0.208984375,0.068359375
498,2.159,IMU0,14.085365853658537,89.45121951219512,-7.195121951219513,-0.0966796875,0.21484375,-0.04296875
499,2.159,IMU1,1.0365853658536586,93.84146341463415,1.4634146341463417,-0.056640625,0.208984375,0.0859375
500,2.169,IMU0,14.573170731707318,89.26829268292684,-7.195121951219513,-0.109375,0.2255859375,-0.0498046875
501,2.169,IMU1,1.2195121951219514,93.65853658536587,1.6463414634146343,-0.0634765625,0.20703125,0.0751953125
502,2.179,IMU0,13.841463414634148,89.14634146341464,-6.951219512195123,-0.072265625,0.2197265625,-0.03125
503,2.179,IMU1,0.9756097560975611,93.29268292682927,1.7682926829268295,-0.0537109375,0.20703125,0.0771484375
504,2.189,IMU0,14.26829268292683,89.14634146341464,-6.890243902439025,-0.0771484375,0.2177734375,-0.0087890625
505,2.189,IMU1,1.3414634146341464,93.17073170731707,1.8902439024390245,-0.0546875,0.20703125,0.08984375
506,2.199,IMU0,14.817073170731708,88.65853658536587,-6.707317073170732,-0.0986328125,0.21484375,-0.0234375
507,2.199,IMU1,1.2804878048780488,92.8048780487805,2.0121951219512195,-0.0625,0.2060546875,0.08203125
508,2.209,IMU0,14.756097560975611,88.23170731707317,-6.52439024390244,-0.0859375,0.228515625,-0.013671875
509,2.209,IMU1,1.2195121951219514,92.43902439024392,2.1341463414634148,-0.056640625,0.2041015625,0.08984375
510,2.219,IMU0,15.243902439024392,88.10975609756099,-6.402439024390245,-0.0791015625,0.21875,-0.041015625
511,2.219,IMU1,1.402439024390244,92.31707317073172,2.439024390243903,-0.0712890625,0.203125,0.0849609375
512,2.229,IMU0,14.634146341463415,87.92682926829269,-6.219512195121951,-0.0771484375,0.216796875,-0.041015625
513,2.229,IMU1,1.1585365853658538,91.89024390243904,2.682926829268293,-0.0712890625,0.203125,0.0859375
514,2.239,IMU0,15.000000000000002,87.7439024390244,-5.975609756097562,-0.0927734375,0.203125,-0.0302734375
515,2.239,IMU1,1.3414634146341464,91.64634146341464,3.048780487804878,-0.0703125,0.2021484375,0.0869140625
516,2.249,IMU0,15.30487804878049,87.50000000000001,-5.609756097560976,-0.0791015625,0.19140625,-0.0478515625
517,2.249,IMU1,1.3414634146341464,91.28048780487806,3.231707317073171,-0.0634765625,0.201171875,0.0810546875
518,2.259,IMU0,15.182926829268293,86.82926829268294,-5.2439024390243905,-0.0751953125,0.19921875,-0.0576171875
519,2.259,IMU1,1.3414634146341464,90.91463414634147,3.414634146341464,-0.0517578125,0.201171875,0.0849609375
520,2.269,IMU0,15.000000000000002,86.46341463414635,-5.182926829268293,-0.0908203125,0.1943359375,-0.046875
521,2.269,IMU1,1.524390243902439,90.67073170731707,3.5975609756097566,-0.05859375,0.2001953125,0.0771484375
522,2.279,IMU0,14.817073170731708,86.15853658536587,-4.939024390243903,-0.0810546875,0.2041015625,-0.0439453125
523,2.279,IMU1,1.3414634146341464,90.2439024390244,3.7195121951219514,-0.0478515625,0.2001953125,0.078125
524,2.289,IMU0,15.060975609756099,86.15853658536587,-4.695121951219512,-0.0732421875,0.1962890625,-0.0361328125
525,2.289,IMU1,1.4634146341463417,90.1829268292683,3.9024390243902443,-0.0478515625,0.19921875,0.0810546875
526,2.299,IMU0,14.756097560975611,85.91463414634147,-4.390243902439025,-0.064453125,0.1953125,-0.0498046875
527,2.299,IMU1,1.402439024390244,90.00000000000001,3.963414634146342,-0.0419921875,0.1982421875,0.0712890625
528,2.309,IMU0,14.573170731707318,85.79268292682927,-4.451219512195122,-0.0458984375,0.203125,0.005859375
529,2.309,IMU1,1.3414634146341464,89.75609756097562,4.024390243902439,-0.02734375,0.197265625,0.0830078125
530,2.319,IMU0,14.634146341463415,85.97560975609757,-4.329268292682928,-0.0478515625,0.197265625,-0.0078125
531,2.319,IMU1,1.524390243902439,89.69512195121952,4.024390243902439,-0.0380859375,0.1962890625,0.080078125
532,2.329,IMU0,14.695121951219514,85.3048780487805,-4.207317073170732,-0.0546875,0.2001953125,-0.005859375
533,2.329,IMU1,1.2195121951219514,89.39024390243904,4.024390243902439,-0.03125,0.1962890625,0.0810546875
534,2.339,IMU0,15.060975609756099,85.1219512195122,-4.207317073170732,-0.0458984375,0.201171875,-0.0322265625
535,2.339,IMU1,1.3414634146341464,89.32926829268294,4.085365853658537,-0.025390625,0.1953125,0.0830078125
536,2.349,IMU0,14.817073170731708,84.93902439024392,-4.146341463414634,-0.041015625,0.2080078125,-0.03125
537,2.349,IMU1,1.2804878048780488,89.14634146341464,3.963414634146342,-0.0234375,0.1943359375,0.0732421875
538,2.359,IMU0,14.451219512195124,84.87804878048782,-4.2682926829268295,-0.0478515625,0.203125,-0.0283203125
539,2.359,IMU1,1.0975609756097562,88.90243902439025,3.9024390243902443,-0.015625,0.193359375,0.078125
540,2.369,IMU0,14.573170731707318,84.63414634146342,-4.451219512195122,-0.0595703125,0.2197265625,-0.021484375
541,2.369,IMU1,1.1585365853658538,88.71951219512196,3.8414634146341466,-0.0244140625,0.193359375,0.078125
542,2.379,IMU0,14.329268292682928,84.51219512195122,-4.75609756097561,-0.05859375,0.2138671875,-0.0166015625
543,2.379,IMU1,0.9756097560975611,88.47560975609757,3.780487804878049,-0.021484375,0.1923828125,0.0859375
544,2.389,IMU0,14.451219512195124,84.51219512195122,-4.695121951219512,-0.0458984375,0.2109375,-0.025390625
545,2.389,IMU1,1.1585365853658538,88.29268292682927,3.780487804878049,-0.01953125,0.19140625,0.0869140625
546,2.399,IMU0,14.573170731707318,84.20731707317074,-4.634146341463415,-0.05859375,0.2158203125,-0.01171875
547,2.399,IMU1,1.0365853658536586,87.98780487804879,3.780487804878049,-0.0263671875,0.1904296875,0.091796875
548,2.409,IMU0,14.329268292682928,84.14634146341464,-4.695121951219512,-0.03515625,0.1884765625,-0.01171875
549,2.409,IMU1,1.0365853658536586,87.8048780487805,3.780487804878049,-0.017578125,0.189453125,0.087890625
550,2.419,IMU0,14.573170731707318,83.96341463414635,-4.817073170731708,-0.04296875,0.193359375,-0.021484375
551,2.419,IMU1,1.0975609756097562,87.5609756097561,3.7195121951219514,-0.021484375,0.1904296875,0.0947265625
552,2.429,IMU0,15.060975609756099,83.78048780487805,-4.878048780487806,-0.0458984375,0.177734375,-0.0107421875
553,2.429,IMU1,1.0365853658536586,87.37804878048782,3.658536585365854,-0.0126953125,0.189453125,0.09375
554,2.439,IMU0,14.695121951219514,83.29268292682927,-5.182926829268293,-0.0322265625,0.1806640625,-0.0107421875
555,2.439,IMU1,1.0365853658536586,87.13414634146342,3.5975609756097566,-0.0107421875,0.1884765625,0.1005859375
556,2.449,IMU0,14.634146341463415,82.92682926829269,-5.3048780487804885,-0.0546875,0.1953125,-0.0029296875
557,2.449,IMU1,1.2804878048780488,86.95121951219512,3.4756097560975614,-0.0205078125,0.1865234375,0.09765625
558,2.459,IMU0,14.573170731707318,82.8658536585366,-5.670731707317073,-0.0361328125,0.193359375,-0.0048828125
559,2.459,IMU1,1.2195121951219514,86.76829268292684,3.414634146341464,-0.0107421875,0.1875,0.091796875
560,2.469,IMU0,14.878048780487806,82.8048780487805,-5.670731707317073,-0.03125,0.1982421875,-0.0166015625
561,2.469,IMU1,1.3414634146341464,86.58536585365854,3.2926829268292686,-0.0166015625,0.1865234375,0.1025390625
562,2.479,IMU0,15.182926829268293,82.31707317073172,-5.670731707317073,-0.05859375,0.1923828125,-0.0283203125
563,2.479,IMU1,1.402439024390244,86.46341463414635,3.1707317073170733,-0.013671875,0.185546875,0.1005859375
564,2.489,IMU0,15.182926829268293,82.5609756097561,-5.2439024390243905,-0.0634765625,0.1962890625,-0.0146484375
565,2.489,IMU1,1.5853658536585367,86.34146341463415,3.1097560975609757,-0.0126953125,0.1845703125,0.0986328125
566,2.499,IMU0,15.54878048780488,82.19512195121952,-5.2439024390243905,-0.046875,0.1884765625,-0.029296875
567,2.499,IMU1,1.7682926829268295,86.03658536585367,2.987804878048781,-0.015625,0.1845703125,0.1044921875
568,2.509,IMU0,15.54878048780488,81.82926829268294,-5.3048780487804885,-0.0185546875,0.2041015625,-0.0341796875
569,2.509,IMU1,1.707317073170732,85.73170731707317,2.9268292682926833,-0.0107421875,0.1826171875,0.1005859375
570,2.519,IMU0,15.060975609756099,81.58536585365854,-5.121951219512195,-0.0244140625,0.1982421875,-0.017578125
571,2.519,IMU1,1.7682926829268295,85.54878048780489,2.8658536585365857,-0.017578125,0.181640625,0.1015625
572,2.529,IMU0,15.182926829268293,81.46341463414635,-5.487804878048781,-0.0576171875,0.1787109375,-0.0068359375
573,2.529,IMU1,1.829268292682927,85.3048780487805,2.7439024390243905,-0.021484375,0.181640625,0.10546875
574,2.539,IMU0,15.30487804878049,81.34146341463415,-5.182926829268293,-0.0380859375,0.1806640625,-0.015625
575,2.539,IMU1,2.1951219512195124,85.1829268292683,2.7439024390243905,-0.0234375,0.1806640625,0.1005859375
576,2.549,IMU0,15.365853658536587,81.15853658536587,-5.548780487804878,-0.029296875,0.1865234375,-0.0263671875
577,2.549,IMU1,2.073170731707317,84.87804878048782,2.7439024390243905,-0.0205078125,0.1796875,0.09765625
578,2.559,IMU0,15.426829268292684,80.97560975609757,-5.7926829268292686,-0.0478515625,0.173828125,-0.0185546875
579,2.559,IMU1,2.0121951219512195,84.69512195121952,2.7439024390243905,-0.02734375,0.1796875,0.1015625
580,2.569,IMU0,15.609756097560977,80.97560975609757,-5.609756097560976,-0.056640625,0.1767578125,-0.037109375
581,2.569,IMU1,2.0121951219512195,84.39024390243902,2.7439024390243905,-0.03125,0.177734375,0.1025390625
582,2.579,IMU0,15.670731707317074,80.54878048780489,-5.2439024390243905,-0.052734375,0.1708984375,-0.025390625
583,2.579,IMU1,2.1341463414634148,84.14634146341464,2.804878048780488,-0.0234375,0.177734375,0.103515625
584,2.589,IMU0,15.731707317073171,80.42682926829269,-5.7926829268292686,-0.02734375,0.1923828125,-0.0166015625
585,2.589,IMU1,2.378048780487805,83.90243902439025,2.8658536585365857,-0.0244140625,0.177734375,0.1005859375
586,2.599,IMU0,15.54878048780488,80.2439024390244,-5.731707317073171,-0.02734375,0.185546875,-0.0224609375
587,2.599,IMU1,2.378048780487805,83.65853658536587,2.8658536585365857,-0.0234375,0.1767578125,0.095703125
588,2.609,IMU0,15.54878048780488,80.1219512195122,-5.7926829268292686,-0.02734375,0.1865234375,-0.029296875
589,2.609,IMU1,2.3170731707317076,83.47560975609757,2.804878048780488,-0.0166015625,0.17578125,0.09765625
590,2.619,IMU0,15.487804878048783,79.69512195121952,-5.548780487804878,-0.0205078125,0.177734375,-0.0390625
591,2.619,IMU1,2.378048780487805,83.29268292682927,2.804878048780488,-0.017578125,0.1748046875,0.099609375
592,2.629,IMU0,15.79268292682927,79.51219512195122,-5.609756097560976,-0.009765625,0.1875,-0.033203125
593,2.629,IMU1,2.5,83.04878048780489,2.7439024390243905,-0.021484375,0.173828125,0.095703125
594,2.639,IMU0,15.54878048780488,79.57317073170732,-5.670731707317073,-0.0234375,0.1865234375,-0.033203125
595,2.639,IMU1,2.5,82.92682926829269,2.7439024390243905,-0.0234375,0.173828125,0.0908203125
596,2.649,IMU0,16.158536585365855,79.02439024390245,-5.7926829268292686,-0.0224609375,0.1875,-0.029296875
597,2.649,IMU1,2.439024390243903,82.7439024390244,2.7439024390243905,-0.021484375,0.173828125,0.0966796875
598,2.659,IMU0,16.03658536585366,78.84146341463415,-5.670731707317073,-0.0244140625,0.1904296875,-0.048828125
599,2.659,IMU1,2.5,82.5609756097561,2.7439024390243905,-0.017578125,0.1728515625,0.0908203125
600,2.669,IMU0,15.853658536585368,78.65853658536587,-5.487804878048781,-0.03515625,0.1943359375,-0.052734375
601,2.669,IMU1,2.439024390243903,82.31707317073172,2.7439024390243905,-0.015625,0.171875,0.0966796875
602,2.679,IMU0,15.853658536585368,78.35365853658537,-5.609756097560976,-0.0458984375,0.1884765625,-0.044921875
603,2.679,IMU1,2.6219512195121952,82.13414634146342,2.682926829268293,-0.017578125,0.1708984375,0.0947265625
604,2.689,IMU0,15.853658536585368,77.8048780487805,-5.487804878048781,-0.04296875,0.19140625,-0.0439453125
605,2.689,IMU1,2.682926829268293,81.89024390243902,2.682926829268293,-0.0234375,0.1708984375,0.091796875
606,2.699,IMU0,16.03658536585366,77.8048780487805,-5.670731707317073,-0.04296875,0.17578125,-0.0244140625
607,2.699,IMU1,2.804878048780488,81.58536585365854,2.6219512195121952,-0.0234375,0.169921875,0.09375
608,2.709,IMU0,15.853658536585368,77.5,-5.487804878048781,-0.0302734375,0.181640625,-0.005859375
609,2.709,IMU1,2.804878048780488,81.28048780487805,2.6219512195121952,-0.0185546875,0.1689453125,0.091796875
610,2.719,IMU0,16.463414634146343,77.25609756097562,-5.731707317073171,-0.04296875,0.16796875,-0.0234375
611,2.719,IMU1,2.8658536585365857,81.09756097560977,2.5609756097560976,-0.017578125,0.1689453125,0.0927734375
612,2.729,IMU0,16.28048780487805,77.25609756097562,-5.426829268292684,-0.0390625,0.177734375,-0.0244140625
613,2.729,IMU1,2.804878048780488,80.97560975609757,2.5,-0.015625,0.16796875,0.08203125
614,2.739,IMU0,16.097560975609756,77.07317073170732,-5.670731707317073,-0.0166015625,0.1708984375,-0.041015625
615,2.739,IMU1,2.804878048780488,80.73170731707317,2.439024390243903,-0.009765625,0.1669921875,0.0810546875
616,2.749,IMU0,16.158536585365855,76.70731707317074,-5.7926829268292686,-0.021484375,0.169921875,-0.044921875
617,2.749,IMU1,2.8658536585365857,80.54878048780489,2.378048780487805,-0.0146484375,0.1669921875,0.0712890625
618,2.759,IMU0,15.975609756097562,76.70731707317074,-5.853658536585367,-0.013671875,0.1796875,-0.03125
619,2.759,IMU1,2.5609756097560976,80.1829268292683,2.378048780487805,-0.0126953125,0.1669921875,0.078125
620,2.769,IMU0,15.79268292682927,76.46341463414635,-5.853658536585367,-0.0185546875,0.1923828125,-0.0361328125
621,2.769,IMU1,2.682926829268293,80.1219512195122,2.25609756097561,-0.0126953125,0.1669921875,0.0732421875
622,2.779,IMU0,15.670731707317074,76.15853658536587,-5.853658536585367,-0.0244140625,0.1865234375,-0.0322265625
623,2.779,IMU1,2.378048780487805,79.81707317073172,2.25609756097561,-0.01953125,0.1669921875,0.0703125
624,2.789,IMU0,15.79268292682927,75.85365853658537,-6.036585365853659,-0.0556640625,0.1845703125,-0.0361328125
625,2.789,IMU1,2.378048780487805,79.63414634146342,2.25609756097561,-0.0146484375,0.1650390625,0.072265625
626,2.799,IMU0,16.158536585365855,75.48780487804879,-5.731707317073171,-0.0537109375,0.185546875,-0.046875
627,2.799,IMU1,2.25609756097561,79.45121951219512,2.25609756097561,-0.01953125,0.1650390625,0.068359375
628,2.809,IMU0,15.426829268292684,75.48780487804879,-6.463414634146342,-0.0576171875,0.1796875,-0.0244140625
629,2.809,IMU1,2.073170731707317,79.26829268292684,2.25609756097561,-0.0166015625,0.1630859375,0.0732421875
630,2.819,IMU0,15.365853658536587,75.2439024390244,-5.914634146341464,-0.0439453125,0.171875,-0.025390625
631,2.819,IMU1,2.25609756097561,79.20731707317074,2.25609756097561,-0.0146484375,0.1640625,0.0693359375
632,2.829,IMU0,15.426829268292684,75.1219512195122,-5.975609756097562,-0.0478515625,0.185546875,-0.0537109375
633,2.829,IMU1,2.073170731707317,78.90243902439025,2.1951219512195124,-0.01171875,0.1630859375,0.0654296875
634,2.839,IMU0,14.878048780487806,74.81707317073172,-5.731707317073171,-0.0419921875,0.1943359375,-0.0546875
635,2.839,IMU1,1.8902439024390245,78.65853658536587,2.1341463414634148,-0.009765625,0.162109375,0.076171875
636,2.849,IMU0,15.365853658536587,74.87804878048782,-6.219512195121951,-0.041015625,0.1875,-0.0498046875
637,2.849,IMU1,2.0121951219512195,78.53658536585367,2.0121951219512195,-0.0146484375,0.1611328125,0.0751953125
638,2.859,IMU0,15.30487804878049,74.81707317073172,-6.341463414634147,-0.04296875,0.1591796875,-0.0576171875
639,2.859,IMU1,1.8902439024390245,78.41463414634147,1.8902439024390245,-0.013671875,0.16015625,0.0693359375
640,2.869,IMU0,15.426829268292684,74.57317073170732,-6.341463414634147,-0.0439453125,0.1689453125,-0.0673828125
641,2.869,IMU1,1.707317073170732,78.23170731707317,1.8902439024390245,-0.017578125,0.16015625,0.0703125
642,2.879,IMU0,15.060975609756099,74.26829268292684,-6.585365853658537,-0.0234375,0.1669921875,-0.03515625
643,2.879,IMU1,1.6463414634146343,78.04878048780489,1.8902439024390245,-0.0185546875,0.1591796875,0.0712890625
644,2.889,IMU0,15.243902439024392,74.26829268292684,-6.646341463414635,-0.0244140625,0.1650390625,-0.0380859375
645,2.889,IMU1,1.5853658536585367,77.8048780487805,1.8902439024390245,-0.0166015625,0.1591796875,0.0732421875
646,2.899,IMU0,14.878048780487806,74.14634146341464,-6.402439024390245,-0.017578125,0.166015625,-0.0576171875
647,2.899,IMU1,1.7682926829268295,77.7439024390244,1.829268292682927,-0.0107421875,0.158203125,0.0654296875
648,2.909,IMU0,14.939024390243905,74.14634146341464,-6.52439024390244,-0.0126953125,0.177734375,-0.03515625
649,2.909,IMU1,1.4634146341463417,77.43902439024392,1.707317073170732,-0.009765625,0.1572265625,0.07421875
650,2.919,IMU0,15.182926829268293,73.71951219512195,-6.158536585365854,-0.029296875,0.158203125,-0.0341796875
651,2.919,IMU1,1.5853658536585367,77.43902439024392,1.5853658536585367,-0.01171875,0.15625,0.0693359375
652,2.929,IMU0,15.426829268292684,73.47560975609757,-6.707317073170732,-0.0302734375,0.154296875,-0.0390625
653,2.929,IMU1,1.3414634146341464,77.19512195121952,1.4634146341463417,-0.0078125,0.1552734375,0.0654296875
654,2.939,IMU0,15.000000000000002,73.41463414634147,-6.7682926829268295,-0.0224609375,0.158203125,-0.0234375
655,2.939,IMU1,1.2804878048780488,77.07317073170732,1.402439024390244,-0.0107421875,0.15625,0.0732421875
656,2.949,IMU0,14.695121951219514,72.8048780487805,-6.646341463414635,-0.025390625,0.1552734375,-0.0380859375
657,2.949,IMU1,1.0975609756097562,76.89024390243902,1.2804878048780488,-0.0107421875,0.1552734375,0.0576171875
658,2.959,IMU0,14.02439024390244,72.98780487804879,-6.890243902439025,-0.013671875,0.16796875,-0.0224609375
659,2.959,IMU1,0.9146341463414634,76.70731707317074,1.2195121951219514,-0.013671875,0.1552734375,0.0693359375
660,2.969,IMU0,14.634146341463415,73.23170731707317,-6.890243902439025,-0.0048828125,0.16796875,-0.0556640625
661,2.969,IMU1,0.9756097560975611,76.70731707317074,1.0975609756097562,-0.0146484375,0.1552734375,0.0595703125
662,2.979,IMU0,14.26829268292683,73.04878048780489,-7.01219512195122,-0.0029296875,0.16796875,-0.0361328125
663,2.979,IMU1,0.7317073170731708,76.40243902439025,1.0365853658536586,-0.015625,0.154296875,0.064453125
664,2.989,IMU0,14.451219512195124,72.7439024390244,-7.195121951219513,-0.0107421875,0.162109375,-0.05078125
665,2.989,IMU1,0.7317073170731708,76.34146341463415,0.9756097560975611,-0.0185546875,0.154296875,0.064453125
666,2.999,IMU0,14.02439024390244,72.31707317073172,-7.073170731707318,-0.015625,0.16015625,-0.0576171875
667,2.999,IMU1,0.48780487804878053,76.09756097560977,1.0365853658536586,-0.021484375,0.15234375,0.0634765625
668,3.009,IMU0,13.658536585365855,72.07317073170732,-6.951219512195123,-0.0166015625,0.1533203125,-0.0224609375
669,3.009,IMU1,0.5487804878048781,75.91463414634147,0.9756097560975611,-0.02734375,0.15234375,0.07421875
670,3.019,IMU0,14.207317073170733,72.07317073170732,-7.01219512195122,-0.0244140625,0.154296875,-0.0537109375
671,3.019,IMU1,0.426829268292683,75.67073170731707,1.0365853658536586,-0.0234375,0.15234375,0.0654296875
672,3.029,IMU0,13.963414634146343,72.13414634146342,-6.585365853658537,-0.0263671875,0.1572265625,-0.041015625
673,3.029,IMU1,0.30487804878048785,75.3658536585366,0.9756097560975611,-0.0263671875,0.1513671875,0.068359375
674,3.039,IMU0,13.841463414634148,71.89024390243902,-7.134146341463415,-0.0400390625,0.15625,-0.0556640625
675,3.039,IMU1,0.3658536585365854,75.2439024390244,0.9146341463414634,-0.0224609375,0.150390625,0.0654296875
676,3.049,IMU0,13.719512195121952,71.58536585365854,-7.134146341463415,-0.0390625,0.16015625,-0.0458984375
677,3.049,IMU1,0.30487804878048785,75.0,0.853658536585366,-0.0205078125,0.150390625,0.0732421875
678,3.059,IMU0,13.719512195121952,71.64634146341464,-7.378048780487806,-0.0390625,0.1513671875,-0.052734375
679,3.059,IMU1,0.30487804878048785,74.81707317073172,0.7926829268292683,-0.025390625,0.1494140625,0.0791015625
680,3.069,IMU0,13.353658536585368,71.46341463414635,-7.560975609756098,-0.048828125,0.1669921875,-0.03125
681,3.069,IMU1,0.12195121951219513,74.63414634146342,0.7926829268292683,-0.0263671875,0.1484375,0.0712890625
682,3.079,IMU0,13.414634146341465,71.15853658536587,-7.134146341463415,-0.0576171875,0.16015625,-0.046875
683,3.079,IMU1,0.06097560975609757,74.45121951219512,0.853658536585366,-0.03125,0.1474609375,0.0732421875
684,3.089,IMU0,13.658536585365855,70.54878048780489,-7.195121951219513,-0.0625,0.1689453125,-0.033203125
685,3.089,IMU1,0.12195121951219513,74.32926829268294,0.9146341463414634,-0.0283203125,0.1474609375,0.0712890625
686,3.099,IMU0,13.78048780487805,70.73170731707317,-7.134146341463415,-0.0615234375,0.171875,-0.041015625
687,3.099,IMU1,-0.06097560975609757,74.20731707317074,0.9146341463414634,-0.029296875,0.1474609375,0.0712890625
688,3.109,IMU0,13.536585365853659,70.48780487804879,-6.951219512195123,-0.064453125,0.15234375,-0.025390625
689,3.109,IMU1,-0.06097560975609757,74.02439024390245,0.9146341463414634,-0.0302734375,0.1455078125,0.0732421875
690,3.119,IMU0,13.658536585365855,70.2439024390244,-6.707317073170732,-0.0625,0.1591796875,-0.033203125
691,3.119,IMU1,-0.06097560975609757,73.78048780487805,0.9146341463414634,-0.03125,0.146484375,0.072265625
692,3.129,IMU0,13.231707317073171,70.0609756097561,-6.646341463414635,-0.0732421875,0.158203125,-0.037109375
693,3.129,IMU1,-0.12195121951219513,73.53658536585367,0.9756097560975611,-0.0322265625,0.1455078125,0.0751953125
694,3.139,IMU0,13.414634146341465,69.69512195121952,-6.7682926829268295,-0.0625,0.16015625,-0.048828125
695,3.139,IMU1,-0.24390243902439027,73.41463414634147,0.9756097560975611,-0.029296875,0.142578125,0.0693359375
696,3.149,IMU0,13.536585365853659,69.45121951219512,-6.707317073170732,-0.064453125,0.162109375,-0.0341796875
697,3.149,IMU1,-0.30487804878048785,73.23170731707317,1.0365853658536586,-0.033203125,0.1416015625,0.076171875
698,3.159,IMU0,13.29268292682927,69.26829268292684,-7.073170731707318,-0.064453125,0.158203125,-0.0390625
699,3.159,IMU1,-0.12195121951219513,73.10975609756098,1.0365853658536586,-0.025390625,0.1416015625,0.0751953125
700,3.169,IMU0,13.29268292682927,69.20731707317074,-7.134146341463415,-0.056640625,0.140625,-0.052734375
701,3.169,IMU1,-0.3658536585365854,72.8048780487805,1.0365853658536586,-0.0234375,0.142578125,0.0712890625
702,3.179,IMU0,13.231707317073171,69.02439024390245,-7.01219512195122,-0.052734375,0.15234375,-0.0361328125
703,3.179,IMU1,-0.48780487804878053,72.6829268292683,1.0365853658536586,-0.0283203125,0.142578125,0.0791015625
704,3.189,IMU0,12.80487804878049,68.90243902439025,-6.951219512195123,-0.05078125,0.1416015625,-0.0322265625
705,3.189,IMU1,-0.426829268292683,72.5,0.9756097560975611,-0.025390625,0.140625,0.0751953125
706,3.199,IMU0,12.682926829268293,68.47560975609757,-6.890243902439025,-0.0615234375,0.15625,-0.025390625
707,3.199,IMU1,-0.48780487804878053,72.19512195121952,1.0365853658536586,-0.029296875,0.140625,0.080078125
708,3.209,IMU0,13.109756097560977,68.53658536585367,-7.073170731707318,-0.0498046875,0.150390625,-0.0361328125
709,3.209,IMU1,-0.3658536585365854,72.07317073170732,1.0365853658536586,-0.0302734375,0.140625,0.080078125
710,3.219,IMU0,12.926829268292684,68.29268292682927,-7.134146341463415,-0.037109375,0.1455078125,-0.041015625
711,3.219,IMU1,-0.6097560975609757,71.76829268292684,1.0975609756097562,-0.02734375,0.1396484375,0.076171875
712,3.229,IMU0,13.170731707317074,68.29268292682927,-6.7682926829268295,-0.0341796875,0.1513671875,-0.01953125
713,3.229,IMU1,-0.48780487804878053,71.64634146341464,1.0365853658536586,-0.0263671875,0.1396484375,0.0791015625
714,3.239,IMU0,13.04878048780488,68.10975609756098,-6.707317073170732,-0.04296875,0.146484375,-0.0205078125
715,3.239,IMU1,-0.6707317073170732,71.40243902439025,1.0975609756097562,-0.0244140625,0.138671875,0.0732421875
716,3.249,IMU0,12.500000000000002,68.41463414634147,-6.7682926829268295,-0.0458984375,0.16015625,-0.017578125
717,3.249,IMU1,-0.7317073170731708,71.21951219512195,1.0975609756097562,-0.025390625,0.1376953125,0.080078125
718,3.259,IMU0,12.74390243902439,68.41463414634147,-6.951219512195123,-0.0390625,0.162109375,-0.025390625
719,3.259,IMU1,-0.7926829268292683,71.15853658536587,1.0975609756097562,-0.02734375,0.1376953125,0.080078125
720,3.269,IMU0,12.682926829268293,67.8048780487805,-6.890243902439025,-0.052734375,0.1513671875,-0.0205078125
721,3.269,IMU1,-0.7926829268292683,70.97560975609757,1.1585365853658538,-0.03125,0.1376953125,0.0810546875
722,3.279,IMU0,12.500000000000002,67.5609756097561,-6.646341463414635,-0.0478515625,0.1572265625,-0.03515625
723,3.279,IMU1,-0.6707317073170732,70.79268292682927,1.0975609756097562,-0.0283203125,0.13671875,0.0791015625
724,3.289,IMU0,12.682926829268293,67.37804878048782,-6.52439024390244,-0.0419921875,0.14453125,-0.0380859375
725,3.289,IMU1,-0.7926829268292683,70.54878048780489,1.1585365853658538,-0.025390625,0.13671875,0.0810546875
726,3.299,IMU0,12.682926829268293,67.13414634146342,-6.707317073170732,-0.0576171875,0.1416015625,-0.0517578125
727,3.299,IMU1,-0.7317073170731708,70.3658536585366,1.0975609756097562,-0.029296875,0.1357421875,0.0791015625
728,3.309,IMU0,12.500000000000002,66.82926829268293,-6.52439024390244,-0.056640625,0.142578125,-0.0302734375
729,3.309,IMU1,-0.7926829268292683,70.1219512195122,1.0975609756097562,-0.0244140625,0.1357421875,0.0830078125
730,3.319,IMU0,13.170731707317074,66.40243902439025,-6.585365853658537,-0.0693359375,0.140625,-0.0283203125
731,3.319,IMU1,-0.6097560975609757,70.0609756097561,1.0975609756097562,-0.029296875,0.134765625,0.0771484375
732,3.329,IMU0,13.109756097560977,66.09756097560977,-6.585365853658537,-0.0517578125,0.1337890625,-0.0068359375
733,3.329,IMU1,-0.9756097560975611,69.63414634146342,1.1585365853658538,-0.0302734375,0.1337890625,0.083984375
734,3.339,IMU0,12.500000000000002,66.03658536585367,-6.2804878048780495,-0.0302734375,0.1220703125,-0.001953125
735,3.339,IMU1,-0.6097560975609757,69.57317073170732,1.1585365853658538,-0.025390625,0.1328125,0.0849609375
736,3.349,IMU0,12.987804878048781,65.97560975609757,-6.829268292682928,-0.0322265625,0.1259765625,-0.017578125
737,3.349,IMU1,-0.7317073170731708,69.26829268292684,1.1585365853658538,-0.025390625,0.1337890625,0.0830078125
738,3.359,IMU0,12.865853658536587,65.85365853658537,-7.134146341463415,-0.0322265625,0.1357421875,-0.0146484375
739,3.359,IMU1,-0.853658536585366,69.02439024390245,1.1585365853658538,-0.0263671875,0.1318359375,0.0947265625
740,3.369,IMU0,13.231707317073171,65.54878048780489,-7.01219512195122,-0.0439453125,0.14453125,-0.021484375
741,3.369,IMU1,-0.6707317073170732,68.90243902439025,1.0975609756097562,-0.02734375,0.130859375,0.080078125
742,3.379,IMU0,12.926829268292684,65.1219512195122,-6.890243902439025,-0.041015625,0.1337890625,-0.0166015625
743,3.379,IMU1,-1.0975609756097562,68.47560975609757,1.0975609756097562,-0.02734375,0.130859375,0.0927734375
744,3.389,IMU0,12.80487804878049,65.1219512195122,-7.01219512195122,-0.0419921875,0.126953125,-0.0224609375
745,3.389,IMU1,-0.6707317073170732,68.41463414634147,1.0975609756097562,-0.0283203125,0.1298828125,0.0849609375
746,3.399,IMU0,12.926829268292684,64.81707317073172,-6.707317073170732,-0.046875,0.134765625,-0.0380859375
747,3.399,IMU1,-0.9756097560975611,67.98780487804879,1.1585365853658538,-0.03515625,0.1298828125,0.0859375
748,3.409,IMU0,12.926829268292684,64.57317073170732,-6.646341463414635,-0.0556640625,0.1279296875,-0.0087890625
749,3.409,IMU1,-0.6097560975609757,67.8658536585366,1.1585365853658538,-0.0322265625,0.1298828125,0.091796875
750,3.419,IMU0,12.926829268292684,64.02439024390245,-6.707317073170732,-0.046875,0.1298828125,-0.03125
751,3.419,IMU1,-0.6707317073170732,67.5609756097561,1.1585365853658538,-0.029296875,0.12890625,0.080078125
752,3.429,IMU0,12.682926829268293,64.02439024390245,-6.7682926829268295,-0.048828125,0.142578125,-0.0322265625
753,3.429,IMU1,-0.7926829268292683,67.31707317073172,1.1585365853658538,-0.03125,0.12890625,0.0966796875
754,3.439,IMU0,12.865853658536587,63.963414634146346,-6.829268292682928,-0.0439453125,0.1357421875,-0.01953125
755,3.439,IMU1,-0.5487804878048781,67.37804878048782,1.1585365853658538,-0.0283203125,0.1279296875,0.0810546875
756,3.449,IMU0,12.682926829268293,63.65853658536586,-7.073170731707318,-0.0478515625,0.13671875,-0.0146484375
757,3.449,IMU1,-0.9756097560975611,67.07317073170732,1.2195121951219514,-0.03125,0.1279296875,0.087890625
758,3.459,IMU0,12.926829268292684,63.53658536585366,-7.073170731707318,-0.0478515625,0.134765625,-0.0009765625
759,3.459,IMU1,-0.7317073170731708,67.01219512195122,1.1585365853658538,-0.0283203125,0.126953125,0.091796875
760,3.469,IMU0,12.987804878048781,63.23170731707317,-7.01219512195122,-0.0419921875,0.12890625,-0.0185546875
761,3.469,IMU1,-0.853658536585366,66.76829268292684,1.2195121951219514,-0.0302734375,0.1259765625,0.0810546875
762,3.479,IMU0,12.621951219512196,62.987804878048784,-6.646341463414635,-0.03125,0.1240234375,-0.009765625
763,3.479,IMU1,-0.853658536585366,66.46341463414635,1.2195121951219514,-0.029296875,0.125,0.091796875
764,3.489,IMU0,12.80487804878049,63.04878048780488,-6.829268292682928,-0.029296875,0.1396484375,-0.01171875
765,3.489,IMU1,-0.7926829268292683,66.34146341463415,1.2195121951219514,-0.0283203125,0.125,0.0888671875
766,3.499,IMU0,13.109756097560977,62.6219512195122,-6.829268292682928,-0.0361328125,0.14453125,-0.01953125
767,3.499,IMU1,-0.7317073170731708,65.97560975609757,1.2195121951219514,-0.03125,0.1240234375,0.08984375
768,3.509,IMU0,13.04878048780488,62.6829268292683,-6.707317073170732,-0.044921875,0.1455078125,-0.0234375
769,3.509,IMU1,-0.426829268292683,65.91463414634147,1.2195121951219514,-0.0283203125,0.123046875,0.0888671875
770,3.519,IMU0,12.80487804878049,62.43902439024391,-6.585365853658537,-0.0634765625,0.1396484375,-0.01953125
771,3.519,IMU1,-0.48780487804878053,65.60975609756098,1.2804878048780488,-0.033203125,0.1220703125,0.0908203125
772,3.529,IMU0,12.621951219512196,62.19512195121952,-6.585365853658537,-0.0576171875,0.142578125,-0.015625
773,3.529,IMU1,-0.426829268292683,65.42682926829269,1.2804878048780488,-0.0283203125,0.123046875,0.09375
774,3.539,IMU0,12.682926829268293,62.07317073170732,-6.463414634146342,-0.03515625,0.140625,-0.033203125
775,3.539,IMU1,-0.426829268292683,65.2439024390244,1.2804878048780488,-0.025390625,0.1220703125,0.0947265625
776,3.549,IMU0,12.500000000000002,61.768292682926834,-6.585365853658537,-0.02734375,0.1455078125,-0.0458984375
777,3.549,IMU1,-0.3658536585365854,65.1219512195122,1.2804878048780488,-0.02734375,0.1220703125,0.0927734375
778,3.559,IMU0,12.926829268292684,61.585365853658544,-6.951219512195123,-0.05859375,0.1328125,-0.0205078125
779,3.559,IMU1,-0.48780487804878053,64.9390243902439,1.2804878048780488,-0.0205078125,0.12109375,0.0908203125
780,3.569,IMU0,12.865853658536587,61.524390243902445,-6.7682926829268295,-0.056640625,0.125,-0.009765625
781,3.569,IMU1,-0.6097560975609757,64.75609756097562,1.2804878048780488,-0.0244140625,0.12109375,0.08984375
782,3.579,IMU0,12.926829268292684,61.15853658536586,-6.585365853658537,-0.04296875,0.1181640625,-0.017578125
783,3.579,IMU1,-0.6097560975609757,64.63414634146342,1.2195121951219514,-0.01953125,0.119140625,0.08984375
784,3.589,IMU0,13.170731707317074,60.67073170731708,-6.463414634146342,-0.0498046875,0.1220703125,-0.029296875
785,3.589,IMU1,-0.48780487804878053,64.51219512195122,1.2195121951219514,-0.01953125,0.119140625,0.0869140625
786,3.599,IMU0,12.865853658536587,60.67073170731708,-6.402439024390245,-0.044921875,0.1259765625,-0.009765625
787,3.599,IMU1,-0.5487804878048781,64.26829268292684,1.1585365853658538,-0.0244140625,0.1171875,0.08984375
788,3.609,IMU0,12.987804878048781,60.97560975609757,-6.585365853658537,-0.0439453125,0.119140625,-0.0078125
789,3.609,IMU1,-0.48780487804878053,64.02439024390245,1.1585365853658538,-0.01953125,0.1171875,0.0908203125
790,3.619,IMU0,12.926829268292684,60.54878048780488,-6.646341463414635,-0.0654296875,0.1220703125,-0.0244140625
791,3.619,IMU1,-0.3658536585365854,63.84146341463415,1.1585365853658538,-0.025390625,0.1171875,0.0859375
792,3.629,IMU0,12.926829268292684,60.1829268292683,-6.829268292682928,-0.0380859375,0.1240234375,-0.0263671875
793,3.629,IMU1,-0.426829268292683,63.53658536585366,1.0975609756097562,-0.0224609375,0.1162109375,0.0859375
794,3.639,IMU0,13.109756097560977,60.243902439024396,-7.01219512195122,-0.029296875,0.1240234375,-0.041015625
795,3.639,IMU1,-0.3658536585365854,63.47560975609757,1.1585365853658538,-0.021484375,0.1162109375,0.0859375
796,3.649,IMU0,12.500000000000002,60.1219512195122,-6.7682926829268295,-0.0302734375,0.1298828125,-0.0341796875
797,3.649,IMU1,-0.5487804878048781,63.23170731707317,1.0975609756097562,-0.0224609375,0.1162109375,0.08984375
798,3.659,IMU0,12.80487804878049,60.060975609756106,-6.951219512195123,-0.0263671875,0.130859375,-0.0048828125
799,3.659,IMU1,-0.48780487804878053,62.987804878048784,1.0975609756097562,-0.0185546875,0.1162109375,0.091796875
800,3.669,IMU0,13.231707317073171,59.63414634146342,-6.890243902439025,-0.0400390625,0.1171875,-0.0126953125
801,3.669,IMU1,-0.3658536585365854,62.865853658536594,1.0365853658536586,-0.01953125,0.1142578125,0.08984375
802,3.679,IMU0,13.353658536585368,59.57317073170732,-6.829268292682928,-0.0478515625,0.125,-0.0078125
803,3.679,IMU1,-0.30487804878048785,62.6219512195122,1.0365853658536586,-0.013671875,0.115234375,0.08984375
804,3.689,IMU0,13.658536585365855,59.268292682926834,-6.829268292682928,-0.0380859375,0.138671875,-0.017578125
805,3.689,IMU1,-0.24390243902439027,62.43902439024391,0.9146341463414634,-0.0166015625,0.1142578125,0.0888671875
806,3.699,IMU0,13.170731707317074,58.84146341463415,-6.7682926829268295,-0.0419921875,0.1376953125,-0.0283203125
807,3.699,IMU1,-0.30487804878048785,62.19512195121952,0.7926829268292683,-0.017578125,0.11328125,0.087890625
808,3.709,IMU0,13.231707317073171,58.53658536585366,-6.890243902439025,-0.0341796875,0.1123046875,-0.0087890625
809,3.709,IMU1,-0.30487804878048785,62.01219512195122,0.7317073170731708,-0.015625,0.11328125,0.091796875
810,3.719,IMU0,13.231707317073171,58.41463414634147,-6.829268292682928,-0.041015625,0.1240234375,-0.0146484375
811,3.719,IMU1,-0.3658536585365854,61.82926829268293,0.6707317073170732,-0.01953125,0.1142578125,0.08984375
812,3.729,IMU0,13.29268292682927,58.35365853658537,-7.01219512195122,-0.03515625,0.123046875,-0.0283203125
813,3.729,IMU1,-0.24390243902439027,61.585365853658544,0.6097560975609757,-0.01953125,0.11328125,0.091796875
814,3.739,IMU0,13.475609756097562,58.29268292682927,-7.378048780487806,-0.0419921875,0.1181640625,-0.01953125
815,3.739,IMU1,-0.12195121951219513,61.463414634146346,0.5487804878048781,-0.0234375,0.1123046875,0.0927734375
816,3.749,IMU0,13.04878048780488,58.04878048780488,-7.317073170731708,-0.03125,0.130859375,-0.00390625
817,3.749,IMU1,-0.24390243902439027,61.28048780487806,0.5487804878048781,-0.0234375,0.111328125,0.0869140625
818,3.759,IMU0,12.682926829268293,58.04878048780488,-6.951219512195123,-0.0263671875,0.1220703125,0.001953125
819,3.759,IMU1,-0.24390243902439027,61.03658536585366,0.5487804878048781,-0.021484375,0.109375,0.08984375
820,3.769,IMU0,12.926829268292684,57.926829268292686,-6.951219512195123,-0.0361328125,0.1162109375,-0.0009765625
821,3.769,IMU1,-0.24390243902439027,60.91463414634147,0.48780487804878053,-0.021484375,0.107421875,0.0859375
822,3.779,IMU0,13.29268292682927,57.6829268292683,-7.01219512195122,-0.0224609375,0.125,-0.025390625
823,3.779,IMU1,-0.426829268292683,60.73170731707317,0.48780487804878053,-0.0205078125,0.1103515625,0.087890625
824,3.789,IMU0,13.597560975609758,57.25609756097561,-7.560975609756098,-0.0166015625,0.1171875,-0.0146484375
825,3.789,IMU1,-0.24390243902439027,60.67073170731708,0.48780487804878053,-0.0205078125,0.109375,0.08984375
826,3.799,IMU0,13.475609756097562,56.951219512195124,-7.317073170731708,-0.033203125,0.11328125,-0.017578125
827,3.799,IMU1,-0.30487804878048785,60.426829268292686,0.426829268292683,-0.0224609375,0.1083984375,0.0869140625
828,3.809,IMU0,13.353658536585368,57.13414634146342,-7.500000000000001,-0.044921875,0.1162109375,-0.0205078125
829,3.809,IMU1,-0.426829268292683,60.243902439024396,0.426829268292683,-0.0224609375,0.1083984375,0.0908203125
830,3.819,IMU0,13.536585365853659,56.768292682926834,-7.682926829268293,-0.0517578125,0.1083984375,-0.021484375
831,3.819,IMU1,-0.24390243902439027,60.060975609756106,0.3658536585365854,-0.025390625,0.1083984375,0.0810546875
832,3.829,IMU0,13.536585365853659,56.463414634146346,-7.439024390243903,-0.029296875,0.111328125,-0.013671875
833,3.829,IMU1,-0.3658536585365854,59.81707317073171,0.3658536585365854,-0.02734375,0.1083984375,0.0859375
834,3.839,IMU0,13.536585365853659,56.40243902439025,-6.890243902439025,-0.0234375,0.134765625,-0.0166015625
835,3.839,IMU1,-0.30487804878048785,59.69512195121952,0.3658536585365854,-0.025390625,0.1083984375,0.0830078125
836,3.849,IMU0,13.170731707317074,56.28048780487806,-6.829268292682928,-0.0244140625,0.1357421875,-0.03125
837,3.849,IMU1,-0.30487804878048785,59.451219512195124,0.48780487804878053,-0.0244140625,0.1064453125,0.087890625
838,3.859,IMU0,13.29268292682927,56.09756097560976,-7.195121951219513,-0.02734375,0.1279296875,-0.0302734375
839,3.859,IMU1,-0.30487804878048785,59.32926829268293,0.426829268292683,-0.0205078125,0.10546875,0.0869140625
840,3.869,IMU0,13.719512195121952,55.73170731707317,-7.073170731707318,-0.0263671875,0.123046875,-0.029296875
841,3.869,IMU1,-0.30487804878048785,59.085365853658544,0.426829268292683,-0.0224609375,0.10546875,0.0849609375
842,3.879,IMU0,13.841463414634148,55.60975609756098,-7.195121951219513,-0.0361328125,0.1181640625,-0.021484375
843,3.879,IMU1,-0.3658536585365854,58.963414634146346,0.426829268292683,-0.0205078125,0.1044921875,0.087890625
844,3.889,IMU0,13.78048780487805,55.243902439024396,-7.01219512195122,-0.029296875,0.1162109375,-0.0107421875
845,3.889,IMU1,-0.3658536585365854,58.84146341463415,0.426829268292683,-0.0205078125,0.1044921875,0.083984375
846,3.899,IMU0,13.414634146341465,55.487804878048784,-7.134146341463415,-0.05078125,0.12890625,-0.0205078125
847,3.899,IMU1,-0.30487804878048785,58.71951219512196,0.3658536585365854,-0.025390625,0.1044921875,0.0869140625
848,3.909,IMU0,13.353658536585368,55.426829268292686,-7.01219512195122,-0.03515625,0.123046875,-0.0126953125
849,3.909,IMU1,-0.30487804878048785,58.53658536585366,0.3658536585365854,-0.0205078125,0.103515625,0.080078125
850,3.919,IMU0,12.865853658536587,55.1829268292683,-7.01219512195122,-0.041015625,0.126953125,-0.041015625
851,3.919,IMU1,-0.30487804878048785,58.35365853658537,0.426829268292683,-0.0244140625,0.103515625,0.0849609375
852,3.929,IMU0,12.987804878048781,55.00000000000001,-7.073170731707318,-0.0390625,0.12890625,-0.02734375
853,3.929,IMU1,-0.30487804878048785,58.23170731707317,0.3658536585365854,-0.0244140625,0.1025390625,0.080078125
854,3.939,IMU0,13.109756097560977,54.93902439024391,-7.134146341463415,-0.0458984375,0.1142578125,-0.0126953125
855,3.939,IMU1,-0.3658536585365854,57.987804878048784,0.426829268292683,-0.0234375,0.1015625,0.080078125
856,3.949,IMU0,12.926829268292684,54.93902439024391,-6.951219512195123,-0.0537109375,0.12890625,-0.015625
857,3.949,IMU1,-0.426829268292683,57.865853658536594,0.3658536585365854,-0.021484375,0.1015625,0.0830078125
858,3.959,IMU0,12.439024390243903,54.93902439024391,-7.317073170731708,-0.041015625,0.119140625,-0.0234375
859,3.959,IMU1,-0.5487804878048781,57.6829268292683,0.3658536585365854,-0.0205078125,0.1015625,0.0830078125
860,3.969,IMU0,12.682926829268293,54.57317073170732,-7.25609756097561,-0.021484375,0.1318359375,-0.0283203125
861,3.969,IMU1,-0.48780487804878053,57.560975609756106,0.30487804878048785,-0.021484375,0.1005859375,0.0849609375
862,3.979,IMU0,12.865853658536587,54.32926829268293,-7.25609756097561,-0.0166015625,0.1357421875,-0.0234375
863,3.979,IMU1,-0.5487804878048781,57.50000000000001,0.30487804878048785,-0.0185546875,0.1005859375,0.080078125
864,3.989,IMU0,12.439024390243903,53.963414634146346,-7.25609756097561,-0.04296875,0.1416015625,-0.0185546875
865,3.989,IMU1,-0.48780487804878053,57.31707317073171,0.30487804878048785,-0.0205078125,0.1005859375,0.0849609375
866,3.999,IMU0,12.74390243902439,54.207317073170735,-7.682926829268293,-0.03515625,0.1494140625,-0.0087890625
867,3.999,IMU1,-0.5487804878048781,57.19512195121952,0.24390243902439027,-0.0166015625,0.099609375,0.0830078125
868,4.009,IMU0,12.80487804878049,53.963414634146346,-7.317073170731708,-0.021484375,0.15234375,-0.013671875
869,4.009,IMU1,-0.7926829268292683,56.951219512195124,0.1829268292682927,-0.013671875,0.0986328125,0.08203125
870,4.019,IMU0,12.80487804878049,53.65853658536586,-7.560975609756098,-0.017578125,0.138671875,-0.01953125
871,4.019,IMU1,-0.6707317073170732,56.89024390243903,0.12195121951219513,-0.0087890625,0.0986328125,0.0810546875
872,4.029,IMU0,12.682926829268293,53.41463414634147,-7.378048780487806,-0.021484375,0.1240234375,-0.0478515625
873,4.029,IMU1,-0.7317073170731708,56.707317073170735,0.06097560975609757,-0.009765625,0.09765625,0.0771484375
874,4.039,IMU0,12.865853658536587,53.41463414634147,-7.439024390243903,-0.0224609375,0.11328125,-0.0390625
875,4.039,IMU1,-0.9146341463414634,56.524390243902445,-0.06097560975609757,-0.01171875,0.09765625,0.080078125
876,4.049,IMU0,12.682926829268293,53.23170731707317,-7.682926829268293,-0.0185546875,0.1201171875,-0.0380859375
877,4.049,IMU1,-0.7926829268292683,56.40243902439025,-0.1829268292682927,-0.01171875,0.0966796875,0.078125
878,4.059,IMU0,12.500000000000002,53.53658536585366,-8.048780487804878,-0.0322265625,0.1162109375,-0.0322265625
879,4.059,IMU1,-0.9146341463414634,56.28048780487806,-0.24390243902439027,-0.009765625,0.095703125,0.08203125
880,4.069,IMU0,12.621951219512196,53.47560975609757,-7.865853658536586,-0.01171875,0.1259765625,-0.0283203125
881,4.069,IMU1,-0.7926829268292683,56.15853658536586,-0.30487804878048785,-0.0087890625,0.0966796875,0.080078125
882,4.079,IMU0,12.378048780487806,52.987804878048784,-7.987804878048781,-0.021484375,0.099609375,-0.009765625
883,4.079,IMU1,-1.0975609756097562,55.97560975609757,-0.426829268292683,-0.0107421875,0.0966796875,0.0791015625
884,4.089,IMU0,12.439024390243903,52.987804878048784,-8.048780487804878,-0.00390625,0.095703125,0.0009765625
885,4.089,IMU1,-1.1585365853658538,55.85365853658537,-0.48780487804878053,-0.0068359375,0.095703125,0.083984375
886,4.099,IMU0,12.500000000000002,52.43902439024391,-7.926829268292684,-0.0224609375,0.087890625,-0.0126953125
887,4.099,IMU1,-1.2195121951219514,55.67073170731708,-0.6097560975609757,-0.0087890625,0.0947265625,0.0810546875
888,4.109,IMU0,12.134146341463415,52.01219512195122,-7.926829268292684,-0.015625,0.09375,0.0048828125
889,4.109,IMU1,-1.2804878048780488,55.487804878048784,-0.7317073170731708,-0.005859375,0.0947265625,0.0908203125
890,4.119,IMU0,12.80487804878049,52.13414634146342,-8.048780487804878,-0.0244140625,0.09375,-0.005859375
891,4.119,IMU1,-1.2195121951219514,55.426829268292686,-0.7926829268292683,-0.0068359375,0.0947265625,0.0908203125
892,4.129,IMU0,12.560975609756099,52.07317073170732,-8.231707317073171,-0.02734375,0.0966796875,-0.01171875
893,4.129,IMU1,-1.1585365853658538,55.1829268292683,-0.9756097560975611,-0.005859375,0.09375,0.087890625
894,4.139,IMU0,12.317073170731708,52.07317073170732,-8.597560975609756,-0.0322265625,0.0947265625,-0.00390625
895,4.139,IMU1,-1.1585365853658538,55.1219512195122,-1.0365853658536586,-0.001953125,0.0927734375,0.091796875
896,4.149,IMU0,12.439024390243903,51.89024390243903,-8.841463414634147,-0.025390625,0.083984375,-0.017578125
897,4.149,IMU1,-1.0365853658536586,55.00000000000001,-1.1585365853658538,-0.005859375,0.09375,0.0869140625
898,4.159,IMU0,12.560975609756099,51.89024390243903,-9.085365853658537,-0.0322265625,0.1103515625,-0.02734375
899,4.159,IMU1,-1.0365853658536586,54.81707317073171,-1.3414634146341464,-0.00390625,0.0927734375,0.091796875
900,4.169,IMU0,12.317073170731708,51.707317073170735,-8.902439024390244,-0.0322265625,0.103515625,-0.001953125
901,4.169,IMU1,-0.9756097560975611,54.69512195121952,-1.4634146341463417,-0.00390625,0.091796875,0.0869140625
902,4.179,IMU0,12.317073170731708,51.585365853658544,-8.78048780487805,-0.0263671875,0.0859375,-0.0029296875
903,4.179,IMU1,-0.9146341463414634,54.39024390243903,-1.5853658536585367,-0.005859375,0.0908203125,0.0908203125
904,4.189,IMU0,12.682926829268293,51.463414634146346,-9.02439024390244,-0.017578125,0.0791015625,-0.01953125
905,4.189,IMU1,-0.853658536585366,54.32926829268293,-1.6463414634146343,-0.0029296875,0.0908203125,0.0888671875
906,4.199,IMU0,12.865853658536587,51.15853658536586,-9.26829268292683,-0.0283203125,0.0732421875,-0.0234375
907,4.199,IMU1,-1.0365853658536586,54.146341463414636,-1.7682926829268295,-0.0048828125,0.08984375,0.08984375
908,4.209,IMU0,13.109756097560977,50.85365853658537,-9.329268292682928,-0.0224609375,0.078125,-0.015625
909,4.209,IMU1,-0.9756097560975611,53.963414634146346,-1.8902439024390245,-0.00390625,0.08984375,0.0927734375
910,4.219,IMU0,13.109756097560977,50.670731707317074,-9.51219512195122,-0.0126953125,0.078125,-0.0341796875
911,4.219,IMU1,-0.9146341463414634,53.84146341463415,-2.0121951219512195,-0.0068359375,0.0888671875,0.0908203125
912,4.229,IMU0,12.621951219512196,50.60975609756098,-9.634146341463415,-0.0205078125,0.0888671875,-0.029296875
913,4.229,IMU1,-0.7926829268292683,53.65853658536586,-2.1341463414634148,-0.0087890625,0.08984375,0.09375
914,4.239,IMU0,12.621951219512196,50.36585365853659,-9.756097560975611,-0.0400390625,0.1044921875,-0.0166015625
915,4.239,IMU1,-0.853658536585366,53.41463414634147,-2.25609756097561,-0.0087890625,0.0888671875,0.09765625
916,4.249,IMU0,12.500000000000002,50.1829268292683,-9.817073170731708,-0.041015625,0.0947265625,-0.0068359375
917,4.249,IMU1,-0.7926829268292683,53.29268292682927,-2.25609756097561,-0.0126953125,0.087890625,0.09765625
918,4.259,IMU0,12.987804878048781,49.63414634146342,-10.0,-0.0537109375,0.0888671875,0.001953125
919,4.259,IMU1,-0.853658536585366,53.10975609756098,-2.3170731707317076,-0.0126953125,0.0859375,0.0966796875
920,4.269,IMU0,12.621951219512196,49.51219512195122,-10.0,-0.0263671875,0.11328125,0.013671875
921,4.269,IMU1,-0.9146341463414634,52.926829268292686,-2.3170731707317076,-0.0146484375,0.087890625,0.099609375
922,4.279,IMU0,12.74390243902439,49.39024390243903,-9.939024390243903,-0.0234375,0.1025390625,0.01171875
923,4.279,IMU1,-0.853658536585366,52.6829268292683,-2.3170731707317076,-0.015625,0.0869140625,0.09765625
924,4.289,IMU0,12.500000000000002,49.39024390243903,-9.878048780487806,-0.013671875,0.10546875,-0.00390625
925,4.289,IMU1,-0.7317073170731708,52.50000000000001,-2.378048780487805,-0.013671875,0.0869140625,0.099609375
926,4.299,IMU0,12.621951219512196,49.146341463414636,-9.695121951219512,-0.025390625,0.0927734375,-0.0048828125
927,4.299,IMU1,-0.5487804878048781,52.31707317073171,-2.378048780487805,-0.0146484375,0.0859375,0.0986328125
928,4.309,IMU0,13.04878048780488,48.78048780487805,-9.695121951219512,-0.0361328125,0.103515625,0.0009765625
929,4.309,IMU1,-0.6707317073170732,52.07317073170732,-2.378048780487805,-0.015625,0.0849609375,0.0986328125
930,4.319,IMU0,13.170731707317074,48.71951219512196,-9.817073170731708,-0.017578125,0.103515625,-0.001953125
931,4.319,IMU1,-0.5487804878048781,51.951219512195124,-2.439024390243903,-0.017578125,0.0849609375,0.099609375
932,4.329,IMU0,12.74390243902439,48.71951219512196,-9.695121951219512,-0.033203125,0.107421875,-0.0146484375
933,4.329,IMU1,-0.426829268292683,51.646341463414636,-2.439024390243903,-0.0166015625,0.083984375,0.0966796875
934,4.339,IMU0,13.04878048780488,48.53658536585366,-9.756097560975611,-0.0224609375,0.09765625,-0.00390625
935,4.339,IMU1,-0.30487804878048785,51.585365853658544,-2.439024390243903,-0.013671875,0.0830078125,0.103515625
936,4.349,IMU0,13.231707317073171,48.23170731707317,-9.878048780487806,-0.0283203125,0.0966796875,-0.013671875
937,4.349,IMU1,-0.30487804878048785,51.34146341463415,-2.5,-0.017578125,0.08203125,0.1015625
938,4.359,IMU0,12.926829268292684,47.987804878048784,-9.756097560975611,-0.0302734375,0.1103515625,-0.021484375
939,4.359,IMU1,-0.30487804878048785,51.09756097560976,-2.5,-0.017578125,0.0830078125,0.0986328125
940,4.369,IMU0,13.29268292682927,47.743902439024396,-9.817073170731708,-0.0390625,0.0927734375,-0.01953125
941,4.369,IMU1,-0.12195121951219513,50.85365853658537,-2.5609756097560976,-0.0146484375,0.0830078125,0.0986328125
942,4.379,IMU0,13.597560975609758,47.6219512195122,-9.695121951219512,-0.029296875,0.0888671875,-0.001953125
943,4.379,IMU1,-0.12195121951219513,50.60975609756098,-2.5609756097560976,-0.017578125,0.0830078125,0.1015625
944,4.389,IMU0,13.902439024390246,47.6219512195122,-10.0,-0.025390625,0.0791015625,-0.0009765625
945,4.389,IMU1,-0.12195121951219513,50.36585365853659,-2.5609756097560976,-0.0185546875,0.08203125,0.0986328125
946,4.399,IMU0,13.963414634146343,47.37804878048781,-9.878048780487806,-0.0322265625,0.09765625,-0.005859375
947,4.399,IMU1,0.0,50.1219512195122,-2.5,-0.0185546875,0.08203125,0.09765625
948,4.409,IMU0,14.207317073170733,47.31707317073171,-9.878048780487806,-0.0146484375,0.0966796875,-0.0166015625
949,4.409,IMU1,0.1829268292682927,49.93902439024391,-2.5609756097560976,-0.015625,0.08203125,0.099609375
950,4.419,IMU0,14.451219512195124,46.89024390243903,-10.0,-0.0068359375,0.08984375,-0.0224609375
951,4.419,IMU1,0.24390243902439027,49.63414634146342,-2.5609756097560976,-0.013671875,0.0810546875,0.0947265625
952,4.429,IMU0,13.719512195121952,46.951219512195124,-9.634146341463415,-0.02734375,0.0849609375,-0.0107421875
953,4.429,IMU1,0.426829268292683,49.451219512195124,-2.6219512195121952,-0.017578125,0.0810546875,0.095703125
954,4.439,IMU0,13.719512195121952,46.82926829268293,-9.756097560975611,-0.048828125,0.0830078125,0.005859375
955,4.439,IMU1,0.30487804878048785,49.207317073170735,-2.6219512195121952,-0.01953125,0.080078125,0.095703125
956,4.449,IMU0,13.658536585365855,46.34146341463415,-9.817073170731708,-0.0771484375,0.08984375,-0.0263671875
957,4.449,IMU1,0.30487804878048785,49.085365853658544,-2.6219512195121952,-0.0205078125,0.0810546875,0.091796875
958,4.459,IMU0,13.841463414634148,46.34146341463415,-9.756097560975611,-0.0546875,0.0869140625,-0.013671875
959,4.459,IMU1,0.24390243902439027,48.84146341463415,-2.6219512195121952,-0.0205078125,0.0791015625,0.091796875
960,4.469,IMU0,13.658536585365855,46.03658536585366,-9.878048780487806,-0.0595703125,0.1015625,-0.0078125
961,4.469,IMU1,0.3658536585365854,48.65853658536586,-2.5609756097560976,-0.0205078125,0.0791015625,0.091796875
962,4.479,IMU0,13.658536585365855,46.03658536585366,-9.878048780487806,-0.0595703125,0.1015625,-0.0078125
963,4.479,IMU1,0.3658536585365854,48.47560975609756,-2.6219512195121952,-0.021484375,0.078125,0.09375
964,4.489,IMU0,13.963414634146343,46.09756097560976,-9.939024390243903,-0.0517578125,0.0908203125,-0.021484375
965,4.489,IMU1,0.5487804878048781,48.35365853658537,-2.5609756097560976,-0.0205078125,0.078125,0.0908203125
966,4.499,IMU0,14.085365853658537,45.670731707317074,-10.060975609756099,-0.0302734375,0.09375,-0.0234375
967,4.499,IMU1,0.48780487804878053,48.170731707317074,-2.5609756097560976,-0.01953125,0.076171875,0.0888671875
968,4.509,IMU0,13.963414634146343,45.36585365853659,-9.939024390243903,-0.015625,0.099609375,-0.0224609375
969,4.509,IMU1,0.48780487804878053,47.987804878048784,-2.6219512195121952,-0.015625,0.076171875,0.0908203125
970,4.519,IMU0,14.146341463414636,45.0609756097561,-10.121951219512196,-0.0439453125,0.0771484375,-0.041015625
971,4.519,IMU1,0.426829268292683,47.86585365853659,-2.6219512195121952,-0.0166015625,0.0751953125,0.0869140625
972,4.529,IMU0,13.353658536585368,45.00000000000001,-9.756097560975611,-0.03515625,0.0849609375,-0.037109375
973,4.529,IMU1,0.3658536585365854,47.6829268292683,-2.6219512195121952,-0.0166015625,0.076171875,0.091796875
974,4.539,IMU0,13.719512195121952,45.0609756097561,-9.939024390243903,-0.0361328125,0.0869140625,-0.0390625
975,4.539,IMU1,0.3658536585365854,47.50000000000001,-2.6219512195121952,-0.0185546875,0.0751953125,0.087890625
976,4.549,IMU0,13.963414634146343,44.75609756097561,-9.878048780487806,-0.04296875,0.0947265625,-0.0263671875
977,4.549,IMU1,0.426829268292683,47.31707317073171,-2.6219512195121952,-0.01953125,0.0751953125,0.087890625
978,4.559,IMU0,13.902439024390246,44.63414634146342,-9.756097560975611,-0.0400390625,0.103515625,-0.0224609375
979,4.559,IMU1,0.426829268292683,47.19512195121952,-2.6219512195121952,-0.0185546875,0.0751953125,0.087890625
980,4.569,IMU0,13.841463414634148,44.51219512195122,-9.817073170731708,-0.037109375,0.087890625,-0.033203125
981,4.569,IMU1,0.426829268292683,47.07317073170732,-2.6219512195121952,-0.01953125,0.07421875,0.0849609375
982,4.579,IMU0,14.02439024390244,44.268292682926834,-10.060975609756099,-0.033203125,0.087890625,-0.0341796875
983,4.579,IMU1,0.3658536585365854,46.89024390243903,-2.5609756097560976,-0.015625,0.07421875,0.0859375
984,4.589,IMU0,14.207317073170733,43.90243902439025,-9.939024390243903,-0.0322265625,0.0791015625,-0.0390625
985,4.589,IMU1,0.3658536585365854,46.707317073170735,-2.5609756097560976,-0.01953125,0.07421875,0.0849609375
986,4.599,IMU0,14.207317073170733,43.65853658536586,-9.756097560975611,-0.033203125,0.064453125,-0.033203125
987,4.599,IMU1,0.30487804878048785,46.58536585365854,-2.6219512195121952,-0.0185546875,0.07421875,0.0830078125
988,4.609,IMU0,13.841463414634148,43.65853658536586,-9.573170731707318,-0.048828125,0.0732421875,-0.0244140625
989,4.609,IMU1,0.30487804878048785,46.524390243902445,-2.6219512195121952,-0.017578125,0.0732421875,0.0830078125
990,4.619,IMU0,14.207317073170733,43.53658536585366,-9.817073170731708,-0.046875,0.0693359375,-0.02734375
991,4.619,IMU1,0.24390243902439027,46.34146341463415,-2.6219512195121952,-0.01953125,0.0732421875,0.0849609375
992,4.629,IMU0,13.78048780487805,43.35365853658537,-9.695121951219512,-0.0458984375,0.0673828125,-0.0341796875
993,4.629,IMU1,0.06097560975609757,46.21951219512196,-2.6219512195121952,-0.0166015625,0.072265625,0.0859375
994,4.639,IMU0,13.78048780487805,43.10975609756098,-10.0,-0.0478515625,0.0859375,-0.0498046875
995,4.639,IMU1,0.12195121951219513,46.15853658536586,-2.6219512195121952,-0.01953125,0.0712890625,0.087890625
996,4.649,IMU0,13.536585365853659,43.35365853658537,-10.0,-0.037109375,0.0869140625,-0.029296875
997,4.649,IMU1,0.12195121951219513,46.03658536585366,-2.6219512195121952,-0.0185546875,0.0703125,0.087890625
998,4.659,IMU0,13.536585365853659,43.04878048780488,-10.121951219512196,-0.037109375,0.080078125,-0.013671875
999,4.659,IMU1,-0.06097560975609757,45.85365853658537,-2.5609756097560976,-0.0166015625,0.0712890625,0.087890625
1000,4.669,IMU0,13.536585365853659,42.804878048780495,-10.182926829268293,-0.0244140625,0.0693359375,-0.01953125
1001,4.669,IMU1,0.12195121951219513,45.73170731707317,-2.6219512195121952,-0.01953125,0.0712890625,0.0869140625
1002,4.679,IMU0,13.597560975609758,42.804878048780495,-10.0,-0.033203125,0.0791015625,-0.021484375
1003,4.679,IMU1,0.06097560975609757,45.54878048780488,-2.682926829268293,-0.0166015625,0.0703125,0.091796875
1004,4.689,IMU0,13.109756097560977,42.743902439024396,-9.878048780487806,-0.017578125,0.0703125,-0.017578125
1005,4.689,IMU1,0.1829268292682927,45.487804878048784,-2.7439024390243905,-0.017578125,0.0703125,0.0859375
1006,4.699,IMU0,13.109756097560977,42.43902439024391,-9.817073170731708,-0.0302734375,0.072265625,-0.0234375
1007,4.699,IMU1,0.06097560975609757,45.243902439024396,-2.682926829268293,-0.0205078125,0.0703125,0.087890625
1008,4.709,IMU0,13.536585365853659,42.13414634146342,-9.878048780487806,-0.044921875,0.0703125,-0.00390625
1009,4.709,IMU1,0.06097560975609757,45.1219512195122,-2.7439024390243905,-0.017578125,0.0693359375,0.0869140625
1010,4.719,IMU0,13.719512195121952,42.07317073170732,-9.817073170731708,-0.0390625,0.083984375,-0.015625
1011,4.719,IMU1,0.06097560975609757,44.93902439024391,-2.682926829268293,-0.0185546875,0.068359375,0.083984375
1012,4.729,IMU0,13.536585365853659,42.25609756097561,-9.939024390243903,-0.037109375,0.0625,-0.017578125
1013,4.729,IMU1,0.06097560975609757,44.75609756097561,-2.7439024390243905,-0.017578125,0.0693359375,0.0888671875
1014,4.739,IMU0,13.597560975609758,42.19512195121951,-9.817073170731708,-0.046875,0.06640625,-0.021484375
1015,4.739,IMU1,0.0,44.63414634146342,-2.804878048780488,-0.0166015625,0.068359375,0.0888671875
1016,4.749,IMU0,13.658536585365855,41.82926829268293,-10.182926829268293,-0.04296875,0.064453125,-0.021484375
1017,4.749,IMU1,-0.12195121951219513,44.51219512195122,-2.804878048780488,-0.0166015625,0.0673828125,0.0908203125
1018,4.759,IMU0,13.597560975609758,41.82926829268293,-10.0,-0.0419921875,0.064453125,-0.0302734375
1019,4.759,IMU1,0.06097560975609757,44.451219512195124,-2.804878048780488,-0.015625,0.068359375,0.087890625
1020,4.769,IMU0,13.170731707317074,41.768292682926834,-9.695121951219512,-0.0205078125,0.0771484375,-0.033203125
1021,4.769,IMU1,-0.06097560975609757,44.268292682926834,-2.804878048780488,-0.0166015625,0.06640625,0.0830078125
1022,4.779,IMU0,13.231707317073171,41.40243902439025,-9.756097560975611,-0.0244140625,0.076171875,-0.01953125
1023,4.779,IMU1,-0.24390243902439027,44.08536585365854,-2.8658536585365857,-0.0166015625,0.0673828125,0.0849609375
1024,4.789,IMU0,12.987804878048781,41.58536585365854,-9.756097560975611,-0.0146484375,0.0703125,-0.0244140625
1025,4.789,IMU1,-0.1829268292682927,44.08536585365854,-2.8658536585365857,-0.017578125,0.0673828125,0.0810546875
1026,4.799,IMU0,12.500000000000002,41.524390243902445,-9.939024390243903,-0.017578125,0.0693359375,-0.005859375
1027,4.799,IMU1,-0.06097560975609757,44.024390243902445,-2.8658536585365857,-0.0185546875,0.06640625,0.0849609375
1028,4.809,IMU0,12.80487804878049,40.97560975609756,-10.0,-0.03515625,0.0654296875,-0.01171875
1029,4.809,IMU1,-0.06097560975609757,43.90243902439025,-2.9268292682926833,-0.0205078125,0.0654296875,0.0830078125
1030,4.819,IMU0,13.109756097560977,41.03658536585366,-10.0,-0.041015625,0.05859375,-0.013671875
1031,4.819,IMU1,-0.12195121951219513,43.71951219512196,-2.9268292682926833,-0.021484375,0.064453125,0.0849609375
1032,4.829,IMU0,13.170731707317074,40.97560975609756,-9.878048780487806,-0.0390625,0.0595703125,-0.0078125
1033,4.829,IMU1,-0.12195121951219513,43.59756097560976,-2.8658536585365857,-0.01953125,0.0634765625,0.0869140625
1034,4.839,IMU0,13.231707317073171,40.79268292682927,-10.121951219512196,-0.048828125,0.0791015625,-0.0224609375
1035,4.839,IMU1,-0.1829268292682927,43.41463414634147,-2.8658536585365857,-0.0185546875,0.064453125,0.0849609375
1036,4.849,IMU0,12.865853658536587,40.73170731707317,-9.878048780487806,-0.0361328125,0.0888671875,-0.001953125
1037,4.849,IMU1,-0.24390243902439027,43.23170731707317,-2.804878048780488,-0.01953125,0.0634765625,0.0888671875
1038,4.859,IMU0,13.29268292682927,40.426829268292686,-10.182926829268293,-0.041015625,0.0927734375,-0.00390625
1039,4.859,IMU1,-0.1829268292682927,43.170731707317074,-2.804878048780488,-0.01953125,0.0634765625,0.087890625
1040,4.869,IMU0,13.475609756097562,40.60975609756098,-10.182926829268293,-0.0537109375,0.080078125,-0.0205078125
1041,4.869,IMU1,-0.3658536585365854,42.926829268292686,-2.804878048780488,-0.01953125,0.0634765625,0.0869140625
1042,4.879,IMU0,13.04878048780488,40.243902439024396,-10.24390243902439,-0.0537109375,0.07421875,-0.01171875
1043,4.879,IMU1,-0.1829268292682927,42.804878048780495,-2.804878048780488,-0.0185546875,0.0625,0.0859375
1044,4.889,IMU0,13.536585365853659,40.0,-10.182926829268293,-0.044921875,0.072265625,0.0126953125
1045,4.889,IMU1,-0.24390243902439027,42.6219512195122,-2.8658536585365857,-0.01953125,0.0615234375,0.0869140625
1046,4.899,IMU0,13.658536585365855,39.87804878048781,-10.060975609756099,-0.046875,0.0751953125,0.0087890625
1047,4.899,IMU1,-0.30487804878048785,42.50000000000001,-2.804878048780488,-0.0205078125,0.0615234375,0.087890625
1048,4.909,IMU0,13.109756097560977,40.0609756097561,-9.878048780487806,-0.041015625,0.06640625,-0.0029296875
1049,4.909,IMU1,-0.48780487804878053,42.31707317073171,-2.7439024390243905,-0.0185546875,0.0615234375,0.0888671875
1050,4.919,IMU0,13.231707317073171,39.63414634146342,-9.817073170731708,-0.0400390625,0.0771484375,0.001953125
1051,4.919,IMU1,-0.426829268292683,42.19512195121951,-2.682926829268293,-0.0185546875,0.0615234375,0.091796875
1052,4.929,IMU0,13.353658536585368,39.207317073170735,-9.817073170731708,-0.046875,0.0859375,0.00390625
1053,4.929,IMU1,-0.3658536585365854,42.01219512195122,-2.682926829268293,-0.0166015625,0.0625,0.08984375
1054,4.939,IMU0,13.109756097560977,39.08536585365854,-10.0,-0.0263671875,0.0615234375,-0.0087890625
1055,4.939,IMU1,-0.24390243902439027,41.82926829268293,-2.682926829268293,-0.013671875,0.0615234375,0.0908203125
1056,4.949,IMU0,12.500000000000002,39.207317073170735,-9.451219512195122,-0.0205078125,0.0556640625,-0.015625
1057,4.949,IMU1,-0.1829268292682927,41.707317073170735,-2.682926829268293,-0.0146484375,0.060546875,0.08984375
1058,4.959,IMU0,12.987804878048781,38.90243902439025,-9.573170731707318,-0.041015625,0.0595703125,0.0
1059,4.959,IMU1,-0.48780487804878053,41.524390243902445,-2.7439024390243905,-0.009765625,0.060546875,0.091796875
1060,4.969,IMU0,12.926829268292684,38.90243902439025,-9.51219512195122,-0.0380859375,0.06640625,0.0078125
1061,4.969,IMU1,-0.3658536585365854,41.40243902439025,-2.8658536585365857,-0.0107421875,0.05859375,0.0947265625
1062,4.979,IMU0,12.80487804878049,38.59756097560976,-9.695121951219512,-0.0302734375,0.0673828125,0.0078125
1063,4.979,IMU1,-0.3658536585365854,41.21951219512196,-2.8658536585365857,-0.0126953125,0.05859375,0.0908203125
1064,4.989,IMU0,12.865853658536587,38.65853658536586,-9.878048780487806,-0.021484375,0.0634765625,-0.0087890625
1065,4.989,IMU1,-0.24390243902439027,41.09756097560976,-2.9268292682926833,-0.0126953125,0.05859375,0.0927734375
1066,4.999,IMU0,12.80487804878049,38.35365853658537,-10.121951219512196,-0.0380859375,0.064453125,-0.0234375
1067,4.999,IMU1,-0.24390243902439027,40.97560975609756,-2.8658536585365857,-0.0126953125,0.0576171875,0.0888671875
1068,5.009,IMU0,12.865853658536587,38.29268292682927,-10.121951219512196,-0.033203125,0.064453125,-0.009765625
1069,5.009,IMU1,-0.3658536585365854,40.73170731707317,-2.9268292682926833,-0.009765625,0.0576171875,0.08984375
1070,5.019,IMU0,12.987804878048781,38.10975609756098,-10.182926829268293,-0.033203125,0.0654296875,0.0009765625
1071,5.019,IMU1,-0.30487804878048785,40.670731707317074,-2.987804878048781,-0.0087890625,0.0576171875,0.0927734375
1072,5.029,IMU0,13.353658536585368,38.10975609756098,-10.365853658536587,-0.0205078125,0.080078125,-0.0078125
1073,5.029,IMU1,-0.24390243902439027,40.487804878048784,-3.048780487804878,-0.0068359375,0.056640625,0.0927734375
1074,5.039,IMU0,13.536585365853659,37.743902439024396,-10.548780487804878,-0.0185546875,0.0849609375,-0.017578125
1075,5.039,IMU1,-0.30487804878048785,40.36585365853659,-3.1097560975609757,-0.0078125,0.056640625,0.095703125
1076,5.049,IMU0,12.987804878048781,37.80487804878049,-10.24390243902439,-0.021484375,0.078125,-0.0048828125
1077,5.049,IMU1,-0.24390243902439027,40.243902439024396,-3.1707317073170733,-0.0078125,0.0556640625,0.095703125
1078,5.059,IMU0,13.109756097560977,37.5609756097561,-10.365853658536587,-0.0029296875,0.0693359375,-0.0224609375
1079,5.059,IMU1,-0.1829268292682927,40.1219512195122,-3.231707317073171,-0.0078125,0.0556640625,0.099609375
1080,5.069,IMU0,13.475609756097562,37.13414634146342,-10.792682926829269,-0.0166015625,0.06640625,-0.00390625
1081,5.069,IMU1,-0.12195121951219513,39.93902439024391,-3.2926829268292686,-0.0078125,0.0546875,0.09765625
1082,5.079,IMU0,13.414634146341465,36.58536585365854,-10.670731707317074,-0.029296875,0.0576171875,-0.005859375
1083,5.079,IMU1,-0.12195121951219513,39.75609756097561,-3.2926829268292686,-0.009765625,0.0556640625,0.0966796875
1084,5.089,IMU0,13.475609756097562,36.82926829268293,-10.670731707317074,-0.013671875,0.0517578125,-0.025390625
1085,5.089,IMU1,-0.06097560975609757,39.63414634146342,-3.353658536585366,-0.009765625,0.0546875,0.0966796875
1086,5.099,IMU0,13.414634146341465,36.524390243902445,-10.670731707317074,-0.017578125,0.0556640625,-0.005859375
1087,5.099,IMU1,-0.12195121951219513,39.451219512195124,-3.414634146341464,-0.0078125,0.0546875,0.0966796875
1088,5.109,IMU0,13.414634146341465,36.463414634146346,-10.670731707317074,-0.029296875,0.0595703125,-0.017578125
1089,5.109,IMU1,0.06097560975609757,39.390243902439025,-3.4756097560975614,-0.0107421875,0.0546875,0.0966796875
1090,5.119,IMU0,13.475609756097562,36.646341463414636,-10.731707317073171,-0.041015625,0.052734375,-0.0029296875
1091,5.119,IMU1,-0.12195121951219513,39.08536585365854,-3.536585365853659,-0.0078125,0.0546875,0.0966796875
1092,5.129,IMU0,12.926829268292684,36.34146341463415,-10.548780487804878,-0.0380859375,0.0615234375,0.009765625
1093,5.129,IMU1,-0.12195121951219513,38.963414634146346,-3.536585365853659,-0.0068359375,0.0537109375,0.1025390625
1094,5.139,IMU0,13.04878048780488,35.91463414634147,-10.426829268292684,-0.0390625,0.0712890625,-0.001953125
1095,5.139,IMU1,-0.12195121951219513,38.84146341463415,-3.5975609756097566,-0.0087890625,0.0537109375,0.099609375
1096,5.149,IMU0,13.170731707317074,35.79268292682927,-10.609756097560977,-0.0380859375,0.0712890625,0.0107421875
1097,5.149,IMU1,-0.06097560975609757,38.71951219512196,-3.5975609756097566,-0.0087890625,0.0537109375,0.103515625
1098,5.159,IMU0,12.865853658536587,35.73170731707317,-10.548780487804878,-0.0283203125,0.06640625,0.001953125
1099,5.159,IMU1,0.06097560975609757,38.59756097560976,-3.658536585365854,-0.0087890625,0.0537109375,0.1025390625
1100,5.169,IMU0,13.29268292682927,35.85365853658537,-10.914634146341465,-0.05078125,0.07421875,0.001953125
1101,5.169,IMU1,0.0,38.35365853658537,-3.7195121951219514,-0.0087890625,0.052734375,0.1015625
1102,5.179,IMU0,13.414634146341465,36.15853658536586,-10.975609756097562,-0.0498046875,0.056640625,-0.0009765625
