,ts,acc_x,acc_y,acc_z
0,-0.331,1,-1,0
1,-0.321,1,-1,0
2,-0.311,1,-1,0
3,-0.301,1,-1,0
4,-0.291,1,-1,0
5,-0.281,1,-1,0
6,-0.271,1,-1,0
7,-0.261,1,-1,0
8,-0.251,1,-1,0
9,-0.241,1,-1,0
10,-0.231,1,-1,0
11,-0.221,1,0,0
12,-0.211,1,-1,0
13,-0.201,1,-1,0
14,-0.191,1,-1,0
15,-0.181,1,-1,0
16,-0.171,1,-1,0
17,-0.161,1,-1,0
18,-0.151,1,-1,0
19,-0.141,1,-1,0
20,-0.131,1,-1,0
21,-0.121,1,-1,0
22,-0.111,1,-1,0
23,-0.101,2,-1,0
24,-0.091,10,0,0
25,-0.081,17,0,0
26,-0.071,20,-2,0
27,-0.061,15,-1,0
28,-0.051,15,0,0
29,-0.041,14,-2,0
30,-0.031,14,-1,0
31,-0.021,12,-1,0
32,-0.011,11,-1,0
33,-0.001,13,-1,0
34,0.009,14,0,0
35,0.019,14,-1,0
36,0.029,14,-1,0
37,0.039,14,-1,0
38,0.049,14,-1,0
39,0.059,14,-1,0
40,0.069,14,0,0
41,0.079,14,-1,0
42,0.089,14,0,0
43,0.099,14,-1,0
44,0.109,13,-1,0
45,0.119,14,0,0
46,0.129,14,-1,0
47,0.139,13,-1,0
48,0.149,13,-1,0
49,0.159,13,-1,0
50,0.169,13,-1,0
51,0.179,13,-1,0
52,0.189,13,-1,0
53,0.199,13,-1,0
54,0.209,13,-1,0
55,0.219,13,-1,0
56,0.229,13,-1,0
57,0.239,13,-1,0
58,0.249,13,-1,0
59,0.259,13,-1,0
60,0.269,13,-1,0
61,0.279,13,-1,0
62,0.289,12,0,0
63,0.299,12,-1,0
64,0.309,12,-1,0
65,0.319,12,-1,0
66,0.329,12,-1,0
67,0.339,12,-1,0
68,0.349,12,-1,0
69,0.359,12,-1,0
70,0.369,12,-1,0
71,0.379,11,-1,0
72,0.389,11,-1,0
73,0.399,11,-1,0
74,0.409,11,-1,0
75,0.419,11,-1,0
76,0.429,11,-1,0
77,0.439,11,-1,0
78,0.449,11,-1,0
79,0.459,11,-1,0
80,0.469,11,-1,0
81,0.479,10,-1,0
82,0.489,11,-1,0
83,0.499,11,-1,0
84,0.509,10,-1,0
85,0.519,10,-1,0
86,0.529,10,-1,0
87,0.539,10,-1,0
88,0.549,10,-1,0
89,0.559,9,-1,0
90,0.569,9,-1,0
91,0.579,9,-1,0
92,0.589,9,-1,0
93,0.599,9,-1,0
94,0.609,9,-1,0
95,0.619,9,-1,0
96,0.629,9,-1,0
97,0.639,9,-1,0
98,0.649,9,-1,0
99,0.659,9,-1,0
100,0.669,8,-1,0
101,0.679,8,-1,0
102,0.689,8,-1,0
103,0.699,8,-1,0
104,0.709,8,-1,0
105,0.719,8,-1,0
106,0.729,8,-1,0
107,0.739,8,-1,0
108,0.749,8,-1,0
109,0.759,7,-1,0
110,0.769,7,-1,0
111,0.779,7,-1,0
112,0.789,7,-1,0
113,0.799,7,-1,0
114,0.809,7,-1,0
115,0.819,7,-1,0
116,0.829,6,-1,0
117,0.839,8,-1,0
118,0.849,8,-1,0
119,0.859,8,-1,0
120,0.869,8,-1,0
121,0.879,7,-1,0
122,0.889,7,-1,0
123,0.899,8,-1,0
124,0.909,7,-1,0
125,0.919,7,-1,0
126,0.929,7,-1,0
127,0.939,7,-1,0
128,0.949,7,-1,0
129,0.959,7,-1,0
130,0.969,7,-1,0
131,0.979,7,-1,0
132,0.989,6,-1,0
133,0.999,6,-1,0
134,1.009,6,-1,0
135,1.019,5,-1,0
136,1.029,5,-1,0
137,1.039,4,-1,0
138,1.049,4,-1,0
139,1.059,3,-1,0
140,1.069,3,-1,0
141,1.079,2,-1,0
142,1.089,2,-1,0
143,1.099,1,-1,0
144,1.109,1,-1,0
145,1.119,0,-1,0
146,1.129,0,-1,0
147,1.139,-1,-1,0
148,1.149,-1,-1,0
149,1.159,-1,-1,0
150,1.169,-1,0,0
151,1.179,-1,-1,0
152,1.189,-1,-1,0
153,1.199,-1,-1,0
154,1.209,-1,-1,0
155,1.219,-1,0,0
156,1.229,-1,-1,0
157,1.239,-1,-1,0
158,1.249,-1,0,0
159,1.259,-1,0,0
160,1.269,-1,-1,0
161,1.279,-1,-1,0
162,1.289,-1,-1,0
163,1.299,-1,-1,0
164,1.309,-1,-1,0
165,1.319,-1,0,0
166,1.329,-1,0,0
167,1.339,-1,-1,0
168,1.349,-1,-1,0
169,1.359,-1,0,0
170,1.369,-1,-1,0
171,1.379,-1,-1,0
172,1.389,-1,-1,0
173,1.399,-1,-1,0
174,1.409,-1,-1,0
175,1.419,-1,-1,0
176,1.429,-1,-1,0
177,1.439,-1,-1,0
178,1.449,-1,-1,0
179,1.459,-1,-1,0
180,1.469,-1,-1,0
181,1.479,-1,-1,0
182,1.489,-1,-1,0
183,1.499,-1,-1,0
184,1.509,-1,-1,0
185,1.519,-1,-1,0
186,1.529,-1,-1,0
187,1.539,-1,-1,0
188,1.549,-1,-1,0
189,1.559,-1,-1,0
190,1.569,-1,-1,0
191,1.579,-1,-1,0
192,1.589,-1,-1,0
193,1.599,-1,-1,0
194,1.609,-1,-1,0
195,1.619,-1,-1,0
196,1.629,-1,-1,0
197,1.639,-1,-1,0
198,1.649,-1,-1,0
199,1.659,-1,-1,0
200,1.669,-1,-1,0
201,1.679,-1,-1,0
202,1.689,-1,-1,0
203,1.699,-1,-1,0
204,1.709,-1,0,0
205,1.719,-1,-1,0
206,1.729,-1,-1,0
207,1.739,-1,-1,0
208,1.749,-1,-1,0
209,1.759,-1,-1,0
210,1.769,-1,-1,0
211,1.779,-1,-1,0
212,1.789,-1,-1,0
213,1.799,-1,-1,0
214,1.809,-1,-1,0
215,1.819,-1,0,0
216,1.829,-1,0,0
217,1.839,-1,-1,0
218,1.849,-1,-1,0
219,1.859,-1,-1,0
220,1.869,-1,-1,0
221,1.879,-1,-1,0
222,1.889,-1,-1,0
223,1.899,-1,-1,0
224,1.909,-1,-1,0
225,1.919,-1,-1,0
226,1.929,-1,-1,0
227,1.939,-1,-1,0
228,1.949,-1,-1,0
229,1.959,-1,-1,0
230,1.969,-1,-1,0
231,1.979,0,-1,0
232,1.989,-1,-1,0
233,1.999,-1,-1,0
234,2.009,-1,-1,0
235,2.019,-1,-1,0
236,2.029,-1,0,0
237,2.039,0,-1,0
238,2.049,-1,-1,0
239,2.059,-1,-1,0
240,2.069,-1,-1,0
241,2.079,-1,-1,0
242,2.089,-1,-1,0
243,2.099,-1,-1,0
244,2.109,0,-1,0
245,2.119,-1,-1,0
246,2.129,-1,-1,0
247,2.139,-1,-1,0
248,2.149,0,-1,0
249,2.159,-1,0,0
250,2.169,-1,-1,0
251,2.179,-1,-1,0
252,2.189,-1,-1,0
253,2.199,-1,-1,0
254,2.209,-1,-1,0
255,2.219,-1,-1,0
256,2.229,0,-1,0
257,2.239,-1,-1,0
258,2.249,-1,-1,0
259,2.259,-1,-1,0
260,2.269,-1,-1,0
261,2.279,-1,-1,0
262,2.289,-1,-1,0
263,2.299,-1,-1,0
264,2.309,-1,-1,0
265,2.319,-1,-1,0
266,2.329,0,-1,0
267,2.339,-1,-1,0
268,2.349,-1,-1,0
269,2.359,-1,-1,0
270,2.369,-1,-1,0
271,2.379,-1,-1,0
272,2.389,-1,-1,0
273,2.399,-1,-1,0
274,2.409,-1,-1,0
275,2.419,-1,0,0
276,2.429,-1,-1,0
277,2.439,-1,-1,0
278,2.449,-1,-1,0
279,2.459,-1,-1,0
280,2.469,0,-1,0
281,2.479,-1,-1,0
282,2.489,-1,-1,0
283,2.499,-1,-1,0
284,2.509,-1,-1,0
285,2.519,-1,-1,0
286,2.529,-1,-1,0
287,2.539,-1,-1,0
288,2.549,-1,-1,0
289,2.559,-1,-1,0
290,2.569,-1,-1,0
291,2.579,0,-1,0
292,2.589,0,-1,0
293,2.599,-1,-1,0
294,2.609,0,0,0
295,2.619,-1,-1,0
296,2.629,-1,0,0
297,2.639,-1,-1,0
298,2.649,-1,0,0
299,2.659,-1,-1,0
300,2.669,-1,-1,0
301,2.679,-1,-1,0
302,2.689,-1,-1,0
303,2.699,-1,-1,0
304,2.709,-1,-1,0
305,2.719,-1,-1,0
306,2.729,-1,-1,0
307,2.739,-1,-1,0
308,2.749,-1,0,0
309,2.759,-1,-1,0
310,2.769,0,-1,0
311,2.779,-1,-1,0
312,2.789,-1,-1,0
313,2.799,-1,-1,0
314,2.809,0,-1,0
315,2.819,-1,-1,0
316,2.829,0,-1,0
317,2.839,0,-1,0
318,2.849,-1,-1,0
319,2.859,-1,-1,0
320,2.869,-1,-1,0
321,2.879,-1,-1,0
322,2.889,-1,-1,0
323,2.899,-1,-1,0
324,2.909,-1,-1,0
325,2.919,-1,-1,0
326,2.929,-1,-1,0
327,2.939,-1,-1,0
328,2.949,-1,-1,0
329,2.959,-1,0,0
330,2.969,-1,-1,0
331,2.979,-1,-1,0
332,2.989,-1,-1,0
333,2.999,-1,-1,0
334,3.009,-1,0,0
335,3.019,0,-1,0
336,3.029,-1,-1,0
337,3.039,0,-1,0
338,3.049,-1,-1,0
339,3.059,-1,-1,0
340,3.069,-1,-1,0
341,3.079,-1,-1,0
342,3.089,-1,-1,0
343,3.099,-1,0,0
344,3.109,-1,-1,0
345,3.119,-1,-1,0
346,3.129,-1,-1,0
347,3.139,-1,-1,0
348,3.149,0,-1,0
349,3.159,0,-1,0
350,3.169,-1,-1,0
351,3.179,0,-1,0
352,3.189,-1,-1,0
353,3.199,-1,-1,0
354,3.209,-1,-1,0
355,3.219,-1,-1,0
356,3.229,-1,-1,0
357,3.239,0,-1,0
358,3.249,-1,-1,0
359,3.259,-1,-1,0
360,3.269,0,-1,0
361,3.279,-1,-1,0
362,3.289,-1,-1,0
363,3.299,0,-1,0
364,3.309,0,-1,0
365,3.319,-1,-1,0
366,3.329,-1,-1,0
367,3.339,0,-1,0
368,3.349,-1,-1,0
369,3.359,-1,-1,0
370,3.369,0,-1,0
371,3.379,0,-1,0
372,3.389,0,-1,0
373,3.399,0,-1,0
374,3.409,-1,-1,0
375,3.419,-1,-1,0
376,3.429,0,-1,0
377,3.439,-1,-1,0
378,3.449,-1,-1,0
379,3.459,-1,-1,0
380,3.469,-1,-1,0
381,3.479,0,-1,0
382,3.489,-1,-1,0
383,3.499,-1,-1,0
384,3.509,0,-1,0
385,3.519,-1,-1,0
386,3.529,0,-1,0
387,3.539,0,-1,0
388,3.549,-1,-1,0
389,3.559,-1,-1,0
390,3.569,-1,-1,0
391,3.579,-1,-1,0
392,3.589,-1,-1,0
393,3.599,-1,-1,0
394,3.609,0,-1,0
395,3.619,-1,-1,0
396,3.629,-1,-1,0
397,3.639,-1,-1,0
398,3.649,-1,-1,0
399,3.659,-1,-1,0
400,3.669,0,-1,0
401,3.679,-1,-1,0
402,3.689,0,-1,0
403,3.699,-1,-1,0
404,3.709,-1,-1,0
405,3.719,-1,-1,0
406,3.729,-1,-1,0
407,3.739,-1,-1,0
408,3.749,-1,-1,0
409,3.759,-1,0,0
410,3.769,-1,-1,0
411,3.779,-1,-1,0
412,3.789,0,-1,0
413,3.799,-1,-1,0
414,3.809,0,-1,0
415,3.819,0,-1,0
416,3.829,-1,-1,0
417,3.839,0,-1,0
418,3.849,-1,-1,0
419,3.859,-1,-1,0
420,3.869,0,-1,0
421,3.879,-1,-1,0
422,3.889,-1,-1,0
423,3.899,-1,-1,0
424,3.909,0,-1,0
425,3.919,-1,-1,0
426,3.929,-1,-1,0
427,3.939,-1,-1,0
428,3.949,0,-1,0
429,3.959,-1,-1,0
430,3.969,0,-1,0
431,3.979,-1,-1,0
432,3.989,0,-1,0
433,3.999,-1,-1,0
434,4.009,0,-1,0
435,4.019,-1,-1,0
436,4.029,0,-1,0
437,4.039,-1,-1,0
438,4.049,-1,-1,0
439,4.059,0,-1,0
440,4.069,-1,-1,0
441,4.079,0,0,0
442,4.089,0,0,0
443,4.099,0,-1,0
444,4.109,0,-1,0
445,4.119,-1,-1,0
446,4.129,-1,-1,0
447,4.139,-1,-1,0
448,4.149,-1,-1,0
449,4.159,-1,-1,0
450,4.169,0,-1,0
451,4.179,0,-1,0
452,4.189,-1,-1,0
453,4.199,-1,-1,0
454,4.209,0,0,0
455,4.219,-1,-1,0
456,4.229,-1,-1,0
457,4.239,-1,-1,0
458,4.249,-1,-1,0
459,4.259,-1,-1,0
460,4.269,-1,-1,0
461,4.279,-1,-1,0
462,4.289,-1,-1,0
463,4.299,-1,-1,0
464,4.309,0,-1,0
465,4.319,0,-1,0
466,4.329,0,-1,0
467,4.339,-1,-1,0
468,4.349,-1,-1,0
469,4.359,0,-1,0
470,4.369,0,-1,0
471,4.379,-1,-1,0
472,4.389,-1,-1,0
473,4.399,-1,-1,0
474,4.409,-1,-1,0
475,4.419,0,-1,0
476,4.429,0,-1,0
477,4.439,-1,-1,0
478,4.449,-1,-1,0
479,4.459,-1,-1,0
480,4.469,0,-1,0
481,4.479,0,0,0
482,4.489,-1,-1,0
483,4.499,-1,-1,0
484,4.509,0,-1,0
485,4.519,0,-1,0
486,4.529,-1,-1,0
487,4.539,0,-1,0
488,4.549,0,-1,0
489,4.559,-1,-1,0
490,4.569,-1,-1,0
491,4.579,-1,-1,0
492,4.589,0,-1,0
493,4.599,0,-1,0
494,4.609,0,-1,0
495,4.619,0,-1,0
496,4.629,0,-1,0
497,4.639,-1,-1,0
498,4.649,0,-1,0
499,4.659,-1,-1,0
500,4.669,-1,-1,0
501,4.679,-1,-1,0
502,4.689,0,-1,0
503,4.699,0,-1,0
504,4.709,-1,-1,0
505,4.719,0,0,0
506,4.729,0,-1,0
507,4.739,-1,-1,0
508,4.749,0,-1,0
509,4.759,-1,-1,0
510,4.769,-1,-1,0
511,4.779,0,-1,0
512,4.789,0,-1,0
513,4.799,0,-1,0
514,4.809,-1,0,0
515,4.819,-1,-1,0
516,4.829,0,-1,0
517,4.839,0,-1,0
518,4.849,0,-1,0
519,4.859,-1,-1,0
520,4.869,-1,-1,0
521,4.879,0,-1,0
522,4.889,-1,-1,0
523,4.899,-1,-1,0
524,4.909,0,0,0
525,4.919,-1,-1,0
526,4.929,-1,-1,0
527,4.939,-1,-1,0
528,4.949,-1,-1,0
529,4.959,0,-1,0
530,4.969,0,-1,0
531,4.979,-1,-1,0
532,4.989,0,-1,0
533,4.999,0,0,0
534,5.009,0,-1,0
535,5.019,0,-1,0
536,5.029,0,-1,0
537,5.039,0,-1,0
538,5.049,-1,-1,0
539,5.059,-1,-1,0
540,5.069,0,0,0
541,5.079,0,-1,0
542,5.089,-1,0,0
543,5.099,-1,-1,0
544,5.109,0,-1,0
545,5.119,-1,-1,0
546,5.129,-1,-1,0
547,5.139,-1,-1,0
548,5.149,-1,-1,0
549,5.159,0,-1,0
550,5.169,0,-1,0
551,5.179,-1,-1,0
552,5.189,0,-1,0
553,5.199,-1,-1,0
554,5.209,0,-1,0
555,5.219,-1,-1,0
556,5.229,0,-1,0
557,5.239,0,-1,0
558,5.249,0,-1,0
559,5.259,-1,-1,0
560,5.269,0,-1,0
561,5.279,0,-1,0
562,5.289,-1,-1,0
563,5.299,0,-1,0
564,5.309,-1,-1,0
565,5.319,0,-1,0
566,5.329,-1,-1,0
567,5.339,0,-1,0
568,5.349,0,-1,0
569,5.359,0,-1,0
570,5.369,0,-1,0
571,5.379,0,-1,0
572,5.389,-1,-1,0
573,5.399,0,-1,0
574,5.409,0,-1,0
575,5.419,-1,-1,0
576,5.429,-1,-1,0
577,5.439,-1,0,0
578,5.449,0,-1,0
579,5.459,-1,-1,0
580,5.469,0,-1,0
581,5.479,0,-1,0
582,5.489,0,-1,0
583,5.499,0,-1,0
584,5.509,-1,-1,0
585,5.519,0,-1,0
586,5.529,-1,-1,0
587,5.539,0,-1,0
588,5.549,-1,-1,0
589,5.559,-1,0,0
590,5.569,-1,-1,0
591,5.579,-1,-1,0
592,5.589,-1,-1,0
593,5.599,-1,-1,0
594,5.609,-1,-1,0
595,5.619,0,-1,0
596,5.629,0,-1,0
597,5.639,0,-1,0
598,5.649,-1,-1,0
599,5.659,0,-1,0
600,5.669,0,0,0
601,5.679,-1,-1,0
602,5.689,-1,-1,0
603,5.699,-1,-1,0
604,5.709,-1,-1,0
605,5.719,0,-1,0
606,5.729,-1,-1,0
607,5.739,0,-1,0
608,5.749,0,-1,0
609,5.759,0,-1,0
610,5.769,0,-1,0
611,5.779,0,-1,0
612,5.789,0,-1,0
613,5.799,0,-1,0
614,5.809,-1,-1,0
615,5.819,-1,-1,0
616,5.829,-1,0,0
617,5.839,-1,-1,0
618,5.849,-1,-1,0
619,5.859,-1,-1,0
620,5.869,0,-1,0
621,5.879,0,-1,0
622,5.889,0,-1,0
623,5.899,0,-1,0
624,5.909,0,-1,0
625,5.919,-1,-1,0
626,5.929,0,-1,0
627,5.939,-1,-1,0
628,5.949,0,-1,0
629,5.959,0,-1,0
630,5.969,-1,-1,0
631,5.979,-1,-1,0
632,5.989,0,0,0
633,5.999,0,-1,0
634,6.009,0,-1,0
635,6.019,-1,-1,0
636,6.029,0,-1,0
637,6.039,0,-1,0
638,6.049,-1,-1,0
639,6.059,-1,-1,0
640,6.069,-1,-1,0
641,6.079,0,-1,0
642,6.089,-1,-1,0
643,6.099,0,-1,0
644,6.109,0,-1,0
645,6.119,-1,-1,0
646,6.129,0,-1,0
647,6.139,0,0,0
648,6.149,0,0,0
649,6.159,0,-1,0
650,6.169,-1,-1,0
651,6.179,-1,-1,0
652,6.189,0,-1,0
653,6.199,-1,-1,0
654,6.209,0,-1,0
655,6.219,0,-1,0
656,6.229,0,-1,0
657,6.239,0,-1,0
658,6.249,0,-1,0
659,6.259,0,-1,0
660,6.269,0,-1,0
661,6.279,0,-1,0
662,6.289,0,-1,0
663,6.299,-1,-1,0
664,6.309,-1,-1,0
665,6.319,0,-1,0
666,6.329,0,-1,0
667,6.339,0,-1,0
668,6.349,-1,-1,0
669,6.359,-1,-1,0
670,6.369,0,-1,0
671,6.379,-1,0,0
672,6.389,-1,-1,0
673,6.399,0,-1,0
674,6.409,0,-1,0
675,6.419,0,-1,0
676,6.429,0,-1,0
677,6.439,0,-1,0
678,6.449,-1,0,0
679,6.459,0,0,0
680,6.469,-1,-1,0
681,6.479,0,-1,0
682,6.489,-1,-1,0
683,6.499,0,-1,0
684,6.509,0,-1,0
685,6.519,0,-1,0
686,6.529,0,0,0
687,6.539,0,-1,0
688,6.549,-1,-1,0
689,6.559,0,-1,0
690,6.569,0,-1,0
691,6.579,-1,-1,0
692,6.589,0,-1,0
693,6.599,0,0,0
694,6.609,0,-1,0
695,6.619,0,-1,0
696,6.629,0,-1,0
697,6.639,-1,-1,0
698,6.649,-1,-1,0
699,6.659,-1,-1,0
700,6.669,0,-1,0
701,6.679,0,-1,0
702,6.689,-1,-1,0
703,6.699,0,-1,0
704,6.709,0,-1,0
705,6.719,0,-1,0
706,6.729,-1,-1,0
707,6.739,0,-1,0
708,6.749,0,-1,0
709,6.759,0,-1,0
710,6.769,0,-1,0
711,6.779,0,-1,0
712,6.789,-1,-1,0
713,6.799,0,-1,0
714,6.809,0,-1,0
715,6.819,-1,-1,0
716,6.829,-1,-1,0
717,6.839,0,-1,0
718,6.849,-1,-1,0
719,6.859,0,-1,0
720,6.869,-1,-1,0
721,6.879,0,-1,0
722,6.889,0,-1,0
723,6.899,0,0,0
724,6.909,0,0,0
725,6.919,0,-1,0
726,6.929,0,-1,0
727,6.939,0,-1,0
728,6.949,0,-1,0
729,6.959,0,-1,0
730,6.969,-1,0,0
731,6.979,0,0,0
732,6.989,-1,-1,0
733,6.999,-1,-1,0
734,7.009,-1,-1,0
735,7.019,0,-1,0
736,7.029,0,-1,0
737,7.039,0,-1,0
738,7.049,0,-1,0
739,7.059,-1,0,0
740,7.069,-1,-1,0
741,7.079,-1,-1,0
742,7.089,0,-1,0
743,7.099,-1,-1,0
744,7.109,0,-1,0
745,7.119,-1,-1,0
746,7.129,0,-1,0
747,7.139,-1,-1,0
748,7.149,0,-1,0
749,7.159,0,-1,0
750,7.169,-1,-1,0
751,7.179,-1,-1,0
752,7.189,0,-1,0
753,7.199,0,-1,0
754,7.209,0,-1,0
755,7.219,-1,-1,0
756,7.229,0,-1,0
757,7.239,-1,-1,0
758,7.249,0,-1,0
759,7.259,0,0,0
760,7.269,0,-1,0
761,7.279,-1,-1,0
762,7.289,0,-1,0
763,7.299,0,0,0
764,7.309,0,-1,0
765,7.319,-1,-1,0
766,7.329,0,-1,0
767,7.339,0,-1,0
768,7.349,0,-1,0
769,7.359,0,-1,0
770,7.369,0,-1,0
771,7.379,0,-1,0
772,7.389,0,-1,0
773,7.399,0,-1,0
774,7.409,-1,-1,0
775,7.419,0,-1,0
776,7.429,0,-1,0
777,7.439,0,-1,0
778,7.449,-1,0,0
779,7.459,0,0,0
780,7.469,0,-1,0
781,7.479,0,-1,0
782,7.489,-1,-1,0
783,7.499,0,-1,0
784,7.509,0,-1,0
785,7.519,0,-1,0
786,7.529,0,-1,0
787,7.539,-1,-1,0
788,7.549,-1,-1,0
789,7.559,0,-1,0
790,7.569,0,-1,0
791,7.579,0,-1,0
792,7.589,0,-1,0
793,7.599,0,-1,0
794,7.609,0,-1,0
795,7.619,-1,-1,0
796,7.629,0,-1,0
797,7.639,-1,-1,0
798,7.649,0,-1,0
799,7.659,-1,-1,0
800,7.669,0,-1,0
801,7.679,0,-1,0
802,7.689,0,-1,0
803,7.699,0,-1,0
804,7.709,-1,-1,0
805,7.719,0,-1,0
806,7.729,0,0,0
807,7.739,-1,-1,0
808,7.749,0,-1,0
809,7.759,0,-1,0
810,7.769,-1,0,0
811,7.779,0,0,0
812,7.789,0,-1,0
813,7.799,0,-1,0
814,7.809,0,-1,0
815,7.819,0,-1,0
816,7.829,0,-1,0
817,7.839,0,-1,0
818,7.849,-1,-1,0
819,7.859,0,-1,0
820,7.869,0,0,0
821,7.879,0,-1,0
822,7.889,0,-1,0
823,7.899,0,-1,0
824,7.909,0,-1,0
825,7.919,0,-1,0
826,7.929,-1,-1,0
827,7.939,0,-1,0
828,7.949,0,-1,0
829,7.959,0,0,0
830,7.969,0,-1,0
831,7.979,0,0,0
832,7.989,0,-1,0
833,7.999,0,-1,0
834,8.009,0,-1,0
835,8.019,0,-1,0
836,8.029,0,-1,0
837,8.039,0,-1,0
838,8.049,-1,-1,0
839,8.059,-1,-1,0
840,8.069,0,-1,0
841,8.079,0,-1,0
842,8.089,0,-1,0
843,8.099,0,-1,0
844,8.109,0,-1,0
845,8.119,0,-1,0
846,8.129,0,-1,0
847,8.139,-1,-1,0
848,8.149,-1,-1,0
849,8.159,0,-1,0
850,8.169,0,-1,0
851,8.179,0,-1,0
852,8.189,0,-1,0
853,8.199,0,-1,0
854,8.209,-1,-1,0
855,8.219,-1,-1,0
856,8.229,0,-1,0
857,8.239,-1,-1,0
858,8.249,0,-1,0
859,8.259,0,-1,0
860,8.269,0,-1,0
861,8.279,0,-1,0
862,8.289,0,-1,0
863,8.299,0,-1,0
864,8.309,0,-1,0
865,8.319,-1,-1,0
866,8.329,0,-1,0
867,8.339,0,0,0
868,8.349,0,-1,0
869,8.359,0,-1,0
870,8.369,0,-1,0
871,8.379,0,0,0
872,8.389,0,-1,0
873,8.399,-1,-1,0
874,8.409,0,0,0
875,8.419,0,-1,0
876,8.429,0,-1,0
877,8.439,0,-1,0
878,8.449,0,-1,0
879,8.459,-1,-1,0
880,8.469,-1,-1,0
881,8.479,0,-1,0
882,8.489,0,-1,0
883,8.499,0,-1,0
884,8.509,-1,-1,0
885,8.519,0,-1,0
886,8.529,0,-1,0
887,8.539,0,-1,0
888,8.549,0,-1,0
889,8.559,0,-1,0
890,8.569,-1,-1,0
891,8.579,0,-1,0
892,8.589,0,-1,0
893,8.599,0,-1,0
894,8.609,0,-1,0
895,8.619,0,-1,0
896,8.629,0,-1,0
897,8.639,0,-1,0
898,8.649,-1,-1,0
899,8.659,0,-1,0
900,8.669,0,-1,0
901,8.679,0,-1,0
902,8.689,0,-1,0
903,8.699,0,-1,0
904,8.709,0,-1,0
905,8.719,0,-1,0
906,8.729,-1,-1,0
907,8.739,0,-1,0
908,8.749,0,-1,0
909,8.759,0,-1,0
910,8.769,0,-1,0
911,8.779,0,-1,0
912,8.789,-1,-1,0
913,8.799,0,0,0
914,8.809,0,-1,0
915,8.819,0,-1,0
916,8.829,0,-1,0
917,8.839,-1,-1,0
918,8.849,0,-1,0
919,8.859,-1,-1,0
920,8.869,0,-1,0
921,8.879,0,-1,0
922,8.889,-1,-1,0
923,8.899,0,-1,0
924,8.909,0,-1,0
925,8.919,0,-1,0
926,8.929,0,-1,0
927,8.939,-1,-1,0
928,8.949,0,-1,0
929,8.959,0,-1,0
930,8.969,-1,-1,0
931,8.979,0,-1,0
932,8.989,0,-1,0
933,8.999,-1,-1,0
934,9.009,-2,-1,0
935,9.019,-2,-1,0
936,9.029,0,-1,0
937,9.039,0,-1,0
938,9.049,0,-1,0
939,9.059,0,-1,0
940,9.069,0,-1,0
941,9.079,0,-1,0
942,9.089,0,-1,0
943,9.099,0,0,0
944,9.109,0,-1,0
945,9.119,0,-1,0
946,9.129,0,-1,0
947,9.139,0,-1,0
948,9.149,-1,-1,0
949,9.159,-1,-1,0
950,9.169,-1,-1,0
951,9.179,0,-1,0
952,9.189,0,-1,0
953,9.199,0,-1,0
954,9.209,0,-1,0
955,9.219,0,-1,0
956,9.229,0,-1,0
957,9.239,0,-1,0
958,9.249,0,-1,0
959,9.259,0,-1,0
960,9.269,0,-1,0
961,9.279,0,-1,0
962,9.289,0,-1,0
963,9.299,0,-1,0
964,9.309,-1,-1,0
965,9.319,0,-1,0
966,9.329,-1,-1,0
967,9.339,0,-1,0
968,9.349,0,-1,0
969,9.359,0,-1,0
970,9.369,0,-1,0
971,9.379,0,-1,0
972,9.389,0,-1,0
973,9.399,0,-1,0
974,9.409,0,-1,0
975,9.419,-1,-1,0
976,9.429,-1,-1,0
977,9.439,0,-1,0
978,9.449,-1,-1,0
979,9.459,-1,-1,0
980,9.469,0,-1,0
981,9.479,-1,-1,0
982,9.489,0,0,0
983,9.499,0,-1,0
984,9.509,0,-2,0
985,9.519,-1,0,0
986,9.529,-1,0,0
987,9.539,-1,0,0
988,9.549,-1,-1,0
989,9.559,-1,-2,0
990,9.569,-1,4,0
991,9.579,1,-7,0
992,9.589,0,-1,0
993,9.599,-1,0,0
994,9.609,-1,0,0
995,9.619,0,0,0
996,9.629,0,-1,0
997,9.639,0,-1,0
998,9.649,0,-1,0
999,9.659,-1,-1,0
1000,9.669,-1,0,0
1001,9.679,0,-1,0
1002,9.689,0,-1,0
1003,9.699,0,-1,0
1004,9.709,0,0,0
1005,9.719,0,-1,0
1006,9.729,0,-1,0
1007,9.739,-1,-1,0
1008,9.749,0,-1,0
1009,9.759,0,0,0
1010,9.769,-1,-1,0
1011,9.779,-1,-1,0
1012,9.789,0,-1,0
1013,9.799,-1,-1,0
1014,9.809,0,-1,0
1015,9.819,-1,-1,0
1016,9.829,-1,-1,0
1017,9.839,0,-1,0
1018,9.849,-1,-1,0
1019,9.859,-1,-1,0
1020,9.869,-1,-1,0
1021,9.879,-1,0,0
1022,9.889,0,-1,0
1023,9.899,-1,-1,0
1024,9.909,-1,-1,0
1025,9.919,0,-1,0
1026,9.929,0,0,0
1027,9.939,0,-1,0
1028,9.949,-1,-1,0
1029,9.959,0,0,0
1030,9.969,0,-1,0
1031,9.979,-1,-1,0
1032,9.989,0,0,0
1033,9.999,0,-1,0
1034,10.009,-1,-1,0
1035,10.019,-1,-1,0
1036,10.029,0,-1,0
1037,10.039,-1,-1,0
1038,10.049,0,-1,0
1039,10.059,-1,-1,0
1040,10.069,0,-1,0
1041,10.079,-1,0,0
1042,10.089,0,-1,0
1043,10.099,-1,-1,0
1044,10.109,0,-1,0
1045,10.119,-1,-1,0
1046,10.129,0,-1,0
1047,10.139,0,-1,0
1048,10.149,-1,-1,0
1049,10.159,0,-1,0
1050,10.169,0,-1,0
1051,10.179,-1,-1,0
1052,10.189,-1,-1,0
1053,10.199,-1,0,0
1054,10.209,0,-1,0
1055,10.219,0,0,0
1056,10.229,-1,-1,0
1057,10.239,-1,-1,0
1058,10.249,0,-1,0
1059,10.259,-1,0,0
1060,10.269,-1,-1,0
1061,10.279,-1,-1,0
1062,10.289,0,-1,0
1063,10.299,-1,-1,0
1064,10.309,0,-1,0
1065,10.319,-1,0,0
1066,10.329,0,-1,0
1067,10.339,-1,-1,0
1068,10.349,0,-1,0
1069,10.359,-1,-1,0
1070,10.369,0,-1,0
1071,10.379,0,-1,0
1072,10.389,-1,-1,0
1073,10.399,0,-1,0
1074,10.409,-1,0,0
1075,10.419,0,-1,0
1076,10.429,0,-1,0
1077,10.439,0,-1,0
1078,10.449,0,0,0
1079,10.459,-1,-1,0
1080,10.469,-1,-1,0
1081,10.479,0,-1,0
1082,10.489,-1,0,0
1083,10.499,-1,-1,0
1084,10.509,-1,-1,0
1085,10.519,0,-1,0
1086,10.529,-1,-1,0
1087,10.539,-1,-1,0
1088,10.549,0,-1,0
1089,10.559,0,-1,0
1090,10.569,0,-1,0
1091,10.579,0,-1,0
1092,10.589,-1,-1,0
1093,10.599,0,-1,0
1094,10.609,0,0,0
1095,10.619,-1,-1,0
1096,10.629,-1,-1,0
1097,10.639,0,-1,0
1098,10.649,-1,-1,0
1099,10.659,-1,-1,0
1100,10.669,-1,-1,0
1101,10.679,-1,-1,0
1102,10.689,0,-1,0
1103,10.699,-1,-1,0
1104,10.709,0,-1,0
1105,10.719,0,-1,0
1106,10.729,-1,-1,0
1107,10.739,0,-1,0
1108,10.749,0,-1,0
1109,10.759,0,-1,0
1110,10.769,0,-1,0
1111,10.779,-1,-1,0
1112,10.789,-1,-1,0
1113,10.799,-1,-1,0
1114,10.809,0,-1,0
1115,10.819,0,-1,0
1116,10.829,-1,-1,0
1117,10.839,0,-1,0
1118,10.849,0,-1,0
1119,10.859,0,-1,0
1120,10.869,0,-1,0
1121,10.879,-1,-1,0
1122,10.889,-1,-1,0
1123,10.899,0,-1,0
1124,10.909,-1,-1,0
1125,10.919,-1,-1,0
1126,10.929,-1,-1,0
1127,10.939,0,-1,0
1128,10.949,-1,-1,0
1129,10.959,-1,-1,0
1130,10.969,0,-1,0
1131,10.979,-1,-1,0
1132,10.989,-1,-1,0
1133,10.999,0,-1,0
1134,11.009,0,-1,0
1135,11.019,-1,-1,0
1136,11.029,0,0,0
1137,11.039,-1,-1,0
1138,11.049,-1,-1,0
1139,11.059,0,-1,0
1140,11.069,-1,-1,0
1141,11.079,-1,-1,0
1142,11.089,-1,-1,0
1143,11.099,0,-1,0
1144,11.109,-1,-1,0
1145,11.119,0,-1,0
1146,11.129,-1,-1,0
1147,11.139,-1,-1,0
1148,11.149,-1,-1,0
1149,11.159,0,-1,0
1150,11.169,-1,-1,0
1151,11.179,0,-1,0
1152,11.189,-1,-1,0
1153,11.199,0,-1,0
1154,11.209,-1,-1,0
1155,11.219,0,-1,0
1156,11.229,-1,-1,0
1157,11.239,-1,-1,0
1158,11.249,-1,-1,0
1159,11.259,0,-1,0
1160,11.269,-1,-1,0
1161,11.279,-1,-1,0
1162,11.289,-1,-1,0
1163,11.299,-1,-1,0
1164,11.309,-1,0,0
1165,11.319,-1,-1,0
1166,11.329,-1,-1,0
1167,11.339,-1,-1,0
1168,11.349,-1,-1,0
1169,11.359,-1,-1,0
1170,11.369,-1,0,0
1171,11.379,0,-1,0
1172,11.389,-1,-1,0
1173,11.399,-1,-1,0
1174,11.409,-1,-1,0
1175,11.419,-1,-1,0
1176,11.429,-1,-1,0
1177,11.439,-1,0,0
1178,11.449,-1,-1,0
1179,11.459,-1,-1,0
1180,11.469,-1,0,0
1181,11.479,-1,-1,0
1182,11.489,-1,-1,0
1183,11.499,-1,0,0
1184,11.509,-1,-1,0
1185,11.519,0,0,0
1186,11.529,-1,0,0
1187,11.539,-1,-1,0
1188,11.549,-1,-1,0
1189,11.559,-1,0,0
1190,11.569,-1,0,0
1191,11.579,0,-1,0
1192,11.589,-1,-1,0
1193,11.599,-1,0,0
1194,11.609,-1,0,0
1195,11.619,-1,0,0
1196,11.629,-1,0,0
1197,11.639,-1,0,0
1198,11.649,-1,0,0
1199,11.659,-1,-1,0
1200,11.669,0,-1,0
1201,11.679,-1,-1,0
1202,11.689,-1,0,0
1203,11.699,-1,-1,0
1204,11.709,-1,-1,0
1205,11.719,-1,-1,0
1206,11.729,-1,0,0
1207,11.739,0,-1,0
1208,11.749,-1,0,0
1209,11.759,-1,0,0
1210,11.769,0,0,0
1211,11.779,-1,0,0
1212,11.789,-1,0,0
1213,11.799,0,0,0
1214,11.809,-1,-1,0
1215,11.819,-1,-1,0
1216,11.829,-1,-1,0
1217,11.839,-1,-1,0
1218,11.849,0,0,0
1219,11.859,-1,-1,0
1220,11.869,-1,-1,0
1221,11.879,-1,0,0
1222,11.889,-1,-1,0
1223,11.899,0,-1,0
1224,11.909,-1,0,0
1225,11.919,-1,-1,0
1226,11.929,-1,0,0
1227,11.939,-1,0,0
1228,11.949,0,-1,0
1229,11.959,-1,0,0
1230,11.969,-1,0,0
1231,11.979,-1,0,0
1232,11.989,-1,-1,0
1233,11.999,0,0,0
1234,12.009,-1,-1,0
1235,12.019,0,0,0
1236,12.029,-1,0,0
1237,12.039,-1,-1,0
1238,12.049,-1,0,0
1239,12.059,-1,-1,0
1240,12.069,-1,-1,0
1241,12.079,-1,-1,0
1242,12.089,-1,0,0
1243,12.099,-1,-1,0
1244,12.109,0,0,0
1245,12.119,-1,0,0
1246,12.129,-1,-1,0
1247,12.139,-1,-1,0
1248,12.149,-1,-1,0
1249,12.159,-1,0,0
1250,12.169,-1,-1,0
1251,12.179,-1,-1,0
1252,12.189,-1,-1,0
1253,12.199,-1,-1,0
1254,12.209,-1,-1,0
1255,12.219,-1,-1,0
1256,12.229,-1,0,0
1257,12.239,-1,0,0
1258,12.249,0,-1,0
1259,12.259,0,-1,0
1260,12.269,-1,-1,0
1261,12.279,-1,-1,0
1262,12.289,-1,-1,0
1263,12.299,-1,0,0
1264,12.309,0,-1,0
1265,12.319,-1,-1,0
1266,12.329,0,0,0
1267,12.339,-1,0,0
1268,12.349,-1,-1,0
1269,12.359,-1,0,0
1270,12.369,-1,-1,0
1271,12.379,-1,0,0
1272,12.389,-1,0,0
1273,12.399,-1,0,0
1274,12.409,-1,0,0
1275,12.419,-1,0,0
1276,12.429,-1,0,0
1277,12.439,-1,0,0
1278,12.449,-1,-1,0
1279,12.459,-1,0,0
1280,12.469,-1,-1,0
1281,12.479,-1,0,0
1282,12.489,-1,0,0
1283,12.499,0,0,0
1284,12.509,-1,0,0
1285,12.519,-1,0,0
1286,12.529,-1,0,0
1287,12.539,-1,0,0
1288,12.549,-1,0,0
1289,12.559,-1,0,0
1290,12.569,-1,0,0
1291,12.579,-1,0,0
1292,12.589,-1,0,0
1293,12.599,-1,0,0
1294,12.609,-1,0,0
1295,12.619,0,0,0
1296,12.629,-1,-1,0
1297,12.639,-1,0,0
1298,12.649,-1,-1,0
1299,12.659,-1,0,0
1300,12.669,-1,0,0
1301,12.679,-1,0,0
1302,12.689,-1,-1,0
1303,12.699,0,0,0
1304,12.709,-1,-1,0
1305,12.719,-1,-1,0
1306,12.729,-1,-1,0
1307,12.739,-1,-1,0
1308,12.749,-1,-1,0
1309,12.759,-1,-1,0
1310,12.769,-1,-1,0
1311,12.779,-1,-1,0
1312,12.789,-1,-1,0
1313,12.799,-1,-1,0
1314,12.809,-1,-1,0
1315,12.819,-1,-1,0
1316,12.829,-1,-1,0
1317,12.839,-1,-1,0
1318,12.849,-1,-1,0
1319,12.859,-1,-1,0
1320,12.869,-1,-1,0
1321,12.879,-1,-1,0
1322,12.889,-1,-1,0
1323,12.899,-1,-2,0
1324,12.909,-1,-2,0
1325,12.919,-1,-2,0
1326,12.929,-1,-1,0
1327,12.939,0,-2,0
1328,12.949,-1,-2,0
1329,12.959,0,-2,0
1330,12.969,-1,-1,0
1331,12.979,-1,-2,0
1332,12.989,-1,-2,0
1333,12.999,-1,-2,0
1334,13.009,-1,-2,0
1335,13.019,-1,-2,0
1336,13.029,-1,-2,0
1337,13.039,-1,-2,0
1338,13.049,-1,-2,0
1339,13.059,-1,-2,0
1340,13.069,-1,-2,0
1341,13.079,-1,-2,0
1342,13.089,-1,-2,0
1343,13.099,-1,-1,0
1344,13.109,-1,-2,0
1345,13.119,-1,-2,0
1346,13.129,0,-2,0
1347,13.139,-1,-2,0
1348,13.149,-1,-1,0
1349,13.159,-1,-1,0
1350,13.169,-1,-2,0
1351,13.179,-1,-1,0
1352,13.189,-1,-2,0
1353,13.199,-1,-1,0
1354,13.209,-1,-1,0
1355,13.219,-1,-1,0
1356,13.229,-1,-2,0
1357,13.239,-1,-1,0
1358,13.249,-1,-1,0
1359,13.259,-1,-1,0
1360,13.269,-1,-1,0
1361,13.279,-1,-1,0
1362,13.289,-1,-1,0
1363,13.299,-1,-1,0
1364,13.309,-1,-1,0
1365,13.319,-1,-1,0
1366,13.329,-1,-1,0
1367,13.339,-1,-1,0
1368,13.349,-1,-1,0
1369,13.359,-1,-1,0
1370,13.369,-1,-1,0
1371,13.379,0,-1,0
1372,13.389,-1,-1,0
1373,13.399,-1,-1,0
1374,13.409,-1,-1,0
1375,13.419,-1,-1,0
1376,13.429,-1,-1,0
1377,13.439,-1,-1,0
1378,13.449,-1,-1,0
1379,13.459,-1,-1,0
1380,13.469,-1,-1,0
1381,13.479,-1,-1,0
1382,13.489,-1,-1,0
1383,13.499,-1,-1,0
1384,13.509,-1,-1,0
1385,13.519,-1,-1,0
1386,13.529,-1,0,0
1387,13.539,-1,-1,0
1388,13.549,-1,-1,0
1389,13.559,-1,-1,0
1390,13.569,-1,-1,0
1391,13.579,-1,-1,0
1392,13.589,-1,-1,0
1393,13.599,-1,-1,0
1394,13.609,-1,-1,0
1395,13.619,-1,-1,0
1396,13.629,-1,-1,0
1397,13.639,-1,-1,0
1398,13.649,-1,-1,0
1399,13.659,-1,-1,0
1400,13.669,-1,-1,0
1401,13.679,-1,0,0
1402,13.689,-1,-1,0
1403,13.699,-1,-1,0
1404,13.709,-1,-1,0
1405,13.719,-1,0,0
1406,13.729,-1,-1,0
1407,13.739,-1,-1,0
1408,13.749,-1,-1,0
1409,13.759,-1,-1,0
1410,13.769,0,-1,0
1411,13.779,-1,-1,0
1412,13.789,-1,-1,0
1413,13.799,-1,0,0
1414,13.809,-1,-1,0
1415,13.819,-1,-1,0
1416,13.829,0,0,0
1417,13.839,-1,0,0
1418,13.849,-1,-1,0
1419,13.859,-1,0,0
1420,13.869,-1,0,0
1421,13.879,-1,0,0
1422,13.889,-1,0,0
1423,13.899,-1,0,0
1424,13.909,-1,0,0
1425,13.919,-1,0,0
1426,13.929,-1,0,0
1427,13.939,-1,0,0
1428,13.949,-1,0,0
1429,13.959,-1,0,0
1430,13.969,-1,0,0
1431,13.979,-1,-1,0
1432,13.989,-1,0,0
1433,13.999,-1,0,0
1434,14.009,-1,0,0
1435,14.019,-1,-1,0
1436,14.029,-1,0,0
1437,14.039,-1,-1,0
1438,14.049,-1,0,0
1439,14.059,-1,-1,0
1440,14.069,-1,-1,0
1441,14.079,-1,-1,0
1442,14.089,-1,-1,0
1443,14.099,-1,-1,0
1444,14.109,-1,0,0
1445,14.119,-1,0,0
1446,14.129,-1,0,0
1447,14.139,-1,0,0
1448,14.149,-1,0,0
1449,14.159,-1,0,0
1450,14.169,-1,0,0
1451,14.179,-1,-1,0
1452,14.189,-1,0,0
1453,14.199,-1,-1,0
1454,14.209,-1,0,0
1455,14.219,-1,0,0
1456,14.229,-1,0,0
1457,14.239,-1,0,0
1458,14.249,-1,0,0
1459,14.259,-1,0,0
1460,14.269,-1,0,0
1461,14.279,-1,0,0
1462,14.289,-1,0,0
1463,14.299,-1,0,0
1464,14.309,-1,0,0
1465,14.319,-1,0,0
1466,14.329,-1,0,0
1467,14.339,-1,0,0
1468,14.349,-1,0,0
1469,14.359,-1,0,0
1470,14.369,-1,0,0
1471,14.379,-1,1,0
1472,14.389,-1,0,0
1473,14.399,-1,0,0
1474,14.409,-1,0,0
1475,14.419,-1,1,0
1476,14.429,-1,0,0
1477,14.439,-1,0,0
1478,14.449,-1,0,0
1479,14.459,-1,0,0
1480,14.469,-1,0,0
1481,14.479,-1,0,0
1482,14.489,-1,0,0
1483,14.499,-1,0,0
1484,14.509,-1,0,0
1485,14.519,-1,0,0
1486,14.529,-1,0,0
1487,14.539,-1,0,0
1488,14.549,-2,0,0
1489,14.559,-1,0,0
1490,14.569,-1,0,0
1491,14.579,-1,0,0
1492,14.589,-1,0,0
1493,14.599,-1,0,0
1494,14.609,0,0,0
1495,14.619,-1,-1,0
1496,14.629,-1,0,0
1497,14.639,-1,-1,0
1498,14.649,-1,-1,0
1499,14.659,-1,-1,0
1500,14.669,-1,-1,0
1501,14.679,-1,-1,0
1502,14.689,-1,-1,0
1503,14.699,-1,-1,0
1504,14.709,-1,-1,0
1505,14.719,-1,-1,0
1506,14.729,-1,-1,0
1507,14.739,-1,-1,0
1508,14.749,-1,-1,0
1509,14.759,-1,-1,0
1510,14.769,-1,-1,0
1511,14.779,-1,-1,0
1512,14.789,-1,-1,0
1513,14.799,-1,-3,0
1514,14.809,0,-2,0
1515,14.819,-1,-3,0
1516,14.829,-1,-1,0
1517,14.839,-1,-2,0
1518,14.849,0,-2,0
1519,14.859,-1,-2,0
1520,14.869,-1,-2,0
1521,14.879,-1,-2,0
1522,14.889,-1,-2,0
1523,14.899,-1,-2,0
1524,14.909,-1,-2,0
1525,14.919,-1,-3,0
1526,14.929,-1,-3,0
1527,14.939,-1,-2,0
1528,14.949,-1,-2,0
1529,14.959,-1,-3,0
1530,14.969,-1,-3,0
1531,14.979,-1,-2,0
1532,14.989,-1,-2,0
1533,14.999,-1,-3,0
1534,15.009,-1,-2,0
1535,15.019,-1,-2,0
1536,15.029,-1,-3,0
1537,15.039,-1,-2,0
1538,15.049,-1,-3,0
1539,15.059,-1,-2,0
1540,15.069,-1,-2,0
1541,15.079,-1,-3,0
1542,15.089,-1,-2,0
1543,15.099,-1,-2,0
1544,15.109,-1,-2,0
1545,15.119,-1,-2,0
1546,15.129,-1,-2,0
1547,15.139,-1,-2,0
1548,15.149,-1,-1,0
1549,15.159,-1,-1,0
1550,15.169,-1,-1,0
1551,15.179,-1,-1,0
1552,15.189,-1,-2,0
1553,15.199,-1,-1,0
1554,15.209,-1,-1,0
1555,15.219,-1,-1,0
1556,15.229,-1,-1,0
1557,15.239,-1,-1,0
1558,15.249,-1,-1,0
1559,15.259,-1,-1,0
1560,15.269,-1,-1,0
1561,15.279,-1,-1,0
1562,15.289,-1,-1,0
1563,15.299,-1,-1,0
1564,15.309,-1,-1,0
1565,15.319,-1,-1,0
1566,15.329,-1,-1,0
1567,15.339,-1,-1,0
1568,15.349,-1,-1,0
1569,15.359,-1,0,0
1570,15.369,-1,-1,0
1571,15.379,-1,-1,0
1572,15.389,-1,-1,0
1573,15.399,-1,0,0
1574,15.409,-1,-1,0
1575,15.419,-1,-1,0
1576,15.429,-1,-1,0
1577,15.439,-1,-1,0
1578,15.449,-1,-1,0
1579,15.459,-1,-1,0
1580,15.469,-1,-1,0
1581,15.479,-1,-1,0
1582,15.489,-1,-1,0
1583,15.499,-1,-1,0
1584,15.509,-1,-1,0
1585,15.519,-1,-1,0
1586,15.529,-1,-1,0
1587,15.539,-1,-1,0
1588,15.549,-1,-1,0
1589,15.559,-1,-1,0
1590,15.569,-1,-1,0
1591,15.579,-1,-2,0
1592,15.589,-1,-1,0
1593,15.599,-1,-2,0
1594,15.609,-1,-2,0
1595,15.619,-1,-1,0
1596,15.629,-1,-1,0
1597,15.639,-1,-2,0
1598,15.649,-1,-2,0
1599,15.659,-1,-2,0
1600,15.669,-1,-2,0
1601,15.679,-1,-2,0
1602,15.689,-1,-2,0
1603,15.699,-1,-2,0
1604,15.709,-1,-2,0
1605,15.719,-1,-2,0
1606,15.729,-1,-2,0
1607,15.739,-1,-2,0
1608,15.749,-1,-2,0
1609,15.759,-1,-2,0
1610,15.769,-1,-2,0
1611,15.779,-1,-2,0
1612,15.789,-1,-2,0
1613,15.799,-1,-2,0
1614,15.809,-1,-2,0
1615,15.819,-1,-2,0
1616,15.829,-1,-2,0
1617,15.839,-1,-3,0
1618,15.849,-1,-2,0
1619,15.859,-1,-3,0
1620,15.869,-1,-2,0
1621,15.879,-1,-2,0
1622,15.889,-1,-2,0
1623,15.899,-1,-2,0
1624,15.909,-1,-2,0
1625,15.919,-1,-2,0
1626,15.929,-1,-2,0
1627,15.939,-1,-2,0
1628,15.949,-1,-2,0
1629,15.959,-1,-2,0
1630,15.969,-1,-2,0
1631,15.979,-1,-2,0
1632,15.989,-1,-2,0
1633,15.999,-1,-2,0
1634,16.009,-1,-2,0
1635,16.019,-1,-2,0
1636,16.029,-1,-2,0
1637,16.039,-1,-1,0
1638,16.049,-1,-1,0
1639,16.059,-1,-2,0
1640,16.069,-1,-1,0
1641,16.079,-1,-1,0
1642,16.089,-1,-1,0
1643,16.099,-1,-1,0
1644,16.109,-1,-1,0
1645,16.119,-1,-1,0
1646,16.129,-1,-1,0
1647,16.139,-1,-1,0
1648,16.149,-1,-1,0
1649,16.159,-1,-1,0
1650,16.169,-1,-1,0
1651,16.179,-1,-1,0
1652,16.189,-1,-1,0
1653,16.199,-1,-1,0
1654,16.209,-1,-1,0
1655,16.219,-1,-1,0
1656,16.229,-1,-1,0
1657,16.239,-1,-1,0
1658,16.249,-1,-1,0
1659,16.259,-1,-1,0
1660,16.269,-1,-1,0
1661,16.279,-1,-2,0
1662,16.289,-1,-1,0
1663,16.299,-1,-1,0
1664,16.309,-1,-2,0
1665,16.319,-1,-1,0
1666,16.329,-1,-1,0
1667,16.339,-1,-1,0
1668,16.349,-1,-1,0
1669,16.359,-1,-2,0
1670,16.369,-1,-2,0
1671,16.379,-1,-2,0
1672,16.389,-1,-1,0
1673,16.399,-1,-2,0
1674,16.409,-1,-1,0
1675,16.419,-1,-2,0
1676,16.429,-1,-2,0
1677,16.439,-1,-2,0
1678,16.449,-1,-1,0
1679,16.459,-1,-2,0
1680,16.469,-1,-2,0
1681,16.479,-1,-2,0
1682,16.489,-1,-2,0
1683,16.499,-1,-2,0
1684,16.509,-1,-2,0
1685,16.519,-1,-2,0
1686,16.529,-1,-2,0
1687,16.539,-1,-2,0
1688,16.549,-1,-2,0
1689,16.559,-1,-2,0
1690,16.569,-1,-3,0
1691,16.579,-1,-2,0
1692,16.589,-1,-2,0
1693,16.599,-1,-2,0
1694,16.609,-1,-2,0
1695,16.619,-1,-2,0
1696,16.629,-1,-2,0
1697,16.639,-1,-2,0
1698,16.649,-1,-2,0
1699,16.659,-1,-3,0
1700,16.669,-1,-2,0
1701,16.679,-1,-3,0
1702,16.689,-1,-2,0
1703,16.699,-1,-2,0
1704,16.709,-1,-2,0
1705,16.719,-1,-2,0
1706,16.729,-1,-2,0
1707,16.739,-1,-2,0
1708,16.749,-1,-2,0
1709,16.759,-1,-2,0
1710,16.769,-1,-2,0
1711,16.779,-1,-2,0
1712,16.789,-1,-2,0
1713,16.799,-1,-2,0
1714,16.809,-1,-2,0
1715,16.819,-1,-2,0
1716,16.829,-1,-2,0
1717,16.839,-1,-2,0
1718,16.849,-1,-2,0
1719,16.859,-1,-2,0
1720,16.869,-1,-2,0
1721,16.879,-1,-2,0
1722,16.889,-1,-2,0
1723,16.899,-1,-1,0
1724,16.909,-1,-2,0
1725,16.919,-1,-2,0
1726,16.929,-1,-1,0
1727,16.939,-1,-1,0
1728,16.949,-1,-1,0
1729,16.959,-1,-1,0
1730,16.969,-1,-1,0
1731,16.979,-1,-1,0
1732,16.989,-1,-1,0
1733,16.999,-1,-1,0
1734,17.009,-1,-1,0
1735,17.019,-1,-1,0
1736,17.029,-1,0,0
1737,17.039,-1,-1,0
1738,17.049,-1,0,0
1739,17.059,-1,0,0
1740,17.069,-1,-1,0
1741,17.079,0,0,0
1742,17.089,-1,0,0
1743,17.099,-1,0,0
1744,17.109,-1,0,0
1745,17.119,-1,0,0
1746,17.129,-1,0,0
1747,17.139,-1,0,0
1748,17.149,-1,-1,0
1749,17.159,-1,-1,0
1750,17.169,-1,0,0
1751,17.179,-2,0,0
1752,17.189,-1,0,0
1753,17.199,-1,-1,0
1754,17.209,-1,0,0
1755,17.219,-1,-1,0
1756,17.229,-1,0,0
1757,17.239,-1,0,0
1758,17.249,-1,-1,0
1759,17.259,-1,-1,0
1760,17.269,-1,-1,0
1761,17.279,-1,0,0
1762,17.289,-1,-1,0
1763,17.299,-1,0,0
1764,17.309,-1,0,0
1765,17.319,-1,-1,0
1766,17.329,-1,0,0
1767,17.339,-1,0,0
1768,17.349,-1,0,0
1769,17.359,-1,0,0
1770,17.369,-1,0,0
1771,17.379,-1,0,0
1772,17.389,-1,1,0
1773,17.399,-1,0,0
1774,17.409,-1,1,0
1775,17.419,-1,0,0
1776,17.429,-1,0,0
1777,17.439,-1,0,0
1778,17.449,-1,1,0
1779,17.459,-1,0,0
1780,17.469,-1,1,0
1781,17.479,-1,1,0
1782,17.489,-1,1,0
1783,17.499,-1,1,0
1784,17.509,-1,1,0
1785,17.519,-1,1,0
1786,17.529,-1,1,0
1787,17.539,-1,0,0
1788,17.549,-1,1,0
1789,17.559,-1,0,0
1790,17.569,-1,1,0
1791,17.579,-1,1,0
1792,17.589,-1,1,0
1793,17.599,-1,0,0
1794,17.609,-1,1,0
1795,17.619,-1,0,0
1796,17.629,-1,1,0
1797,17.639,-1,1,0
1798,17.649,-1,0,0
1799,17.659,-1,1,0
1800,17.669,-1,1,0
1801,17.679,-1,1,0
1802,17.689,-1,1,0
1803,17.699,-1,1,0
1804,17.709,-1,1,0
1805,17.719,-1,1,0
1806,17.729,-1,1,0
1807,17.739,-1,1,0
1808,17.749,-1,1,0
1809,17.759,-1,1,0
1810,17.769,-1,1,0
1811,17.779,-1,1,0
1812,17.789,-1,1,0
1813,17.799,-1,1,0
1814,17.809,-1,1,0
1815,17.819,-1,1,0
1816,17.829,-1,1,0
1817,17.839,-1,1,0
1818,17.849,-1,1,0
1819,17.859,-1,1,0
1820,17.869,-1,1,0
1821,17.879,-1,1,0
1822,17.889,-1,1,0
1823,17.899,-1,1,0
1824,17.909,-1,1,0
1825,17.919,-1,1,0
1826,17.929,-1,0,0
1827,17.939,-1,1,0
1828,17.949,-1,1,0
1829,17.959,-1,0,0
1830,17.969,-1,1,0
1831,17.979,-1,1,0
1832,17.989,-1,0,0
1833,17.999,-1,1,0
1834,18.009,-1,0,0
1835,18.019,-1,0,0
1836,18.029,-1,0,0
1837,18.039,-1,0,0
1838,18.049,-1,0,0
1839,18.059,-1,0,0
1840,18.069,-1,0,0
1841,18.079,-1,1,0
1842,18.089,-1,0,0
1843,18.099,-1,0,0
1844,18.109,-1,-1,0
1845,18.119,-1,-1,0
1846,18.129,-1,0,0
