,ts,id,Gx,Gy,Gz,Ax,Ay,Az
0,-0.024,IMU0,-12.134146341463415,4.207317073170732,5.060975609756098,3.095703125,-0.19140625,-1.35546875
1,-0.024,IMU1,-10.060975609756099,2.9268292682926833,5.121951219512195,3.0595703125,-0.1572265625,-1.345703125
2,-0.024,IMU2,-11.341463414634147,4.695121951219512,4.51219512195122,3.0791015625,-0.181640625,-1.34765625
3,-0.014,IMU0,-11.585365853658537,7.01219512195122,7.439024390243903,3.2001953125,-0.1943359375,-1.408203125
4,-0.014,IMU1,-9.51219512195122,5.914634146341464,7.317073170731708,3.1748046875,-0.140625,-1.4013671875
5,-0.014,IMU2,-10.731707317073171,7.378048780487806,7.01219512195122,3.1865234375,-0.203125,-1.396484375
6,-0.004,IMU0,-11.341463414634147,8.353658536585366,10.609756097560977,3.2607421875,-0.1884765625,-1.439453125
7,-0.004,IMU1,-9.02439024390244,7.25609756097561,10.487804878048781,3.232421875,-0.15625,-1.4287109375
8,-0.004,IMU2,-10.365853658536587,8.841463414634147,10.24390243902439,3.244140625,-0.169921875,-1.4267578125
9,0.006,IMU0,-9.695121951219512,7.865853658536586,13.78048780487805,3.3671875,-0.1435546875,-1.484375
10,0.006,IMU1,-7.378048780487806,6.890243902439025,13.719512195121952,3.333984375,-0.1005859375,-1.474609375
11,0.006,IMU2,-8.292682926829269,8.109756097560977,13.231707317073171,3.35546875,-0.154296875,-1.4765625
12,0.016,IMU0,-8.292682926829269,3.963414634146342,12.621951219512196,3.439453125,-0.2294921875,-1.5419921875
13,0.016,IMU1,-5.7926829268292686,2.8658536585365857,12.682926829268293,3.41015625,-0.169921875,-1.5302734375
14,0.016,IMU2,-7.073170731707318,4.146341463414634,12.01219512195122,3.3994140625,-0.2412109375,-1.5205078125
15,0.026,IMU0,-7.073170731707318,2.7439024390243905,7.926829268292684,3.4033203125,-0.205078125,-1.5673828125
16,0.026,IMU1,-4.817073170731708,1.8902439024390245,7.378048780487806,3.3662109375,-0.1669921875,-1.5615234375
17,0.026,IMU2,-6.2804878048780495,3.4756097560975614,7.317073170731708,3.3671875,-0.1845703125,-1.55859375
18,0.036,IMU0,-5.548780487804878,4.939024390243903,2.682926829268293,3.4697265625,-0.2060546875,-1.634765625
19,0.036,IMU1,-3.2926829268292686,3.780487804878049,2.9268292682926833,3.439453125,-0.1416015625,-1.6376953125
20,0.036,IMU2,-4.146341463414634,5.487804878048781,2.073170731707317,3.447265625,-0.2275390625,-1.6064453125
21,0.046,IMU0,-3.048780487804878,5.975609756097562,0.853658536585366,3.486328125,-0.1826171875,-1.6142578125
22,0.046,IMU1,-0.30487804878048785,4.51219512195122,0.9756097560975611,3.48828125,-0.1064453125,-1.63671875
23,0.046,IMU2,-1.5853658536585367,6.341463414634147,0.5487804878048781,3.458984375,-0.16015625,-1.6142578125
24,0.056,IMU0,-0.9146341463414634,4.817073170731708,0.5487804878048781,3.5615234375,-0.208984375,-1.642578125
25,0.056,IMU1,1.7682926829268295,3.2926829268292686,0.9146341463414634,3.5390625,-0.146484375,-1.6328125
26,0.056,IMU2,0.48780487804878053,5.0,0.30487804878048785,3.5302734375,-0.2158203125,-1.6171875
27,0.066,IMU0,0.853658536585366,2.9268292682926833,0.853658536585366,3.5498046875,-0.2080078125,-1.626953125
28,0.066,IMU1,3.2926829268292686,1.829268292682927,0.7317073170731708,3.5419921875,-0.14453125,-1.6259765625
29,0.066,IMU2,1.707317073170732,3.7195121951219514,0.48780487804878053,3.5234375,-0.189453125,-1.61328125
30,0.076,IMU0,1.524390243902439,0.9146341463414634,-1.829268292682927,3.533203125,-0.263671875,-1.623046875
31,0.076,IMU1,3.7195121951219514,0.426829268292683,-1.5853658536585367,3.4677734375,-0.212890625,-1.6064453125
32,0.076,IMU2,2.378048780487805,1.707317073170732,-2.073170731707317,3.4951171875,-0.2587890625,-1.611328125
33,0.086,IMU0,1.2804878048780488,0.7317073170731708,-4.878048780487806,3.4951171875,-0.2080078125,-1.6337890625
34,0.086,IMU1,3.536585365853659,-0.06097560975609757,-4.695121951219512,3.4853515625,-0.1669921875,-1.6435546875
35,0.086,IMU2,1.829268292682927,1.2804878048780488,-5.060975609756098,3.4951171875,-0.20703125,-1.619140625
36,0.096,IMU0,2.3170731707317076,1.829268292682927,-3.536585365853659,3.5078125,-0.248046875,-1.638671875
37,0.096,IMU1,4.939024390243903,0.7926829268292683,-3.048780487804878,3.458984375,-0.177734375,-1.6337890625
38,0.096,IMU2,3.1097560975609757,2.25609756097561,-3.536585365853659,3.4609375,-0.2431640625,-1.619140625
39,0.106,IMU0,2.6219512195121952,2.378048780487805,-2.8658536585365857,3.5029296875,-0.2314453125,-1.6357421875
40,0.106,IMU1,5.2439024390243905,1.5853658536585367,-2.6219512195121952,3.462890625,-0.224609375,-1.640625
41,0.106,IMU2,3.536585365853659,3.1707317073170733,-3.1097560975609757,3.4814453125,-0.2568359375,-1.6318359375
42,0.116,IMU0,2.378048780487805,3.536585365853659,-1.1585365853658538,3.4736328125,-0.2626953125,-1.6298828125
43,0.116,IMU1,4.75609756097561,2.7439024390243905,-0.9756097560975611,3.46875,-0.1806640625,-1.61328125
44,0.116,IMU2,3.414634146341464,4.329268292682928,-1.524390243902439,3.4677734375,-0.23046875,-1.60546875
45,0.126,IMU0,0.7317073170731708,3.1097560975609757,-1.3414634146341464,3.5205078125,-0.2294921875,-1.63671875
46,0.126,IMU1,2.9268292682926833,1.9512195121951221,-0.853658536585366,3.46484375,-0.1796875,-1.619140625
47,0.126,IMU2,1.5853658536585367,3.536585365853659,-1.5853658536585367,3.486328125,-0.2333984375,-1.599609375
48,0.136,IMU0,1.9512195121951221,1.6463414634146343,3.7195121951219514,3.505859375,-0.1533203125,-1.6328125
49,0.136,IMU1,4.573170731707317,0.426829268292683,4.2682926829268295,3.50390625,-0.12890625,-1.62109375
50,0.136,IMU2,2.9268292682926833,2.1341463414634148,3.658536585365854,3.521484375,-0.162109375,-1.6142578125
51,0.146,IMU0,3.8414634146341466,1.6463414634146343,10.121951219512196,3.48046875,-0.203125,-1.62109375
52,0.146,IMU1,6.646341463414635,0.3658536585365854,10.792682926829269,3.4560546875,-0.109375,-1.6162109375
53,0.146,IMU2,4.939024390243903,1.7682926829268295,10.182926829268293,3.462890625,-0.1640625,-1.6171875
54,0.156,IMU0,4.695121951219512,1.9512195121951221,11.646341463414634,3.525390625,-0.2041015625,-1.6328125
55,0.156,IMU1,7.073170731707318,0.9756097560975611,11.707317073170733,3.4716796875,-0.1845703125,-1.6181640625
56,0.156,IMU2,5.7926829268292686,2.5,11.158536585365855,3.4931640625,-0.232421875,-1.619140625
57,0.166,IMU0,4.207317073170732,2.25609756097561,9.085365853658537,3.501953125,-0.173828125,-1.6015625
58,0.166,IMU1,6.585365853658537,0.853658536585366,9.085365853658537,3.5087890625,-0.1376953125,-1.6044921875
59,0.166,IMU2,5.426829268292684,2.25609756097561,8.658536585365855,3.515625,-0.1845703125,-1.5908203125
60,0.176,IMU0,4.390243902439025,-0.7317073170731708,9.51219512195122,3.517578125,-0.1533203125,-1.5751953125
61,0.176,IMU1,6.890243902439025,-2.3170731707317076,10.24390243902439,3.4697265625,-0.06640625,-1.56640625
62,0.176,IMU2,5.548780487804878,-0.9756097560975611,9.756097560975611,3.4814453125,-0.1240234375,-1.546875
63,0.186,IMU0,5.426829268292684,-3.8414634146341466,14.756097560975611,3.4814453125,-0.1015625,-1.5625
64,0.186,IMU1,7.743902439024391,-4.878048780487806,14.756097560975611,3.439453125,-0.0966796875,-1.54296875
65,0.186,IMU2,6.2804878048780495,-3.658536585365854,14.329268292682928,3.4609375,-0.1435546875,-1.537109375
66,0.196,IMU0,6.7682926829268295,-3.780487804878049,17.743902439024392,3.4091796875,-0.115234375,-1.537109375
67,0.196,IMU1,9.451219512195122,-5.0,17.743902439024392,3.3984375,-0.0478515625,-1.537109375
68,0.196,IMU2,7.926829268292684,-3.4756097560975614,17.31707317073171,3.4033203125,-0.0966796875,-1.53515625
69,0.206,IMU0,6.463414634146342,-1.2804878048780488,15.670731707317074,3.404296875,-0.140625,-1.5703125
70,0.206,IMU1,8.902439024390244,-2.6219512195121952,15.914634146341465,3.3486328125,-0.0888671875,-1.5498046875
71,0.206,IMU2,7.560975609756098,-1.0365853658536586,15.487804878048783,3.353515625,-0.1357421875,-1.5400390625
72,0.216,IMU0,5.670731707317073,0.6097560975609757,15.731707317073171,3.365234375,-0.0634765625,-1.5341796875
73,0.216,IMU1,7.926829268292684,-0.853658536585366,15.914634146341465,3.3505859375,-0.0439453125,-1.556640625
74,0.216,IMU2,6.585365853658537,0.6097560975609757,15.487804878048783,3.3681640625,-0.0908203125,-1.5498046875
75,0.226,IMU0,5.609756097560976,0.30487804878048785,18.414634146341466,3.34765625,-0.072265625,-1.509765625
76,0.226,IMU1,8.048780487804878,-0.6707317073170732,18.597560975609756,3.3046875,-0.0341796875,-1.50390625
77,0.226,IMU2,6.7682926829268295,0.853658536585366,18.231707317073173,3.3115234375,-0.078125,-1.494140625
78,0.236,IMU0,4.939024390243903,-2.3170731707317076,17.195121951219512,3.279296875,-0.1416015625,-1.4775390625
79,0.236,IMU1,7.560975609756098,-3.353658536585366,17.25609756097561,3.2548828125,-0.1025390625,-1.4765625
80,0.236,IMU2,5.2439024390243905,-1.7682926829268295,16.951219512195124,3.2607421875,-0.1474609375,-1.462890625
81,0.246,IMU0,2.804878048780488,-3.231707317073171,12.74390243902439,3.232421875,-0.123046875,-1.4873046875
82,0.246,IMU1,5.426829268292684,-4.51219512195122,12.987804878048781,3.2021484375,-0.0673828125,-1.47265625
83,0.246,IMU2,3.2926829268292686,-2.804878048780488,12.500000000000002,3.2099609375,-0.1171875,-1.4580078125
84,0.256,IMU0,2.25609756097561,-1.707317073170732,11.219512195121952,3.197265625,-0.06640625,-1.4619140625
85,0.256,IMU1,4.939024390243903,-2.7439024390243905,11.341463414634147,3.15625,-0.029296875,-1.43359375
86,0.256,IMU2,3.414634146341464,-1.0975609756097562,10.853658536585368,3.1650390625,-0.0693359375,-1.421875
87,0.266,IMU0,2.5,-0.3658536585365854,10.731707317073171,3.1650390625,-0.111328125,-1.443359375
88,0.266,IMU1,5.182926829268293,-1.707317073170732,10.792682926829269,3.142578125,-0.0673828125,-1.42578125
89,0.266,IMU2,3.1707317073170733,0.1829268292682927,10.365853658536587,3.14453125,-0.1123046875,-1.4072265625
90,0.276,IMU0,2.6219512195121952,1.0975609756097562,10.792682926829269,3.169921875,-0.099609375,-1.423828125
91,0.276,IMU1,4.878048780487806,-0.3658536585365854,10.914634146341465,3.1435546875,-0.04296875,-1.419921875
92,0.276,IMU2,3.1097560975609757,1.2804878048780488,10.487804878048781,3.1533203125,-0.095703125,-1.4091796875
93,0.286,IMU0,1.6463414634146343,1.0975609756097562,8.292682926829269,3.14453125,-0.0771484375,-1.41015625
94,0.286,IMU1,4.024390243902439,-0.30487804878048785,8.475609756097562,3.103515625,-0.0390625,-1.41015625
95,0.286,IMU2,2.073170731707317,1.5853658536585367,8.048780487804878,3.11328125,-0.076171875,-1.400390625
96,0.296,IMU0,0.24390243902439027,1.4634146341463417,4.573170731707317,3.138671875,-0.1298828125,-1.4169921875
97,0.296,IMU1,2.5609756097560976,0.12195121951219513,4.817073170731708,3.111328125,-0.0888671875,-1.41796875
98,0.296,IMU2,0.9756097560975611,1.707317073170732,4.329268292682928,3.107421875,-0.1259765625,-1.3994140625
99,0.306,IMU0,1.2195121951219514,2.8658536585365857,4.634146341463415,3.1142578125,-0.0361328125,-1.4296875
100,0.306,IMU1,2.987804878048781,1.402439024390244,4.878048780487806,3.0888671875,0.0048828125,-1.4228515625
101,0.306,IMU2,2.1341463414634148,2.987804878048781,4.329268292682928,3.099609375,-0.033203125,-1.41796875
102,0.316,IMU0,2.9268292682926833,4.695121951219512,8.902439024390244,3.1181640625,-0.052734375,-1.41015625
103,0.316,IMU1,2.987804878048781,1.402439024390244,4.878048780487806,3.0888671875,0.0048828125,-1.4228515625
104,0.316,IMU2,3.8414634146341466,5.060975609756098,8.658536585365855,3.103515625,-0.05078125,-1.388671875
105,0.326,IMU0,2.073170731707317,5.426829268292684,6.707317073170732,3.123046875,-0.0849609375,-1.4423828125
106,0.326,IMU1,3.963414634146342,4.2682926829268295,6.890243902439025,3.08984375,-0.0439453125,-1.4306640625
107,0.326,IMU2,3.1707317073170733,5.7926829268292686,6.341463414634147,3.10546875,-0.0810546875,-1.419921875
108,0.336,IMU0,1.1585365853658538,6.2804878048780495,4.695121951219512,3.119140625,-0.1064453125,-1.4521484375
109,0.336,IMU1,3.231707317073171,5.060975609756098,5.0,3.08984375,-0.0693359375,-1.435546875
110,0.336,IMU2,2.0121951219512195,6.646341463414635,4.390243902439025,3.0849609375,-0.09765625,-1.431640625
111,0.346,IMU0,-0.6707317073170732,8.597560975609756,0.7926829268292683,3.072265625,-0.12890625,-1.4443359375
112,0.346,IMU1,1.3414634146341464,7.25609756097561,0.9756097560975611,3.0419921875,-0.087890625,-1.4228515625
113,0.346,IMU2,0.24390243902439027,8.841463414634147,0.48780487804878053,3.05078125,-0.12109375,-1.419921875
114,0.356,IMU0,-0.853658536585366,11.341463414634147,0.30487804878048785,3.0126953125,-0.09375,-1.431640625
115,0.356,IMU1,1.402439024390244,10.121951219512196,0.426829268292683,2.98046875,-0.044921875,-1.4296875
116,0.356,IMU2,-0.24390243902439027,11.829268292682928,0.0,2.9970703125,-0.0966796875,-1.421875
117,0.366,IMU0,-0.7317073170731708,12.378048780487806,-0.06097560975609757,2.984375,-0.1201171875,-1.45703125
118,0.366,IMU1,1.3414634146341464,11.402439024390246,0.12195121951219513,2.962890625,-0.080078125,-1.4521484375
119,0.366,IMU2,-0.12195121951219513,13.04878048780488,-0.30487804878048785,2.95703125,-0.12109375,-1.4423828125
120,0.376,IMU0,-1.4634146341463417,12.500000000000002,-1.8902439024390245,2.9404296875,-0.1396484375,-1.443359375
121,0.376,IMU1,0.3658536585365854,11.52439024390244,-1.5853658536585367,2.9208984375,-0.0927734375,-1.423828125
122,0.376,IMU2,-0.9756097560975611,12.926829268292684,-2.1341463414634148,2.9111328125,-0.14453125,-1.43359375
123,0.386,IMU0,-2.0121951219512195,11.52439024390244,-2.3170731707317076,2.8955078125,-0.087890625,-1.4501953125
124,0.386,IMU1,-0.1829268292682927,10.731707317073171,-2.0121951219512195,2.859375,-0.0361328125,-1.4365234375
125,0.386,IMU2,-1.7682926829268295,12.073170731707318,-2.5609756097560976,2.8896484375,-0.0947265625,-1.4326171875
126,0.396,IMU0,-1.4634146341463417,11.951219512195124,0.0,2.802734375,-0.1025390625,-1.427734375
127,0.396,IMU1,0.06097560975609757,11.402439024390246,0.24390243902439027,2.7705078125,-0.068359375,-1.41796875
128,0.396,IMU2,-0.7926829268292683,12.682926829268293,-0.24390243902439027,2.783203125,-0.083984375,-1.41796875
129,0.406,IMU0,-1.1585365853658538,12.926829268292684,0.12195121951219513,2.7705078125,-0.1318359375,-1.4326171875
130,0.406,IMU1,0.3658536585365854,12.01219512195122,0.426829268292683,2.7529296875,-0.08984375,-1.431640625
131,0.406,IMU2,-0.24390243902439027,13.78048780487805,-0.1829268292682927,2.7353515625,-0.1279296875,-1.416015625
132,0.416,IMU0,-1.6463414634146343,13.78048780487805,-0.1829268292682927,2.79296875,-0.099609375,-1.4384765625
133,0.416,IMU1,0.6707317073170732,12.865853658536587,0.1829268292682927,2.76953125,-0.0439453125,-1.41796875
134,0.416,IMU2,-1.402439024390244,14.756097560975611,-0.426829268292683,2.7763671875,-0.115234375,-1.4130859375
135,0.426,IMU0,-2.378048780487805,12.195121951219512,-0.7926829268292683,2.75390625,-0.0419921875,-1.4228515625
136,0.426,IMU1,0.1829268292682927,11.158536585365855,-0.6707317073170732,2.720703125,-0.005859375,-1.3984375
137,0.426,IMU2,-1.2804878048780488,12.865853658536587,-1.1585365853658538,2.7490234375,-0.0390625,-1.404296875
138,0.436,IMU0,-1.5853658536585367,10.792682926829269,0.30487804878048785,2.7099609375,-0.0849609375,-1.4091796875
139,0.436,IMU1,0.7317073170731708,9.695121951219512,0.426829268292683,2.6865234375,-0.05859375,-1.39453125
140,0.436,IMU2,-0.24390243902439027,11.036585365853659,0.12195121951219513,2.6845703125,-0.0634765625,-1.3779296875
141,0.446,IMU0,-0.7926829268292683,9.817073170731708,3.1707317073170733,2.703125,-0.0595703125,-1.3779296875
142,0.446,IMU1,1.829268292682927,8.841463414634147,3.353658536585366,2.68359375,-0.0185546875,-1.3779296875
143,0.446,IMU2,0.48780487804878053,9.939024390243903,2.8658536585365857,2.67578125,-0.072265625,-1.3515625
144,0.456,IMU0,-1.3414634146341464,7.195121951219513,2.3170731707317076,2.69140625,-0.0341796875,-1.3662109375
145,0.456,IMU1,1.1585365853658538,6.402439024390245,2.5609756097560976,2.6611328125,0.005859375,-1.361328125
146,0.456,IMU2,-0.426829268292683,7.621951219512196,1.7682926829268295,2.66796875,-0.056640625,-1.3525390625
147,0.466,IMU0,-0.853658536585366,6.158536585365854,0.9756097560975611,2.580078125,-0.015625,-1.361328125
148,0.466,IMU1,1.3414634146341464,5.060975609756098,1.2804878048780488,2.5498046875,0.015625,-1.3623046875
149,0.466,IMU2,-0.426829268292683,6.7682926829268295,0.7317073170731708,2.5673828125,-0.0166015625,-1.349609375
150,0.476,IMU0,-1.0975609756097562,8.658536585365855,-0.6707317073170732,2.541015625,-0.0693359375,-1.3505859375
151,0.476,IMU1,1.2804878048780488,7.621951219512196,-0.426829268292683,2.51953125,-0.03125,-1.3515625
152,0.476,IMU2,-0.6707317073170732,9.146341463414634,-0.853658536585366,2.5146484375,-0.0478515625,-1.328125
153,0.486,IMU0,-1.402439024390244,10.365853658536587,-0.5487804878048781,2.5361328125,-0.064453125,-1.3271484375
154,0.486,IMU1,0.9146341463414634,9.634146341463415,-0.24390243902439027,2.5166015625,-0.0234375,-1.3330078125
155,0.486,IMU2,-1.2195121951219514,10.914634146341465,-0.7317073170731708,2.5078125,-0.0751953125,-1.31640625
156,0.496,IMU0,-0.853658536585366,10.365853658536587,0.6097560975609757,2.51953125,-0.048828125,-1.2783203125
157,0.496,IMU1,1.5853658536585367,9.390243902439025,0.7926829268292683,2.4912109375,-0.0068359375,-1.2724609375
158,0.496,IMU2,-0.426829268292683,10.853658536585368,0.1829268292682927,2.501953125,-0.05859375,-1.279296875
159,0.506,IMU0,-0.9146341463414634,8.292682926829269,1.4634146341463417,2.4736328125,-0.021484375,-1.2763671875
160,0.506,IMU1,1.5853658536585367,7.378048780487806,1.6463414634146343,2.447265625,0.015625,-1.2607421875
161,0.506,IMU2,0.1829268292682927,8.475609756097562,1.3414634146341464,2.4658203125,-0.0234375,-1.2666015625
162,0.516,IMU0,-0.30487804878048785,8.170731707317074,3.048780487804878,2.4169921875,-0.060546875,-1.306640625
163,0.516,IMU1,1.8902439024390245,7.317073170731708,3.231707317073171,2.3935546875,-0.029296875,-1.287109375
164,0.516,IMU2,0.7317073170731708,8.841463414634147,2.9268292682926833,2.40234375,-0.0390625,-1.267578125
165,0.526,IMU0,0.12195121951219513,9.817073170731708,3.4756097560975614,2.419921875,-0.1005859375,-1.25390625
166,0.526,IMU1,2.073170731707317,8.902439024390244,3.780487804878049,2.3974609375,-0.068359375,-1.26171875
167,0.526,IMU2,0.3658536585365854,10.487804878048781,3.048780487804878,2.373046875,-0.1064453125,-1.2333984375
168,0.536,IMU0,-1.8902439024390245,9.02439024390244,-0.7926829268292683,2.380859375,-0.0478515625,-1.2197265625
169,0.536,IMU1,-0.06097560975609757,8.048780487804878,-0.48780487804878053,2.361328125,-0.0087890625,-1.22265625
170,0.536,IMU2,-1.0975609756097562,9.146341463414634,-1.1585365853658538,2.3505859375,-0.072265625,-1.220703125
171,0.546,IMU0,-1.7682926829268295,10.914634146341465,-0.853658536585366,2.3349609375,-0.0302734375,-1.244140625
172,0.546,IMU1,0.6097560975609757,9.695121951219512,-0.6097560975609757,2.306640625,0.00390625,-1.240234375
173,0.546,IMU2,-1.524390243902439,10.670731707317074,-1.2804878048780488,2.3251953125,-0.037109375,-1.240234375
174,0.556,IMU0,-1.0365853658536586,14.207317073170733,1.0975609756097562,2.3203125,-0.0859375,-1.24609375
175,0.556,IMU1,1.3414634146341464,12.865853658536587,1.2804878048780488,2.296875,-0.0517578125,-1.240234375
176,0.556,IMU2,0.1829268292682927,14.146341463414636,0.853658536585366,2.3125,-0.05859375,-1.2265625
177,0.566,IMU0,-0.9756097560975611,13.170731707317074,1.0975609756097562,2.302734375,-0.0810546875,-1.201171875
178,0.566,IMU1,1.2804878048780488,12.01219512195122,1.1585365853658538,2.2919921875,-0.04296875,-1.1962890625
179,0.566,IMU2,0.30487804878048785,13.658536585365855,1.0365853658536586,2.279296875,-0.0732421875,-1.181640625
180,0.576,IMU0,-1.829268292682927,13.109756097560977,0.853658536585366,2.2841796875,-0.05078125,-1.22265625
181,0.576,IMU1,0.24390243902439027,12.073170731707318,1.1585365853658538,2.2626953125,-0.01171875,-1.2001953125
182,0.576,IMU2,-1.2804878048780488,14.207317073170733,0.426829268292683,2.2412109375,-0.0615234375,-1.185546875
183,0.586,IMU0,-0.24390243902439027,15.79268292682927,2.5,2.25390625,-0.0498046875,-1.2158203125
184,0.586,IMU1,1.7682926829268295,14.634146341463415,2.804878048780488,2.2255859375,-0.01953125,-1.203125
185,0.586,IMU2,-0.12195121951219513,17.25609756097561,2.378048780487805,2.26171875,-0.05859375,-1.203125
186,0.596,IMU0,-0.24390243902439027,16.76829268292683,3.780487804878049,2.25390625,-0.0517578125,-1.171875
187,0.596,IMU1,1.524390243902439,15.609756097560977,3.963414634146342,2.2314453125,-0.0244140625,-1.177734375
188,0.596,IMU2,0.6097560975609757,17.25609756097561,3.7195121951219514,2.2529296875,-0.044921875,-1.1767578125
189,0.606,IMU0,-0.24390243902439027,17.195121951219512,4.024390243902439,2.23828125,-0.076171875,-1.1484375
190,0.606,IMU1,1.9512195121951221,15.975609756097562,4.024390243902439,2.21875,-0.0439453125,-1.14453125
191,0.606,IMU2,0.3658536585365854,17.804878048780488,3.536585365853659,2.203125,-0.0625,-1.1357421875
192,0.616,IMU0,-0.7926829268292683,17.5,1.2804878048780488,2.24609375,-0.0546875,-1.181640625
193,0.616,IMU1,1.3414634146341464,16.34146341463415,1.524390243902439,2.228515625,-0.015625,-1.15234375
194,0.616,IMU2,-0.30487804878048785,18.10975609756098,1.1585365853658538,2.197265625,-0.0703125,-1.154296875
195,0.626,IMU0,-1.1585365853658538,17.865853658536587,0.3658536585365854,2.1875,-0.041015625,-1.201171875
196,0.626,IMU1,1.2195121951219514,17.012195121951223,0.5487804878048781,2.1728515625,-0.0244140625,-1.21484375
197,0.626,IMU2,-0.12195121951219513,18.84146341463415,0.1829268292682927,2.1787109375,-0.0576171875,-1.201171875
198,0.636,IMU0,0.06097560975609757,20.365853658536587,2.8658536585365857,2.1396484375,-0.0185546875,-1.1513671875
199,0.636,IMU1,2.9268292682926833,18.963414634146343,3.2926829268292686,2.1171875,0.0068359375,-1.1728515625
200,0.636,IMU2,0.853658536585366,21.03658536585366,2.9268292682926833,2.142578125,-0.0244140625,-1.1875
201,0.646,IMU0,0.6097560975609757,22.134146341463417,0.6097560975609757,2.1533203125,-0.0654296875,-1.1953125
202,0.646,IMU1,2.25609756097561,20.853658536585368,0.7317073170731708,2.12109375,-0.0107421875,-1.1826171875
203,0.646,IMU2,0.9146341463414634,22.80487804878049,0.1829268292682927,2.119140625,-0.044921875,-1.1845703125
204,0.656,IMU0,0.426829268292683,23.353658536585368,-2.5,2.1591796875,-0.0556640625,-1.1953125
205,0.656,IMU1,2.1341463414634148,22.073170731707318,-2.1951219512195124,2.11328125,-0.0205078125,-1.1845703125
206,0.656,IMU2,1.524390243902439,23.719512195121954,-2.682926829268293,2.11328125,-0.0517578125,-1.1767578125
207,0.666,IMU0,1.1585365853658538,25.60975609756098,-1.829268292682927,2.1220703125,-0.044921875,-1.1962890625
208,0.666,IMU1,3.048780487804878,24.512195121951223,-1.5853658536585367,2.0986328125,-0.0517578125,-1.2060546875
209,0.666,IMU2,2.073170731707317,26.34146341463415,-2.0121951219512195,2.099609375,-0.0849609375,-1.1982421875
210,0.676,IMU0,0.9756097560975611,29.26829268292683,-1.7682926829268295,2.154296875,-0.0380859375,-1.2177734375
211,0.676,IMU1,2.9268292682926833,28.59756097560976,-1.5853658536585367,2.1552734375,-0.0146484375,-1.208984375
212,0.676,IMU2,1.7682926829268295,30.121951219512198,-2.0121951219512195,2.1640625,-0.0576171875,-1.201171875
213,0.686,IMU0,1.7682926829268295,30.54878048780488,-0.06097560975609757,2.1708984375,-0.068359375,-1.2138671875
214,0.686,IMU1,3.1707317073170733,29.02439024390244,0.1829268292682927,2.1640625,-0.0048828125,-1.205078125
215,0.686,IMU2,2.8658536585365857,30.731707317073173,-0.3658536585365854,2.1748046875,-0.0390625,-1.193359375
216,0.696,IMU0,-0.853658536585366,28.414634146341466,-1.829268292682927,2.1298828125,-0.044921875,-1.2041015625
217,0.696,IMU1,1.0975609756097562,27.012195121951223,-1.2195121951219514,2.08984375,0.025390625,-1.1962890625
218,0.696,IMU2,0.24390243902439027,28.84146341463415,-1.6463414634146343,2.09765625,0.001953125,-1.1943359375
219,0.706,IMU0,1.0365853658536586,29.26829268292683,2.0121951219512195,2.130859375,-0.037109375,-1.2431640625
220,0.706,IMU1,3.658536585365854,28.414634146341466,2.3170731707317076,2.091796875,-0.0205078125,-1.2216796875
221,0.706,IMU2,2.25609756097561,30.243902439024392,2.0121951219512195,2.0927734375,-0.0439453125,-1.19921875
222,0.716,IMU0,0.24390243902439027,30.60975609756098,2.25609756097561,2.1533203125,-0.0146484375,-1.1708984375
223,0.716,IMU1,2.073170731707317,30.121951219512198,2.5,2.1318359375,-0.01171875,-1.173828125
224,0.716,IMU2,1.2195121951219514,31.58536585365854,2.1341463414634148,2.1376953125,-0.01953125,-1.1708984375
225,0.726,IMU0,0.426829268292683,29.512195121951223,1.524390243902439,2.1103515625,-0.0634765625,-1.1845703125
226,0.726,IMU1,2.5,28.59756097560976,1.524390243902439,2.099609375,-0.044921875,-1.19921875
227,0.726,IMU2,1.0975609756097562,30.0609756097561,1.0975609756097562,2.103515625,-0.0830078125,-1.19921875
228,0.736,IMU0,-2.073170731707317,31.34146341463415,-2.5609756097560976,2.087890625,-0.0810546875,-1.1982421875
229,0.736,IMU1,-0.30487804878048785,30.426829268292686,-2.682926829268293,2.0693359375,-0.02734375,-1.2060546875
230,0.736,IMU2,-1.402439024390244,32.13414634146342,-3.2926829268292686,2.052734375,-0.080078125,-1.1923828125
231,0.746,IMU0,-0.7317073170731708,31.52439024390244,-2.073170731707317,2.12109375,-0.0625,-1.1796875
232,0.746,IMU1,0.6707317073170732,29.81707317073171,-1.707317073170732,2.1259765625,-0.0107421875,-1.1640625
233,0.746,IMU2,-0.48780487804878053,31.280487804878053,-2.1341463414634148,2.1376953125,-0.046875,-1.142578125
234,0.756,IMU0,-0.7317073170731708,24.939024390243905,1.7682926829268295,2.0947265625,-0.0283203125,-1.1513671875
235,0.756,IMU1,1.4634146341463417,23.78048780487805,2.439024390243903,2.0888671875,0.0078125,-1.142578125
236,0.756,IMU2,0.7926829268292683,25.121951219512198,2.073170731707317,2.083984375,-0.0322265625,-1.1455078125
237,0.766,IMU0,-1.0975609756097562,22.865853658536587,1.829268292682927,2.0517578125,-0.0703125,-1.23046875
238,0.766,IMU1,1.2195121951219514,22.134146341463417,1.9512195121951221,2.0009765625,-0.041015625,-1.1982421875
239,0.766,IMU2,0.12195121951219513,23.658536585365855,1.5853658536585367,2.0302734375,-0.0673828125,-1.2021484375
240,0.776,IMU0,-1.5853658536585367,26.219512195121954,1.0365853658536586,2.0458984375,-0.0615234375,-1.23828125
241,0.776,IMU1,0.7317073170731708,25.54878048780488,1.3414634146341464,2.0009765625,-0.0244140625,-1.232421875
242,0.776,IMU2,-0.12195121951219513,26.402439024390247,1.1585365853658538,2.01171875,-0.0634765625,-1.216796875
243,0.786,IMU0,-0.7926829268292683,30.60975609756098,2.439024390243903,1.990234375,-0.037109375,-1.1904296875
244,0.786,IMU1,1.0365853658536586,29.87804878048781,2.5609756097560976,1.98046875,0.0,-1.1787109375
245,0.786,IMU2,-0.5487804878048781,31.82926829268293,2.439024390243903,1.9853515625,-0.03125,-1.169921875
246,0.796,IMU0,0.0,35.54878048780488,2.9268292682926833,2.080078125,-0.021484375,-1.224609375
247,0.796,IMU1,1.524390243902439,34.57317073170732,3.1707317073170733,2.05859375,0.015625,-1.2119140625
248,0.796,IMU2,-0.1829268292682927,35.97560975609756,2.682926829268293,2.041015625,0.00390625,-1.22265625
249,0.806,IMU0,0.0,35.426829268292686,1.2804878048780488,2.0966796875,-0.0732421875,-1.2119140625
250,0.806,IMU1,1.8902439024390245,34.451219512195124,1.5853658536585367,2.0615234375,-0.0341796875,-1.216796875
251,0.806,IMU2,0.48780487804878053,36.21951219512196,0.9756097560975611,2.0302734375,-0.080078125,-1.205078125
252,0.816,IMU0,0.06097560975609757,35.91463414634147,-2.1951219512195124,2.091796875,-0.091796875,-1.2431640625
253,0.816,IMU1,1.402439024390244,35.0609756097561,-1.829268292682927,2.0576171875,-0.068359375,-1.23828125
254,0.816,IMU2,0.9146341463414634,36.40243902439025,-2.25609756097561,2.0703125,-0.1181640625,-1.2177734375
255,0.826,IMU0,0.06097560975609757,36.646341463414636,-2.804878048780488,2.099609375,-0.0859375,-1.255859375
256,0.826,IMU1,1.7682926829268295,35.54878048780488,-2.5609756097560976,2.087890625,-0.0595703125,-1.240234375
257,0.826,IMU2,0.6097560975609757,37.07317073170732,-3.1707317073170733,2.1220703125,-0.09375,-1.251953125
258,0.836,IMU0,0.12195121951219513,36.58536585365854,-1.4634146341463417,2.1396484375,-0.072265625,-1.25
259,0.836,IMU1,2.0121951219512195,35.54878048780488,-1.1585365853658538,2.130859375,-0.041015625,-1.248046875
260,0.836,IMU2,1.4634146341463417,37.07317073170732,-1.7682926829268295,2.1435546875,-0.0517578125,-1.2470703125
261,0.846,IMU0,0.6707317073170732,35.79268292682927,-0.1829268292682927,2.1357421875,-0.0810546875,-1.291015625
262,0.846,IMU1,2.378048780487805,34.390243902439025,0.1829268292682927,2.1162109375,-0.0400390625,-1.279296875
263,0.846,IMU2,1.4634146341463417,35.97560975609756,-0.12195121951219513,2.0947265625,-0.06640625,-1.2646484375
264,0.856,IMU0,0.48780487804878053,37.25609756097561,0.426829268292683,2.0576171875,-0.0263671875,-1.275390625
265,0.856,IMU1,1.707317073170732,36.09756097560976,0.7926829268292683,2.029296875,0.0048828125,-1.255859375
266,0.856,IMU2,0.6707317073170732,37.43902439024391,0.24390243902439027,2.0205078125,-0.0322265625,-1.2509765625
267,0.866,IMU0,0.3658536585365854,40.54878048780488,0.7926829268292683,2.029296875,-0.025390625,-1.2900390625
268,0.866,IMU1,1.5853658536585367,39.207317073170735,1.0975609756097562,2.0048828125,0.0009765625,-1.2861328125
269,0.866,IMU2,0.426829268292683,40.60975609756098,0.5487804878048781,2.0126953125,-0.048828125,-1.28125
270,0.876,IMU0,1.7682926829268295,41.707317073170735,3.048780487804878,2.0380859375,-0.0087890625,-1.3115234375
271,0.876,IMU1,2.7439024390243905,40.426829268292686,3.353658536585366,2.01171875,0.013671875,-1.30859375
272,0.876,IMU2,1.829268292682927,41.951219512195124,2.9268292682926833,2.025390625,-0.0234375,-1.3203125
273,0.886,IMU0,0.7926829268292683,40.243902439024396,1.5853658536585367,2.0400390625,-0.0546875,-1.322265625
274,0.886,IMU1,2.0121951219512195,39.451219512195124,1.829268292682927,2.01953125,-0.0263671875,-1.3203125
275,0.886,IMU2,1.0365853658536586,40.91463414634147,1.4634146341463417,2.037109375,-0.0546875,-1.3046875
276,0.896,IMU0,-0.5487804878048781,36.646341463414636,0.0,2.0380859375,-0.056640625,-1.310546875
277,0.896,IMU1,1.0975609756097562,36.15853658536586,0.30487804878048785,2.0224609375,-0.0244140625,-1.3212890625
278,0.896,IMU2,-0.3658536585365854,37.5,0.0,2.0361328125,-0.0478515625,-1.3134765625
279,0.906,IMU0,-0.6097560975609757,33.170731707317074,-1.0365853658536586,2.0380859375,-0.04296875,-1.349609375
280,0.906,IMU1,1.7682926829268295,32.37804878048781,-0.7926829268292683,2.017578125,-0.009765625,-1.3212890625
281,0.906,IMU2,-0.12195121951219513,33.90243902439025,-1.0365853658536586,2.0146484375,-0.0283203125,-1.322265625
282,0.916,IMU0,-0.7926829268292683,31.646341463414636,-0.9146341463414634,2.0,-0.02734375,-1.291015625
283,0.916,IMU1,1.2195121951219514,31.09756097560976,-0.6707317073170732,1.98046875,0.0029296875,-1.2939453125
284,0.916,IMU2,0.24390243902439027,32.31707317073171,-1.0365853658536586,1.97265625,-0.0341796875,-1.2763671875
285,0.926,IMU0,-0.7926829268292683,30.243902439024392,0.12195121951219513,1.9716796875,-0.048828125,-1.2490234375
286,0.926,IMU1,0.9146341463414634,29.573170731707318,0.426829268292683,1.9443359375,-0.0224609375,-1.25
287,0.926,IMU2,0.24390243902439027,30.853658536585368,-0.12195121951219513,1.9453125,-0.056640625,-1.251953125
288,0.936,IMU0,-0.7926829268292683,29.75609756097561,1.2804878048780488,1.8994140625,-0.0693359375,-1.251953125
289,0.936,IMU1,0.9756097560975611,28.780487804878053,1.524390243902439,1.87890625,-0.04296875,-1.2353515625
290,0.936,IMU2,0.1829268292682927,30.0609756097561,0.9756097560975611,1.880859375,-0.08203125,-1.2373046875
291,0.946,IMU0,-1.5853658536585367,31.58536585365854,0.06097560975609757,1.8115234375,-0.0615234375,-1.2529296875
292,0.946,IMU1,0.0,30.487804878048784,0.30487804878048785,1.794921875,-0.04296875,-1.2578125
293,0.946,IMU2,-1.2195121951219514,32.19512195121951,-0.1829268292682927,1.80078125,-0.0791015625,-1.2451171875
294,0.956,IMU0,0.0,31.89024390243903,1.829268292682927,1.7958984375,-0.0791015625,-1.25
295,0.956,IMU1,1.829268292682927,30.487804878048784,2.1341463414634148,1.7763671875,-0.0517578125,-1.228515625
296,0.956,IMU2,1.1585365853658538,32.37804878048781,1.5853658536585367,1.7841796875,-0.0791015625,-1.2392578125
297,0.966,IMU0,-0.5487804878048781,32.86585365853659,1.6463414634146343,1.7822265625,-0.1171875,-1.232421875
298,0.966,IMU1,1.402439024390244,31.280487804878053,1.9512195121951221,1.7626953125,-0.0888671875,-1.2333984375
299,0.966,IMU2,0.12195121951219513,33.29268292682927,1.6463414634146343,1.7607421875,-0.1162109375,-1.2177734375
300,0.976,IMU0,-1.402439024390244,32.19512195121951,-1.5853658536585367,1.78515625,-0.0927734375,-1.23828125
301,0.976,IMU1,0.48780487804878053,30.914634146341466,-1.2195121951219514,1.7666015625,-0.064453125,-1.2177734375
302,0.976,IMU2,-0.3658536585365854,32.6829268292683,-1.707317073170732,1.7685546875,-0.0888671875,-1.2197265625
303,0.986,IMU0,-1.5853658536585367,31.707317073170735,-2.073170731707317,1.7861328125,-0.0908203125,-1.23046875
304,0.986,IMU1,-0.06097560975609757,30.670731707317074,-1.7682926829268295,1.77734375,-0.0634765625,-1.2236328125
305,0.986,IMU2,-0.853658536585366,32.13414634146342,-2.25609756097561,1.78515625,-0.0927734375,-1.2216796875
306,0.996,IMU0,1.2804878048780488,28.84146341463415,2.3170731707317076,1.75390625,-0.0927734375,-1.2177734375
307,0.996,IMU1,3.048780487804878,27.621951219512198,2.5609756097560976,1.744140625,-0.0595703125,-1.2236328125
308,0.996,IMU2,2.0121951219512195,28.963414634146343,2.073170731707317,1.7490234375,-0.0849609375,-1.23046875
309,1.006,IMU0,1.2804878048780488,27.987804878048784,3.353658536585366,1.697265625,-0.0947265625,-1.23828125
310,1.006,IMU1,3.1097560975609757,26.89024390243903,3.658536585365854,1.673828125,-0.06640625,-1.2216796875
311,1.006,IMU2,1.707317073170732,28.475609756097562,3.231707317073171,1.671875,-0.0927734375,-1.2158203125
312,1.016,IMU0,1.9512195121951221,30.000000000000004,2.9268292682926833,1.6875,-0.076171875,-1.2568359375
313,1.016,IMU1,3.9024390243902443,28.963414634146343,3.231707317073171,1.6572265625,-0.046875,-1.2529296875
314,1.016,IMU2,2.987804878048781,30.54878048780488,2.804878048780488,1.6513671875,-0.0751953125,-1.2607421875
315,1.026,IMU0,2.0121951219512195,31.03658536585366,2.073170731707317,1.67578125,-0.115234375,-1.2919921875
316,1.026,IMU1,3.7195121951219514,29.87804878048781,2.378048780487805,1.642578125,-0.103515625,-1.275390625
317,1.026,IMU2,2.8658536585365857,31.52439024390244,1.9512195121951221,1.63671875,-0.1328125,-1.259765625
318,1.036,IMU0,1.4634146341463417,32.07317073170732,-0.3658536585365854,1.7236328125,-0.1318359375,-1.296875
319,1.036,IMU1,2.8658536585365857,31.09756097560976,-0.06097560975609757,1.705078125,-0.1083984375,-1.2802734375
320,1.036,IMU2,2.1341463414634148,32.6219512195122,-0.5487804878048781,1.7041015625,-0.1376953125,-1.2763671875
321,1.046,IMU0,0.5487804878048781,28.719512195121954,-0.9146341463414634,1.7998046875,-0.1181640625,-1.341796875
322,1.046,IMU1,2.25609756097561,27.743902439024392,-0.6707317073170732,1.7880859375,-0.091796875,-1.3388671875
323,1.046,IMU2,0.7317073170731708,29.573170731707318,-1.0365853658536586,1.7900390625,-0.12109375,-1.3369140625
324,1.056,IMU0,1.1585365853658538,26.158536585365855,1.6463414634146343,1.8310546875,-0.14453125,-1.341796875
325,1.056,IMU1,2.804878048780488,25.426829268292686,2.0121951219512195,1.81640625,-0.11328125,-1.34375
326,1.056,IMU2,1.7682926829268295,26.82926829268293,1.5853658536585367,1.8154296875,-0.14453125,-1.3359375
327,1.066,IMU0,-1.829268292682927,24.26829268292683,-0.6097560975609757,1.8408203125,-0.109375,-1.384765625
328,1.066,IMU1,-0.24390243902439027,23.475609756097562,-0.3658536585365854,1.8232421875,-0.0791015625,-1.3759765625
329,1.066,IMU2,-1.1585365853658538,24.75609756097561,-0.7926829268292683,1.8291015625,-0.1103515625,-1.36328125
330,1.076,IMU0,-2.0121951219512195,23.353658536585368,2.25609756097561,1.8447265625,-0.0322265625,-1.365234375
331,1.076,IMU1,-0.48780487804878053,22.378048780487806,2.5,1.826171875,0.005859375,-1.357421875
332,1.076,IMU2,-1.2195121951219514,23.59756097560976,2.0121951219512195,1.83203125,-0.029296875,-1.3486328125
333,1.086,IMU0,-2.6219512195121952,19.634146341463417,3.1097560975609757,1.8017578125,-0.0390625,-1.302734375
334,1.086,IMU1,-1.2195121951219514,18.84146341463415,3.353658536585366,1.779296875,-0.0146484375,-1.30078125
335,1.086,IMU2,-1.5853658536585367,20.0609756097561,2.7439024390243905,1.779296875,-0.041015625,-1.3037109375
336,1.096,IMU0,-1.7682926829268295,19.451219512195124,5.487804878048781,1.728515625,0.017578125,-1.3623046875
337,1.096,IMU1,0.1829268292682927,18.597560975609756,5.548780487804878,1.703125,0.037109375,-1.3515625
338,1.096,IMU2,-0.48780487804878053,19.939024390243905,5.121951219512195,1.7119140625,0.013671875,-1.3486328125
339,1.106,IMU0,-1.9512195121951221,18.719512195121954,3.963414634146342,1.7802734375,-0.0673828125,-1.3203125
340,1.106,IMU1,0.3658536585365854,18.170731707317074,4.207317073170732,1.75,-0.0361328125,-1.3125
341,1.106,IMU2,-1.0975609756097562,19.695121951219512,3.7195121951219514,1.7421875,-0.0712890625,-1.291015625
342,1.116,IMU0,-3.780487804878049,15.182926829268293,-0.9756097560975611,1.7685546875,-0.0146484375,-1.2734375
343,1.116,IMU1,-1.829268292682927,14.207317073170733,-0.6707317073170732,1.744140625,-0.0009765625,-1.27734375
344,1.116,IMU2,-2.9268292682926833,15.609756097560977,-1.1585365853658538,1.740234375,-0.015625,-1.27734375
345,1.126,IMU0,-2.987804878048781,12.682926829268293,-0.06097560975609757,1.736328125,-0.0126953125,-1.314453125
346,1.126,IMU1,-0.9146341463414634,11.219512195121952,0.0,1.71875,0.0068359375,-1.30078125
347,1.126,IMU2,-2.25609756097561,12.865853658536587,-0.3658536585365854,1.7216796875,-0.0087890625,-1.296875
348,1.136,IMU0,-2.073170731707317,12.621951219512196,2.378048780487805,1.7236328125,-0.0068359375,-1.314453125
349,1.136,IMU1,-0.48780487804878053,11.52439024390244,2.5,1.716796875,0.025390625,-1.326171875
350,1.136,IMU2,-2.0121951219512195,13.04878048780488,2.1951219512195124,1.71484375,-0.013671875,-1.3154296875
351,1.146,IMU0,-1.524390243902439,12.256097560975611,2.987804878048781,1.740234375,-0.072265625,-1.34765625
352,1.146,IMU1,0.24390243902439027,10.914634146341465,3.231707317073171,1.720703125,-0.0439453125,-1.3291015625
353,1.146,IMU2,-1.3414634146341464,12.74390243902439,2.7439024390243905,1.7197265625,-0.0751953125,-1.3212890625
354,1.156,IMU0,-1.0975609756097562,11.158536585365855,2.25609756097561,1.7578125,-0.0439453125,-1.3056640625
355,1.156,IMU1,0.24390243902439027,10.24390243902439,2.5609756097560976,1.732421875,-0.0087890625,-1.2958984375
356,1.156,IMU2,-0.5487804878048781,11.829268292682928,1.9512195121951221,1.744140625,-0.052734375,-1.29296875
357,1.166,IMU0,-2.378048780487805,11.097560975609756,1.8902439024390245,1.77734375,-0.00390625,-1.2783203125
358,1.166,IMU1,-0.5487804878048781,9.634146341463415,2.1341463414634148,1.75390625,0.0205078125,-1.2783203125
359,1.166,IMU2,-1.402439024390244,11.341463414634147,1.5853658536585367,1.7646484375,-0.01171875,-1.2744140625
360,1.176,IMU0,-0.853658536585366,10.914634146341465,3.9024390243902443,1.8115234375,-0.0244140625,-1.2861328125
361,1.176,IMU1,1.402439024390244,10.060975609756099,4.146341463414634,1.779296875,-0.0078125,-1.2666015625
362,1.176,IMU2,0.30487804878048785,11.76829268292683,3.536585365853659,1.7998046875,-0.0166015625,-1.27734375
363,1.186,IMU0,-0.3658536585365854,11.402439024390246,4.146341463414634,1.8134765625,-0.05859375,-1.2939453125
364,1.186,IMU1,2.25609756097561,10.670731707317074,4.085365853658537,1.787109375,-0.03515625,-1.294921875
365,1.186,IMU2,0.3658536585365854,12.256097560975611,3.8414634146341466,1.7880859375,-0.052734375,-1.2861328125
366,1.196,IMU0,0.0,10.792682926829269,3.414634146341464,1.857421875,-0.0634765625,-1.3056640625
367,1.196,IMU1,2.9268292682926833,9.51219512195122,3.536585365853659,1.8330078125,-0.04296875,-1.3125
368,1.196,IMU2,0.30487804878048785,11.219512195121952,3.1707317073170733,1.828125,-0.0576171875,-1.28515625
369,1.206,IMU0,-0.7317073170731708,11.890243902439025,0.853658536585366,1.8232421875,-0.0830078125,-1.2978515625
370,1.206,IMU1,1.7682926829268295,10.548780487804878,0.6707317073170732,1.7998046875,-0.037109375,-1.27734375
371,1.206,IMU2,0.06097560975609757,12.134146341463415,0.48780487804878053,1.7890625,-0.080078125,-1.287109375
372,1.216,IMU0,-0.9756097560975611,13.719512195121952,-2.7439024390243905,1.8134765625,-0.1005859375,-1.2880859375
373,1.216,IMU1,1.1585365853658538,12.317073170731708,-2.5609756097560976,1.787109375,-0.04296875,-1.279296875
374,1.216,IMU2,0.0,14.146341463414636,-3.048780487804878,1.775390625,-0.0966796875,-1.279296875
375,1.226,IMU0,-1.9512195121951221,13.536585365853659,-4.451219512195122,1.8232421875,-0.033203125,-1.3193359375
376,1.226,IMU1,0.48780487804878053,12.439024390243903,-3.658536585365854,1.7841796875,0.005859375,-1.3046875
377,1.226,IMU2,-1.2804878048780488,14.02439024390244,-4.51219512195122,1.8037109375,-0.04296875,-1.296875
378,1.236,IMU0,1.2804878048780488,11.28048780487805,2.0121951219512195,1.8193359375,-0.04296875,-1.3544921875
379,1.236,IMU1,3.536585365853659,10.548780487804878,2.378048780487805,1.78125,-0.0361328125,-1.328125
380,1.236,IMU2,2.1341463414634148,11.951219512195124,1.7682926829268295,1.8076171875,-0.0537109375,-1.34765625
381,1.246,IMU0,0.12195121951219513,8.78048780487805,2.8658536585365857,1.7216796875,-0.0263671875,-1.2939453125
382,1.246,IMU1,3.048780487804878,7.743902439024391,3.231707317073171,1.7021484375,-0.044921875,-1.291015625
383,1.246,IMU2,1.7682926829268295,9.02439024390244,2.5609756097560976,1.716796875,-0.0576171875,-1.2822265625
384,1.256,IMU0,-0.48780487804878053,7.865853658536586,2.1951219512195124,1.7275390625,-0.0400390625,-1.3369140625
385,1.256,IMU1,2.25609756097561,6.7682926829268295,1.7682926829268295,1.7119140625,-0.046875,-1.3388671875
386,1.256,IMU2,0.7317073170731708,8.170731707317074,1.5853658536585367,1.7060546875,-0.04296875,-1.3203125
387,1.266,IMU0,-1.707317073170732,8.78048780487805,-0.30487804878048785,1.6953125,-0.0390625,-1.306640625
388,1.266,IMU1,0.30487804878048785,7.682926829268293,-0.426829268292683,1.6845703125,-0.0146484375,-1.306640625
389,1.266,IMU2,-0.30487804878048785,8.78048780487805,-0.7926829268292683,1.6796875,-0.0302734375,-1.306640625
390,1.276,IMU0,-1.707317073170732,12.195121951219512,-1.0975609756097562,1.70703125,-0.068359375,-1.3271484375
391,1.276,IMU1,0.3658536585365854,11.52439024390244,-1.2195121951219514,1.697265625,-0.0244140625,-1.3134765625
392,1.276,IMU2,-0.6707317073170732,12.317073170731708,-1.4634146341463417,1.677734375,-0.0703125,-1.2958984375
393,1.286,IMU0,-1.707317073170732,12.195121951219512,-2.5,1.7119140625,-0.056640625,-1.326171875
394,1.286,IMU1,0.3658536585365854,10.975609756097562,-2.073170731707317,1.70703125,-0.021484375,-1.2939453125
395,1.286,IMU2,-0.9146341463414634,12.500000000000002,-2.682926829268293,1.7001953125,-0.05859375,-1.30078125
396,1.296,IMU0,-1.6463414634146343,11.097560975609756,-1.6463414634146343,1.701171875,-0.044921875,-1.34375
397,1.296,IMU1,0.48780487804878053,10.0,-0.9756097560975611,1.6953125,-0.009765625,-1.33203125
398,1.296,IMU2,0.426829268292683,11.097560975609756,-1.7682926829268295,1.701171875,-0.0322265625,-1.326171875
399,1.306,IMU0,-0.7317073170731708,10.30487804878049,-0.1829268292682927,1.703125,-0.0986328125,-1.3505859375
400,1.306,IMU1,0.9146341463414634,9.26829268292683,-0.12195121951219513,1.6806640625,-0.0556640625,-1.3427734375
401,1.306,IMU2,1.1585365853658538,10.426829268292684,-0.6097560975609757,1.67578125,-0.0927734375,-1.326171875
402,1.316,IMU0,-0.7926829268292683,8.841463414634147,-0.6097560975609757,1.6982421875,-0.1015625,-1.3095703125
403,1.316,IMU1,1.6463414634146343,7.865853658536586,-0.30487804878048785,1.6640625,-0.0693359375,-1.318359375
404,1.316,IMU2,0.7926829268292683,9.02439024390244,-0.853658536585366,1.666015625,-0.1123046875,-1.3271484375
405,1.326,IMU0,-1.402439024390244,8.78048780487805,-0.7317073170731708,1.7138671875,-0.072265625,-1.3603515625
406,1.326,IMU1,1.2195121951219514,7.682926829268293,-0.6707317073170732,1.6796875,-0.060546875,-1.3583984375
407,1.326,IMU2,-0.9146341463414634,9.329268292682928,-1.0975609756097562,1.6845703125,-0.087890625,-1.3408203125
408,1.336,IMU0,-0.9146341463414634,10.30487804878049,1.2195121951219514,1.7763671875,-0.0986328125,-1.39453125
409,1.336,IMU1,1.4634146341463417,9.146341463414634,1.2195121951219514,1.7421875,-0.0888671875,-1.3701171875
410,1.336,IMU2,-0.9756097560975611,11.158536585365855,0.9146341463414634,1.7470703125,-0.111328125,-1.3779296875
411,1.346,IMU0,-0.853658536585366,10.365853658536587,2.3170731707317076,1.7705078125,-0.130859375,-1.375
412,1.346,IMU1,1.2195121951219514,9.695121951219512,2.439024390243903,1.751953125,-0.0986328125,-1.3740234375
413,1.346,IMU2,-0.24390243902439027,11.036585365853659,2.0121951219512195,1.7607421875,-0.1220703125,-1.3779296875
414,1.356,IMU0,0.1829268292682927,10.548780487804878,3.9024390243902443,1.7431640625,-0.0908203125,-1.3740234375
415,1.356,IMU1,2.6219512195121952,9.390243902439025,3.9024390243902443,1.71875,-0.0703125,-1.3759765625
416,1.356,IMU2,0.7317073170731708,10.975609756097562,3.536585365853659,1.720703125,-0.1015625,-1.3701171875
417,1.366,IMU0,-0.7317073170731708,10.30487804878049,2.073170731707317,1.7998046875,-0.1298828125,-1.4111328125
418,1.366,IMU1,1.8902439024390245,9.207317073170733,2.25609756097561,1.7763671875,-0.1083984375,-1.3916015625
419,1.366,IMU2,0.426829268292683,11.036585365853659,1.9512195121951221,1.775390625,-0.140625,-1.3828125
420,1.376,IMU0,-1.0365853658536586,8.353658536585366,0.12195121951219513,1.7666015625,-0.11328125,-1.3818359375
421,1.376,IMU1,1.524390243902439,7.195121951219513,0.24390243902439027,1.7529296875,-0.091796875,-1.380859375
422,1.376,IMU2,0.0,8.841463414634147,-0.1829268292682927,1.76171875,-0.1201171875,-1.384765625
423,1.386,IMU0,-1.0975609756097562,7.439024390243903,0.3658536585365854,1.7578125,-0.0947265625,-1.34765625
424,1.386,IMU1,1.3414634146341464,6.341463414634147,0.48780487804878053,1.748046875,-0.064453125,-1.3505859375
425,1.386,IMU2,-0.1829268292682927,7.926829268292684,0.06097560975609757,1.76171875,-0.0888671875,-1.3486328125
426,1.396,IMU0,0.30487804878048785,6.219512195121951,2.3170731707317076,1.73828125,-0.09765625,-1.3994140625
427,1.396,IMU1,2.378048780487805,5.060975609756098,2.5,1.7236328125,-0.06640625,-1.392578125
428,1.396,IMU2,1.7682926829268295,6.646341463414635,2.0121951219512195,1.728515625,-0.0908203125,-1.3857421875
429,1.406,IMU0,-0.06097560975609757,5.2439024390243905,2.804878048780488,1.7685546875,-0.08203125,-1.3193359375
430,1.406,IMU1,1.7682926829268295,4.2682926829268295,2.987804878048781,1.75,-0.0517578125,-1.3212890625
431,1.406,IMU2,1.2195121951219514,5.487804878048781,2.5,1.7509765625,-0.0771484375,-1.3291015625
432,1.416,IMU0,-1.8902439024390245,2.1951219512195124,-0.7926829268292683,1.6240234375,-0.0068359375,-1.314453125
433,1.416,IMU1,-0.6707317073170732,1.2195121951219514,-0.5487804878048781,1.5986328125,0.0205078125,-1.3330078125
434,1.416,IMU2,-0.426829268292683,2.378048780487805,-1.0975609756097562,1.59765625,-0.00390625,-1.3330078125
435,1.426,IMU0,-2.1341463414634148,3.8414634146341466,-1.1585365853658538,1.5546875,0.00390625,-1.3798828125
436,1.426,IMU1,-0.1829268292682927,2.8658536585365857,-0.9756097560975611,1.525390625,0.02734375,-1.35546875
437,1.426,IMU2,-0.7926829268292683,4.329268292682928,-1.402439024390244,1.5224609375,0.0029296875,-1.3427734375
438,1.436,IMU0,0.12195121951219513,8.048780487804878,2.1951219512195124,1.5517578125,-0.0078125,-1.2880859375
439,1.436,IMU1,2.378048780487805,6.7682926829268295,2.3170731707317076,1.5244140625,0.017578125,-1.2646484375
440,1.436,IMU2,1.524390243902439,7.926829268292684,1.829268292682927,1.5244140625,-0.0078125,-1.2666015625
441,1.446,IMU0,-1.402439024390244,8.170731707317074,2.378048780487805,1.5439453125,-0.0146484375,-1.2900390625
442,1.446,IMU1,1.0365853658536586,6.890243902439025,2.6219512195121952,1.51953125,0.0087890625,-1.2880859375
443,1.446,IMU2,-0.426829268292683,8.841463414634147,2.1341463414634148,1.51953125,-0.015625,-1.2880859375
444,1.456,IMU0,-2.25609756097561,5.914634146341464,1.2195121951219514,1.5390625,-0.033203125,-1.318359375
445,1.456,IMU1,0.6097560975609757,4.878048780487806,1.4634146341463417,1.5107421875,-0.009765625,-1.3291015625
446,1.456,IMU2,-1.2804878048780488,6.52439024390244,1.0365853658536586,1.505859375,-0.033203125,-1.326171875
447,1.466,IMU0,-0.853658536585366,6.341463414634147,1.8902439024390245,1.4736328125,0.0029296875,-1.31640625
448,1.466,IMU1,1.6463414634146343,4.695121951219512,2.0121951219512195,1.44921875,0.0205078125,-1.3134765625
449,1.466,IMU2,0.24390243902439027,6.463414634146342,1.4634146341463417,1.4521484375,-0.001953125,-1.302734375
450,1.476,IMU0,-2.6219512195121952,5.548780487804878,2.1341463414634148,1.408203125,0.048828125,-1.2998046875
451,1.476,IMU1,-0.5487804878048781,3.963414634146342,2.1951219512195124,1.3896484375,0.0615234375,-1.2919921875
452,1.476,IMU2,-1.3414634146341464,5.548780487804878,1.7682926829268295,1.3984375,0.0419921875,-1.2841796875
453,1.486,IMU0,-1.5853658536585367,5.975609756097562,4.329268292682928,1.412109375,0.04296875,-1.30859375
454,1.486,IMU1,0.3658536585365854,4.390243902439025,4.51219512195122,1.3857421875,0.0576171875,-1.2763671875
455,1.486,IMU2,-0.3658536585365854,6.036585365853659,4.024390243902439,1.3876953125,0.037109375,-1.2822265625
456,1.496,IMU0,-2.1341463414634148,5.914634146341464,1.829268292682927,1.4189453125,-0.001953125,-1.3017578125
457,1.496,IMU1,0.6707317073170732,4.75609756097561,2.0121951219512195,1.39453125,0.0146484375,-1.2822265625
458,1.496,IMU2,-0.853658536585366,5.975609756097562,1.524390243902439,1.3876953125,-0.0048828125,-1.2880859375
459,1.506,IMU0,-3.353658536585366,7.073170731707318,-2.25609756097561,1.3671875,0.00390625,-1.298828125
460,1.506,IMU1,-0.5487804878048781,5.426829268292684,-2.073170731707317,1.3525390625,0.0185546875,-1.2861328125
461,1.506,IMU2,-2.073170731707317,7.378048780487806,-2.5609756097560976,1.3408203125,0.0,-1.2939453125
462,1.516,IMU0,-1.524390243902439,8.902439024390244,0.12195121951219513,1.3779296875,0.001953125,-1.28515625
463,1.516,IMU1,0.30487804878048785,7.987804878048781,0.30487804878048785,1.3662109375,0.0185546875,-1.28515625
464,1.516,IMU2,-0.7926829268292683,9.51219512195122,-0.12195121951219513,1.3623046875,-0.001953125,-1.2861328125
465,1.526,IMU0,-0.5487804878048781,9.390243902439025,2.6219512195121952,1.41796875,-0.0126953125,-1.2314453125
466,1.526,IMU1,1.3414634146341464,8.109756097560977,2.804878048780488,1.404296875,0.009765625,-1.232421875
467,1.526,IMU2,-0.3658536585365854,9.878048780487806,2.378048780487805,1.3955078125,-0.017578125,-1.2353515625
468,1.536,IMU0,-1.5853658536585367,8.109756097560977,0.1829268292682927,1.4013671875,-0.0380859375,-1.248046875
469,1.536,IMU1,-0.06097560975609757,6.219512195121951,0.426829268292683,1.3837890625,-0.0244140625,-1.2451171875
470,1.536,IMU2,-1.4634146341463417,8.170731707317074,-0.06097560975609757,1.369140625,-0.04296875,-1.24609375
471,1.546,IMU0,-1.9512195121951221,5.975609756097562,-1.402439024390244,1.400390625,-0.064453125,-1.2529296875
472,1.546,IMU1,0.24390243902439027,4.451219512195122,-1.2804878048780488,1.3828125,-0.0478515625,-1.251953125
473,1.546,IMU2,-1.402439024390244,6.341463414634147,-1.707317073170732,1.3720703125,-0.064453125,-1.24609375
474,1.556,IMU0,-2.5609756097560976,3.414634146341464,-2.1951219512195124,1.3623046875,-0.0361328125,-1.203125
475,1.556,IMU1,-0.5487804878048781,1.3414634146341464,-2.073170731707317,1.34765625,-0.017578125,-1.2138671875
476,1.556,IMU2,-1.9512195121951221,3.1097560975609757,-2.439024390243903,1.345703125,-0.0361328125,-1.2158203125
477,1.566,IMU0,-1.6463414634146343,2.0121951219512195,-0.24390243902439027,1.369140625,-0.1015625,-1.2236328125
478,1.566,IMU1,1.0365853658536586,0.7926829268292683,-0.12195121951219513,1.353515625,-0.080078125,-1.22265625
479,1.566,IMU2,-0.9146341463414634,2.378048780487805,-0.5487804878048781,1.3408203125,-0.0986328125,-1.2080078125
480,1.576,IMU0,-3.353658536585366,3.8414634146341466,-3.963414634146342,1.396484375,-0.1328125,-1.234375
481,1.576,IMU1,-0.6097560975609757,2.5609756097560976,-3.7195121951219514,1.3837890625,-0.1083984375,-1.232421875
482,1.576,IMU2,-2.682926829268293,4.146341463414634,-4.2682926829268295,1.3681640625,-0.1298828125,-1.2265625
483,1.586,IMU0,-2.073170731707317,5.487804878048781,-4.634146341463415,1.3818359375,-0.09765625,-1.267578125
484,1.586,IMU1,0.1829268292682927,4.024390243902439,-4.51219512195122,1.373046875,-0.0771484375,-1.2490234375
485,1.586,IMU2,-1.3414634146341464,5.365853658536586,-4.878048780487806,1.36328125,-0.09375,-1.2587890625
486,1.596,IMU0,-0.1829268292682927,8.658536585365855,-0.853658536585366,1.376953125,-0.0751953125,-1.20703125
487,1.596,IMU1,2.0121951219512195,7.317073170731708,-0.7317073170731708,1.37109375,-0.0546875,-1.18359375
488,1.596,IMU2,0.6707317073170732,8.963414634146343,-1.0365853658536586,1.36328125,-0.0732421875,-1.19140625
489,1.606,IMU0,1.707317073170732,7.500000000000001,3.048780487804878,1.4326171875,-0.06640625,-1.19140625
490,1.606,IMU1,3.7195121951219514,6.402439024390245,3.231707317073171,1.423828125,-0.0439453125,-1.1728515625
491,1.606,IMU2,2.7439024390243905,7.25609756097561,2.8658536585365857,1.4208984375,-0.0654296875,-1.1884765625
492,1.616,IMU0,0.7317073170731708,4.2682926829268295,1.707317073170732,1.4443359375,-0.1103515625,-1.2138671875
493,1.616,IMU1,3.231707317073171,3.353658536585366,2.073170731707317,1.42578125,-0.087890625,-1.1923828125
494,1.616,IMU2,1.7682926829268295,4.695121951219512,1.3414634146341464,1.412109375,-0.107421875,-1.1982421875
495,1.626,IMU0,0.30487804878048785,4.329268292682928,-1.8902439024390245,1.44921875,-0.1005859375,-1.2373046875
496,1.626,IMU1,2.682926829268293,3.353658536585366,-1.524390243902439,1.4306640625,-0.0791015625,-1.2216796875
497,1.626,IMU2,1.1585365853658538,4.573170731707317,-2.073170731707317,1.4296875,-0.0966796875,-1.2138671875
498,1.636,IMU0,-0.5487804878048781,2.0121951219512195,-2.7439024390243905,1.3955078125,-0.0498046875,-1.232421875
499,1.636,IMU1,2.439024390243903,0.853658536585366,-2.6219512195121952,1.3876953125,-0.0244140625,-1.2255859375
500,1.636,IMU2,0.0,2.5609756097560976,-2.7439024390243905,1.3759765625,-0.046875,-1.2265625
501,1.646,IMU0,-0.6707317073170732,3.7195121951219514,-1.0975609756097562,1.3369140625,-0.0478515625,-1.2392578125
502,1.646,IMU1,1.8902439024390245,2.7439024390243905,-0.9146341463414634,1.3310546875,-0.0244140625,-1.244140625
503,1.646,IMU2,0.0,4.634146341463415,-1.0975609756097562,1.3154296875,-0.0478515625,-1.234375
504,1.656,IMU0,0.0,5.670731707317073,1.0975609756097562,1.4091796875,-0.0458984375,-1.24609375
505,1.656,IMU1,3.048780487804878,4.695121951219512,1.2804878048780488,1.3955078125,-0.0244140625,-1.2412109375
506,1.656,IMU2,0.7317073170731708,6.463414634146342,0.853658536585366,1.37109375,-0.0390625,-1.2197265625
507,1.666,IMU0,-1.402439024390244,5.060975609756098,-0.24390243902439027,1.4384765625,-0.0517578125,-1.1767578125
508,1.666,IMU1,1.524390243902439,3.7195121951219514,-0.12195121951219513,1.4267578125,-0.025390625,-1.1826171875
509,1.666,IMU2,-0.9146341463414634,5.182926829268293,-0.426829268292683,1.4033203125,-0.0556640625,-1.1591796875
510,1.676,IMU0,-1.9512195121951221,1.0975609756097562,0.7926829268292683,1.375,-0.021484375,-1.201171875
511,1.676,IMU1,-0.06097560975609757,-0.1829268292682927,0.9756097560975611,1.3662109375,0.0078125,-1.19140625
512,1.676,IMU2,-1.524390243902439,1.0365853658536586,0.7317073170731708,1.345703125,-0.0361328125,-1.17578125
513,1.686,IMU0,-2.25609756097561,0.6097560975609757,0.7317073170731708,1.318359375,-0.052734375,-1.185546875
514,1.686,IMU1,0.30487804878048785,-0.7926829268292683,0.853658536585366,1.3037109375,-0.0302734375,-1.1748046875
515,1.686,IMU2,-2.0121951219512195,0.6707317073170732,0.48780487804878053,1.283203125,-0.0625,-1.1611328125
516,1.696,IMU0,-2.987804878048781,2.682926829268293,0.0,1.2802734375,-0.068359375,-1.2353515625
517,1.696,IMU1,-0.1829268292682927,2.1341463414634148,0.24390243902439027,1.2607421875,-0.044921875,-1.208984375
518,1.696,IMU2,-2.682926829268293,3.2926829268292686,-0.3658536585365854,1.23828125,-0.0810546875,-1.21875
519,1.706,IMU0,-2.7439024390243905,12.073170731707318,-3.231707317073171,1.265625,-0.0849609375,-1.2734375
520,1.706,IMU1,-0.12195121951219513,11.097560975609756,-3.048780487804878,1.24609375,-0.060546875,-1.255859375
521,1.706,IMU2,-2.9268292682926833,12.74390243902439,-3.4756097560975614,1.2392578125,-0.1083984375,-1.2529296875
522,1.716,IMU0,-0.7317073170731708,15.000000000000002,-0.3658536585365854,1.37109375,-0.046875,-1.234375
523,1.716,IMU1,1.1585365853658538,14.51219512195122,-0.30487804878048785,1.357421875,-0.021484375,-1.2314453125
524,1.716,IMU2,-0.48780487804878053,15.670731707317074,-0.12195121951219513,1.3642578125,-0.068359375,-1.232421875
525,1.726,IMU0,0.12195121951219513,7.560975609756098,-0.6707317073170732,1.4033203125,-0.1103515625,-1.3095703125
526,1.726,IMU1,2.378048780487805,6.463414634146342,-0.426829268292683,1.3837890625,-0.087890625,-1.2890625
527,1.726,IMU2,0.06097560975609757,8.170731707317074,-1.1585365853658538,1.3662109375,-0.10546875,-1.2763671875
528,1.736,IMU0,-0.48780487804878053,1.1585365853658538,-2.682926829268293,1.2568359375,-0.064453125,-1.2578125
529,1.736,IMU1,0.7926829268292683,0.426829268292683,-2.3170731707317076,1.240234375,-0.048828125,-1.23828125
530,1.736,IMU2,-0.30487804878048785,1.9512195121951221,-3.1097560975609757,1.2294921875,-0.0615234375,-1.240234375
531,1.746,IMU0,-2.1341463414634148,2.0121951219512195,-1.1585365853658538,1.2041015625,-0.0048828125,-1.2275390625
532,1.746,IMU1,-0.1829268292682927,1.1585365853658538,-0.7317073170731708,1.193359375,0.0166015625,-1.2236328125
533,1.746,IMU2,-1.0365853658536586,2.439024390243903,-1.4634146341463417,1.203125,-0.0048828125,-1.2294921875
534,1.756,IMU0,0.9756097560975611,2.5609756097560976,4.817073170731708,1.2314453125,-0.0029296875,-1.2646484375
535,1.756,IMU1,2.25609756097561,1.4634146341463417,5.0,1.22265625,0.021484375,-1.2646484375
536,1.756,IMU2,2.9268292682926833,2.804878048780488,4.695121951219512,1.228515625,-0.0078125,-1.28125
537,1.766,IMU0,1.2195121951219514,2.0121951219512195,5.670731707317073,1.25,-0.0478515625,-1.267578125
538,1.766,IMU1,2.378048780487805,0.7317073170731708,6.097560975609756,1.2294921875,-0.017578125,-1.26953125
539,1.766,IMU2,2.378048780487805,2.5609756097560976,5.365853658536586,1.23046875,-0.0498046875,-1.2802734375
540,1.776,IMU0,-0.9756097560975611,1.6463414634146343,3.658536585365854,1.2646484375,-0.0927734375,-1.30078125
541,1.776,IMU1,-0.24390243902439027,0.48780487804878053,3.5975609756097566,1.25,-0.0693359375,-1.3076171875
542,1.776,IMU2,-0.06097560975609757,2.3170731707317076,2.987804878048781,1.2265625,-0.103515625,-1.298828125
543,1.786,IMU0,-4.75609756097561,2.1951219512195124,-1.9512195121951221,1.3115234375,-0.0673828125,-1.2978515625
544,1.786,IMU1,-2.987804878048781,1.0365853658536586,-2.25609756097561,1.28515625,-0.0478515625,-1.2705078125
545,1.786,IMU2,-3.8414634146341466,3.048780487804878,-2.7439024390243905,1.2822265625,-0.072265625,-1.2919921875
546,1.796,IMU0,-4.2682926829268295,1.0365853658536586,-1.5853658536585367,1.2783203125,-0.009765625,-1.296875
547,1.796,IMU1,-2.25609756097561,0.3658536585365854,-1.1585365853658538,1.2734375,-0.0009765625,-1.2998046875
548,1.796,IMU2,-2.5609756097560976,2.378048780487805,-1.829268292682927,1.2783203125,-0.021484375,-1.30859375
549,1.806,IMU0,-3.8414634146341466,1.402439024390244,0.7926829268292683,1.294921875,-0.0576171875,-1.26953125
550,1.806,IMU1,-2.25609756097561,0.853658536585366,1.2804878048780488,1.296875,-0.0439453125,-1.271484375
551,1.806,IMU2,-2.682926829268293,2.5609756097560976,0.6097560975609757,1.296875,-0.064453125,-1.27734375
552,1.816,IMU0,-2.073170731707317,0.3658536585365854,3.2926829268292686,1.2763671875,-0.1083984375,-1.2744140625
553,1.816,IMU1,-0.24390243902439027,-0.1829268292682927,3.4756097560975614,1.2568359375,-0.107421875,-1.2587890625
554,1.816,IMU2,-1.402439024390244,1.4634146341463417,2.987804878048781,1.2490234375,-0.130859375,-1.251953125
555,1.826,IMU0,-2.5609756097560976,3.963414634146342,-1.8902439024390245,1.2587890625,-0.1162109375,-1.3271484375
556,1.826,IMU1,-1.0975609756097562,3.780487804878049,-1.829268292682927,1.2451171875,-0.099609375,-1.3330078125
557,1.826,IMU2,-1.524390243902439,5.3048780487804885,-2.378048780487805,1.2412109375,-0.1220703125,-1.322265625
558,1.836,IMU0,-0.7317073170731708,7.682926829268293,-2.682926829268293,1.3447265625,-0.109375,-1.3642578125
559,1.836,IMU1,0.7317073170731708,6.585365853658537,-2.5,1.3173828125,-0.06640625,-1.3701171875
560,1.836,IMU2,-0.48780487804878053,7.8048780487804885,-2.987804878048781,1.3115234375,-0.0908203125,-1.35546875
561,1.846,IMU0,0.30487804878048785,4.51219512195122,-0.24390243902439027,1.1884765625,-0.0859375,-1.21484375
562,1.846,IMU1,2.6219512195121952,2.9268292682926833,0.6707317073170732,1.125,-0.083984375,-1.228515625
563,1.846,IMU2,1.402439024390244,4.2682926829268295,0.1829268292682927,1.12890625,-0.103515625,-1.2265625
564,1.856,IMU0,-0.5487804878048781,3.658536585365854,0.3658536585365854,0.958984375,-0.19140625,-1.1376953125
565,1.856,IMU1,1.6463414634146343,2.5609756097560976,-0.426829268292683,0.9248046875,-0.20703125,-1.126953125
566,1.856,IMU2,-0.12195121951219513,4.146341463414634,-0.853658536585366,0.91015625,-0.224609375,-1.119140625
567,1.866,IMU0,-3.536585365853659,1.707317073170732,-5.426829268292684,0.7138671875,-0.1845703125,-1.015625
568,1.866,IMU1,-1.402439024390244,0.06097560975609757,-5.487804878048781,0.6767578125,-0.1328125,-0.998046875
569,1.866,IMU2,-2.9268292682926833,1.829268292682927,-6.036585365853659,0.6650390625,-0.146484375,-0.9873046875
570,1.876,IMU0,-5.3048780487804885,0.48780487804878053,-6.951219512195123,0.3203125,-0.0869140625,-0.8662109375
571,1.876,IMU1,-3.231707317073171,-0.30487804878048785,-7.195121951219513,0.2919921875,-0.109375,-0.8115234375
572,1.876,IMU2,-4.573170731707317,1.2195121951219514,-7.682926829268293,0.2890625,-0.126953125,-0.80859375
573,1.886,IMU0,-5.060975609756098,-0.1829268292682927,-6.829268292682928,-0.0673828125,-0.0546875,-0.6787109375
574,1.886,IMU1,-3.4756097560975614,-1.0975609756097562,-6.7682926829268295,-0.09375,-0.10546875,-0.6005859375
575,1.886,IMU2,-4.573170731707317,0.24390243902439027,-7.378048780487806,-0.0947265625,-0.1240234375,-0.611328125
576,1.896,IMU0,-6.219512195121951,-0.1829268292682927,-1.6463414634146343,-0.396484375,-0.0498046875,-0.5126953125
577,1.896,IMU1,-4.390243902439025,-0.30487804878048785,-1.7682926829268295,-0.419921875,-0.1142578125,-0.4453125
578,1.896,IMU2,-5.914634146341464,1.0365853658536586,-2.25609756097561,-0.4208984375,-0.1298828125,-0.423828125
579,1.906,IMU0,-13.231707317073171,-1.1585365853658538,3.7195121951219514,-0.7783203125,-0.1328125,-0.3046875
580,1.906,IMU1,-10.975609756097562,-2.439024390243903,3.8414634146341466,-0.77734375,-0.130859375,-0.2919921875
581,1.906,IMU2,-12.317073170731708,-0.7926829268292683,3.2926829268292686,-0.7861328125,-0.1357421875,-0.265625
582,1.916,IMU0,-20.0,-4.024390243902439,5.060975609756098,-0.9873046875,-0.1416015625,-0.1201171875
583,1.916,IMU1,-17.804878048780488,-5.121951219512195,5.0,-0.99609375,-0.1953125,-0.11328125
584,1.916,IMU2,-19.32926829268293,-3.780487804878049,4.51219512195122,-1.0126953125,-0.1962890625,-0.1142578125
585,1.926,IMU0,-28.292682926829272,-7.500000000000001,2.682926829268293,-1.201171875,-0.1201171875,-0.0078125
586,1.926,IMU1,-25.853658536585368,-8.963414634146343,2.682926829268293,-1.2021484375,-0.1337890625,0.015625
587,1.926,IMU2,-27.500000000000004,-7.195121951219513,2.0121951219512195,-1.224609375,-0.123046875,0.0224609375
588,1.936,IMU0,-33.71951219512196,-12.500000000000002,-0.1829268292682927,-1.2978515625,-0.072265625,0.0986328125
589,1.936,IMU1,-31.280487804878053,-14.26829268292683,-0.1829268292682927,-1.30078125,-0.0859375,0.10546875
590,1.936,IMU2,-32.743902439024396,-12.134146341463415,-1.0365853658536586,-1.33203125,-0.0751953125,0.1064453125
591,1.946,IMU0,-36.34146341463415,-23.658536585365855,-5.060975609756098,-1.25,-0.0322265625,0.1044921875
592,1.946,IMU1,-33.71951219512196,-25.30487804878049,-5.2439024390243905,-1.25,-0.044921875,0.111328125
593,1.946,IMU2,-35.1219512195122,-23.29268292682927,-5.914634146341464,-1.2724609375,-0.0361328125,0.0966796875
594,1.956,IMU0,-34.87804878048781,-24.573170731707318,-9.695121951219512,-1.31640625,0.0263671875,0.09765625
595,1.956,IMU1,-32.31707317073171,-26.402439024390247,-9.695121951219512,-1.3212890625,0.0068359375,0.1015625
596,1.956,IMU2,-33.78048780487805,-24.085365853658537,-10.609756097560977,-1.349609375,0.029296875,0.09375
597,1.966,IMU0,-29.81707317073171,-30.000000000000004,-12.378048780487806,-1.24609375,0.1171875,0.0927734375
598,1.966,IMU1,-27.25609756097561,-31.463414634146343,-12.621951219512196,-1.24609375,0.0966796875,0.0947265625
599,1.966,IMU2,-28.53658536585366,-29.695121951219516,-12.987804878048781,-1.26953125,0.1240234375,0.0595703125
600,1.976,IMU0,-15.731707317073171,-24.207317073170735,-10.609756097560977,-1.2724609375,0.146484375,0.12109375
601,1.976,IMU1,-13.353658536585368,-25.60975609756098,-10.792682926829269,-1.2646484375,0.1337890625,0.1220703125
602,1.976,IMU2,-14.634146341463415,-23.84146341463415,-11.097560975609756,-1.2705078125,0.1435546875,0.1083984375
603,1.986,IMU0,-1.9512195121951221,-18.475609756097562,-6.402439024390245,-1.2705078125,0.1669921875,0.0810546875
604,1.986,IMU1,0.24390243902439027,-19.81707317073171,-6.402439024390245,-1.2626953125,0.15625,0.08203125
605,1.986,IMU2,-0.7317073170731708,-17.98780487804878,-6.7682926829268295,-1.28125,0.1689453125,0.0654296875
606,1.996,IMU0,8.536585365853659,-13.414634146341465,-1.829268292682927,-1.2314453125,0.150390625,0.078125
607,1.996,IMU1,10.914634146341465,-14.573170731707318,-1.6463414634146343,-1.23046875,0.1337890625,0.087890625
608,1.996,IMU2,9.756097560975611,-12.621951219512196,-2.1341463414634148,-1.234375,0.1611328125,0.07421875
609,2.006,IMU0,16.76829268292683,-9.939024390243903,1.7682926829268295,-1.212890625,0.162109375,0.1396484375
610,2.006,IMU1,19.085365853658537,-11.036585365853659,2.1341463414634148,-1.2158203125,0.146484375,0.1328125
611,2.006,IMU2,18.10975609756098,-9.26829268292683,1.4634146341463417,-1.22265625,0.1650390625,0.1259765625
612,2.016,IMU0,24.878048780487806,-8.475609756097562,5.548780487804878,-1.1611328125,0.095703125,0.1162109375
613,2.016,IMU1,27.195121951219516,-9.26829268292683,5.914634146341464,-1.1552734375,0.0859375,0.1171875
614,2.016,IMU2,26.03658536585366,-7.743902439024391,5.426829268292684,-1.1669921875,0.0849609375,0.111328125
615,2.026,IMU0,28.292682926829272,-9.146341463414634,6.52439024390244,-1.1650390625,0.044921875,0.1181640625
616,2.026,IMU1,30.670731707317074,-10.060975609756099,7.073170731707318,-1.169921875,0.037109375,0.1259765625
617,2.026,IMU2,29.451219512195124,-8.536585365853659,6.219512195121951,-1.16796875,0.0341796875,0.12109375
618,2.036,IMU0,29.08536585365854,-10.853658536585368,4.51219512195122,-1.1279296875,0.00390625,0.1298828125
619,2.036,IMU1,31.463414634146343,-11.707317073170733,4.939024390243903,-1.12890625,-0.005859375,0.1396484375
620,2.036,IMU2,30.0609756097561,-10.24390243902439,4.329268292682928,-1.1337890625,0.0048828125,0.1396484375
621,2.046,IMU0,29.08536585365854,-12.865853658536587,2.5,-1.1259765625,0.025390625,0.1015625
622,2.046,IMU1,31.52439024390244,-13.597560975609758,2.9268292682926833,-1.1259765625,0.01171875,0.1181640625
623,2.046,IMU2,30.182926829268297,-12.073170731707318,2.25609756097561,-1.146484375,0.0380859375,0.1083984375
624,2.056,IMU0,28.10975609756098,-10.30487804878049,-0.1829268292682927,-1.0986328125,0.0029296875,0.072265625
625,2.056,IMU1,30.487804878048784,-11.158536585365855,0.24390243902439027,-1.091796875,-0.0009765625,0.087890625
626,2.056,IMU2,29.02439024390244,-9.634146341463415,-0.24390243902439027,-1.1171875,-0.001953125,0.087890625
627,2.066,IMU0,24.146341463414636,-5.548780487804878,-3.536585365853659,-1.1181640625,0.029296875,0.0673828125
628,2.066,IMU1,26.58536585365854,-6.52439024390244,-3.048780487804878,-1.1220703125,0.0244140625,0.076171875
629,2.066,IMU2,25.000000000000004,-4.695121951219512,-3.8414634146341466,-1.1416015625,0.0107421875,0.087890625
630,2.076,IMU0,20.60975609756098,0.426829268292683,-7.743902439024391,-1.13671875,-0.0009765625,0.0810546875
631,2.076,IMU1,22.926829268292686,-0.7317073170731708,-7.25609756097561,-1.1376953125,-0.0068359375,0.0859375
632,2.076,IMU2,21.158536585365855,1.3414634146341464,-7.987804878048781,-1.166015625,-0.0146484375,0.099609375
633,2.086,IMU0,17.012195121951223,6.402439024390245,-13.353658536585368,-1.109375,-0.001953125,0.11328125
634,2.086,IMU1,19.02439024390244,5.2439024390243905,-12.80487804878049,-1.1123046875,-0.00390625,0.111328125
635,2.086,IMU2,17.439024390243905,7.01219512195122,-13.658536585365855,-1.1279296875,-0.0166015625,0.1298828125
636,2.096,IMU0,16.03658536585366,10.914634146341465,-17.073170731707318,-1.09765625,-0.0009765625,0.1337890625
637,2.096,IMU1,17.865853658536587,9.817073170731708,-16.585365853658537,-1.1005859375,-0.0029296875,0.1318359375
638,2.096,IMU2,16.646341463414636,11.097560975609756,-17.25609756097561,-1.0888671875,-0.0146484375,0.1201171875
639,2.106,IMU0,15.914634146341465,13.902439024390246,-18.597560975609756,-1.0927734375,0.0068359375,0.1142578125
640,2.106,IMU1,17.5,12.987804878048781,-18.231707317073173,-1.0810546875,0.001953125,0.1162109375
641,2.106,IMU2,16.76829268292683,13.78048780487805,-18.29268292682927,-1.0986328125,0.0126953125,0.0859375
642,2.116,IMU0,16.402439024390244,16.402439024390244,-16.82926829268293,-1.05859375,-0.01171875,0.095703125
643,2.116,IMU1,18.04878048780488,15.670731707317074,-16.52439024390244,-1.048828125,-0.0224609375,0.109375
644,2.116,IMU2,17.439024390243905,16.158536585365855,-16.646341463414636,-1.083984375,0.009765625,0.0634765625
645,2.126,IMU0,16.76829268292683,17.865853658536587,-15.060975609756099,-1.072265625,-0.015625,0.095703125
646,2.126,IMU1,18.475609756097562,17.134146341463417,-14.756097560975611,-1.0703125,-0.0322265625,0.1083984375
647,2.126,IMU2,17.926829268292686,17.865853658536587,-15.000000000000002,-1.0927734375,0.0390625,0.064453125
648,2.136,IMU0,17.439024390243905,16.70731707317073,-14.51219512195122,-1.001953125,0.0341796875,0.064453125
649,2.136,IMU1,19.146341463414636,16.03658536585366,-14.146341463414636,-1.00390625,0.015625,0.078125
650,2.136,IMU2,18.53658536585366,16.52439024390244,-14.51219512195122,-1.01171875,0.087890625,0.05078125
651,2.146,IMU0,17.439024390243905,16.70731707317073,-14.51219512195122,-1.001953125,0.0341796875,0.064453125
652,2.146,IMU1,20.914634146341466,14.085365853658537,-13.353658536585368,-0.94921875,0.0185546875,0.076171875
653,2.146,IMU2,20.30487804878049,14.451219512195124,-13.353658536585368,-0.978515625,0.052734375,0.0537109375
654,2.156,IMU0,19.32926829268293,14.329268292682928,-13.414634146341465,-0.962890625,-0.0224609375,0.0546875
655,2.156,IMU1,21.28048780487805,13.719512195121952,-13.04878048780488,-0.9599609375,-0.0341796875,0.068359375
656,2.156,IMU2,20.426829268292686,14.51219512195122,-13.29268292682927,-0.96484375,-0.0400390625,0.0771484375
657,2.166,IMU0,19.390243902439025,17.012195121951223,-15.426829268292684,-0.9599609375,0.0107421875,0.0400390625
658,2.166,IMU1,21.219512195121954,16.28048780487805,-14.939024390243905,-0.96875,0.0009765625,0.0517578125
659,2.166,IMU2,20.243902439024392,17.195121951219512,-15.79268292682927,-0.9677734375,0.0322265625,0.041015625
660,2.176,IMU0,17.804878048780488,16.585365853658537,-19.085365853658537,-0.9560546875,0.001953125,0.09765625
661,2.176,IMU1,19.451219512195124,15.975609756097562,-18.719512195121954,-0.9501953125,-0.00390625,0.1044921875
662,2.176,IMU2,18.597560975609756,16.158536585365855,-18.78048780487805,-0.955078125,-0.0009765625,0.1064453125
663,2.186,IMU0,17.073170731707318,18.84146341463415,-21.03658536585366,-1.005859375,-0.00390625,0.099609375
664,2.186,IMU1,18.84146341463415,17.865853658536587,-20.426829268292686,-1.0126953125,-0.015625,0.1044921875
665,2.186,IMU2,17.804878048780488,19.207317073170735,-21.52439024390244,-1.0185546875,0.0126953125,0.09765625
666,2.196,IMU0,17.134146341463417,20.0609756097561,-21.585365853658537,-0.9326171875,-0.013671875,0.087890625
667,2.196,IMU1,18.84146341463415,19.26829268292683,-21.219512195121954,-0.923828125,-0.013671875,0.0927734375
668,2.196,IMU2,17.865853658536587,19.939024390243905,-20.975609756097562,-0.9296875,-0.0078125,0.0869140625
669,2.206,IMU0,17.865853658536587,25.792682926829272,-22.378048780487806,-0.9521484375,0.0341796875,0.0849609375
670,2.206,IMU1,19.32926829268293,25.000000000000004,-21.707317073170735,-0.955078125,0.03125,0.080078125
671,2.206,IMU2,18.658536585365855,25.243902439024392,-22.378048780487806,-0.9794921875,0.0341796875,0.060546875
672,2.216,IMU0,19.146341463414636,27.621951219512198,-18.597560975609756,-0.916015625,-0.0302734375,0.044921875
673,2.216,IMU1,20.731707317073173,26.646341463414636,-18.10975609756098,-0.91015625,-0.033203125,0.048828125
674,2.216,IMU2,19.878048780487806,27.682926829268297,-18.597560975609756,-0.9228515625,-0.0302734375,0.0361328125
675,2.226,IMU0,21.707317073170735,31.09756097560976,-17.98780487804878,-0.8720703125,-0.0439453125,0.091796875
676,2.226,IMU1,23.10975609756098,30.792682926829272,-17.5609756097561,-0.857421875,-0.04296875,0.1044921875
677,2.226,IMU2,22.25609756097561,28.963414634146343,-16.585365853658537,-0.859375,-0.0390625,0.095703125
678,2.236,IMU0,22.926829268292686,34.63414634146342,-15.914634146341465,-0.8740234375,-0.0048828125,0.0732421875
679,2.236,IMU1,24.26829268292683,33.963414634146346,-15.30487804878049,-0.869140625,-0.0087890625,0.0859375
680,2.236,IMU2,23.29268292682927,35.1219512195122,-15.731707317073171,-0.87890625,-0.009765625,0.0732421875
681,2.246,IMU0,24.939024390243905,33.71951219512196,-13.414634146341465,-0.8681640625,-0.056640625,0.0595703125
682,2.246,IMU1,26.463414634146343,32.926829268292686,-12.926829268292684,-0.8662109375,-0.0654296875,0.0703125
683,2.246,IMU2,26.219512195121954,33.90243902439025,-13.109756097560977,-0.880859375,-0.06640625,0.0615234375
684,2.256,IMU0,27.31707317073171,32.37804878048781,-11.402439024390246,-0.8271484375,-0.064453125,0.03125
685,2.256,IMU1,28.84146341463415,31.951219512195124,-11.097560975609756,-0.818359375,-0.0712890625,0.0478515625
686,2.256,IMU2,27.743902439024392,33.170731707317074,-11.463414634146343,-0.8251953125,-0.072265625,0.037109375
687,2.266,IMU0,30.853658536585368,37.43902439024391,-11.158536585365855,-0.83984375,-0.0087890625,0.0546875
688,2.266,IMU1,32.19512195121951,37.19512195121951,-10.731707317073171,-0.8349609375,-0.013671875,0.0634765625
689,2.266,IMU2,31.280487804878053,38.10975609756098,-11.036585365853659,-0.8408203125,-0.0146484375,0.0498046875
690,2.276,IMU0,32.80487804878049,40.243902439024396,-9.451219512195122,-0.8642578125,-0.046875,-0.0244140625
691,2.276,IMU1,34.268292682926834,39.451219512195124,-8.841463414634147,-0.8642578125,-0.0595703125,-0.01953125
692,2.276,IMU2,33.47560975609756,40.487804878048784,-9.207317073170733,-0.8857421875,-0.0576171875,-0.0322265625
693,2.286,IMU0,36.463414634146346,40.0,-9.878048780487806,-0.8017578125,-0.041015625,-0.0537109375
694,2.286,IMU1,37.86585365853659,39.81707317073171,-9.390243902439025,-0.7939453125,-0.0478515625,-0.0341796875
695,2.286,IMU2,37.01219512195122,40.79268292682927,-9.695121951219512,-0.8076171875,-0.0478515625,-0.0498046875
696,2.296,IMU0,39.390243902439025,49.93902439024391,-10.975609756097562,-0.82421875,0.0087890625,-0.0205078125
697,2.296,IMU1,40.487804878048784,49.63414634146342,-10.24390243902439,-0.8232421875,0.0,-0.0087890625
698,2.296,IMU2,39.87804878048781,50.426829268292686,-10.609756097560977,-0.8310546875,0.0029296875,-0.0224609375
699,2.306,IMU0,41.40243902439025,53.04878048780488,-9.146341463414634,-0.82421875,-0.0205078125,-0.109375
700,2.306,IMU1,42.743902439024396,52.50000000000001,-8.353658536585366,-0.828125,-0.03125,-0.09765625
701,2.306,IMU2,42.25609756097561,53.59756097560976,-8.719512195121952,-0.85546875,-0.025390625,-0.1083984375
702,2.316,IMU0,42.804878048780495,61.768292682926834,-13.04878048780488,-0.7509765625,-0.01171875,-0.095703125
703,2.316,IMU1,43.84146341463415,61.646341463414636,-12.317073170731708,-0.7412109375,-0.013671875,-0.078125
704,2.316,IMU2,43.35365853658537,62.43902439024391,-12.560975609756099,-0.74609375,-0.0166015625,-0.0810546875
705,2.326,IMU0,42.6829268292683,72.8048780487805,-13.902439024390246,-0.837890625,0.00390625,-0.1171875
706,2.326,IMU1,43.65853658536586,74.02439024390245,-13.963414634146343,-0.8447265625,-0.0009765625,-0.1064453125
707,2.326,IMU2,43.47560975609756,73.47560975609757,-13.29268292682927,-0.8701171875,-0.0009765625,-0.1083984375
708,2.336,IMU0,44.08536585365854,80.67073170731707,-15.121951219512196,-0.74609375,-0.0556640625,-0.1826171875
709,2.336,IMU1,44.451219512195124,82.98780487804879,-13.658536585365855,-0.7421875,-0.0576171875,-0.162109375
710,2.336,IMU2,44.69512195121952,81.40243902439025,-14.451219512195124,-0.765625,-0.060546875,-0.169921875
711,2.346,IMU0,44.146341463414636,97.8048780487805,-17.5609756097561,-0.7763671875,-0.0224609375,-0.0849609375
712,2.346,IMU1,45.0609756097561,96.82926829268294,-16.402439024390244,-0.744140625,-0.0224609375,-0.0830078125
713,2.346,IMU2,44.69512195121952,98.17073170731709,-16.890243902439025,-0.78125,-0.0263671875,-0.08984375
714,2.356,IMU0,44.51219512195122,104.63414634146342,-14.878048780487806,-0.7275390625,-0.0458984375,-0.1357421875
715,2.356,IMU1,45.487804878048784,107.01219512195122,-14.51219512195122,-0.75,-0.0078125,-0.115234375
716,2.356,IMU2,45.1829268292683,105.42682926829269,-14.207317073170733,-0.7587890625,-0.044921875,-0.1416015625
717,2.366,IMU0,45.73170731707317,108.84146341463416,-14.02439024390244,-0.6650390625,-0.0654296875,-0.1337890625
718,2.366,IMU1,46.09756097560976,108.41463414634147,-12.195121951219512,-0.6787109375,-0.037109375,-0.1806640625
719,2.366,IMU2,46.28048780487805,109.32926829268294,-13.109756097560977,-0.6708984375,-0.06640625,-0.13671875
720,2.376,IMU0,45.00000000000001,117.07317073170732,-12.682926829268293,-0.6240234375,-0.0185546875,-0.099609375
721,2.376,IMU1,45.36585365853659,115.48780487804879,-11.219512195121952,-0.6083984375,-0.0234375,-0.1259765625
722,2.376,IMU2,45.426829268292686,117.43902439024392,-11.829268292682928,-0.6220703125,-0.021484375,-0.103515625
723,2.386,IMU0,42.43902439024391,118.78048780487806,-11.463414634146343,-0.6201171875,-0.01953125,-0.1591796875
724,2.386,IMU1,42.37804878048781,120.06097560975611,-11.036585365853659,-0.615234375,-0.001953125,-0.123046875
725,2.386,IMU2,43.10975609756098,119.87804878048782,-10.792682926829269,-0.6435546875,-0.013671875,-0.14453125
726,2.396,IMU0,39.75609756097561,118.71951219512196,-10.060975609756099,-0.5517578125,-0.0390625,-0.2177734375
727,2.396,IMU1,39.390243902439025,120.79268292682927,-9.451219512195122,-0.5859375,-0.01171875,-0.1787109375
728,2.396,IMU2,40.36585365853659,120.00000000000001,-9.390243902439025,-0.5908203125,-0.0322265625,-0.19921875
729,2.406,IMU0,37.5609756097561,119.26829268292684,-10.731707317073171,-0.5068359375,-0.0263671875,-0.2001953125
730,2.406,IMU1,37.25609756097561,119.81707317073172,-9.329268292682928,-0.5302734375,-0.04296875,-0.177734375
731,2.406,IMU2,38.10975609756098,120.00000000000001,-9.878048780487806,-0.5263671875,-0.03125,-0.1767578125
732,2.416,IMU0,35.79268292682927,120.2439024390244,-10.365853658536587,-0.4599609375,-0.015625,-0.2353515625
733,2.416,IMU1,35.79268292682927,120.79268292682927,-9.26829268292683,-0.4609375,-0.046875,-0.1943359375
734,2.416,IMU2,36.463414634146346,121.09756097560977,-9.695121951219512,-0.4619140625,-0.0205078125,-0.2216796875
735,2.426,IMU0,33.71951219512196,121.46341463414635,-9.451219512195122,-0.447265625,0.0,-0.205078125
736,2.426,IMU1,33.71951219512196,121.52439024390245,-8.902439024390244,-0.4208984375,-0.046875,-0.1669921875
737,2.426,IMU2,34.390243902439025,122.25609756097562,-8.963414634146343,-0.4443359375,-0.0107421875,-0.185546875
738,2.436,IMU0,30.54878048780488,119.32926829268294,-7.743902439024391,-0.4228515625,0.0009765625,-0.259765625
739,2.436,IMU1,30.792682926829272,121.03658536585367,-7.621951219512196,-0.39453125,-0.03515625,-0.1767578125
740,2.436,IMU2,31.280487804878053,120.79268292682927,-7.439024390243903,-0.423828125,-0.009765625,-0.2294921875
741,2.446,IMU0,27.5609756097561,117.13414634146342,-5.121951219512195,-0.419921875,0.0107421875,-0.26171875
742,2.446,IMU1,27.500000000000004,118.59756097560977,-4.939024390243903,-0.412109375,-0.01953125,-0.1982421875
743,2.446,IMU2,28.170731707317074,118.47560975609757,-4.817073170731708,-0.4365234375,0.00390625,-0.2314453125
744,2.456,IMU0,25.30487804878049,114.87804878048782,-2.3170731707317076,-0.3994140625,0.009765625,-0.3056640625
745,2.456,IMU1,25.243902439024392,116.40243902439025,-1.8902439024390245,-0.3837890625,-0.0126953125,-0.232421875
746,2.456,IMU2,25.914634146341466,116.21951219512196,-1.9512195121951221,-0.416015625,0.0029296875,-0.2705078125
747,2.466,IMU0,22.31707317073171,113.17073170731709,1.3414634146341464,-0.3740234375,-0.0087890625,-0.2880859375
748,2.466,IMU1,22.98780487804878,112.43902439024392,2.1951219512195124,-0.3876953125,-0.0087890625,-0.24609375
749,2.466,IMU2,23.658536585365855,112.8658536585366,1.9512195121951221,-0.40234375,-0.009765625,-0.259765625
750,2.476,IMU0,19.573170731707318,110.1219512195122,5.609756097560976,-0.35546875,-0.0107421875,-0.2802734375
751,2.476,IMU1,20.182926829268293,109.57317073170732,6.2804878048780495,-0.375,-0.017578125,-0.2314453125
752,2.476,IMU2,20.79268292682927,110.3048780487805,5.7926829268292686,-0.375,-0.017578125,-0.2509765625
753,2.486,IMU0,17.5,106.40243902439025,10.487804878048781,-0.34765625,-0.0302734375,-0.23828125
754,2.486,IMU1,18.29268292682927,105.85365853658537,11.097560975609756,-0.3486328125,-0.0224609375,-0.2314453125
755,2.486,IMU2,18.719512195121954,106.95121951219514,10.548780487804878,-0.345703125,-0.017578125,-0.240234375
756,2.496,IMU0,15.121951219512196,102.31707317073172,14.02439024390244,-0.3173828125,-0.01171875,-0.2685546875
757,2.496,IMU1,16.097560975609756,101.64634146341464,14.51219512195122,-0.3115234375,-0.0048828125,-0.2646484375
758,2.496,IMU2,16.402439024390244,102.43902439024392,13.963414634146343,-0.3076171875,0.001953125,-0.2724609375
759,2.506,IMU0,14.085365853658537,98.90243902439025,18.78048780487805,-0.2939453125,0.0048828125,-0.271484375
760,2.506,IMU1,15.182926829268293,98.17073170731709,19.26829268292683,-0.2919921875,0.013671875,-0.263671875
761,2.506,IMU2,15.30487804878049,99.08536585365854,18.658536585365855,-0.2822265625,0.017578125,-0.27734375
762,2.516,IMU0,13.29268292682927,93.04878048780489,22.865853658536587,-0.2724609375,0.0244140625,-0.2734375
763,2.516,IMU1,14.451219512195124,92.37804878048782,23.29268292682927,-0.2685546875,0.0322265625,-0.2646484375
764,2.516,IMU2,14.451219512195124,93.41463414634147,22.621951219512198,-0.2529296875,0.033203125,-0.275390625
765,2.526,IMU0,11.951219512195124,86.70731707317074,25.731707317073173,-0.2373046875,0.017578125,-0.318359375
766,2.526,IMU1,13.29268292682927,85.85365853658537,26.09756097560976,-0.2314453125,0.0234375,-0.310546875
767,2.526,IMU2,13.170731707317074,86.82926829268294,25.60975609756098,-0.220703125,0.015625,-0.3203125
768,2.536,IMU0,11.951219512195124,81.15853658536587,28.10975609756098,-0.2119140625,0.009765625,-0.3203125
769,2.536,IMU1,13.231707317073171,80.3048780487805,28.475609756097562,-0.2041015625,0.0107421875,-0.3193359375
770,2.536,IMU2,12.80487804878049,81.28048780487805,28.04878048780488,-0.197265625,-0.0068359375,-0.3291015625
771,2.546,IMU0,12.439024390243903,74.20731707317074,31.03658536585366,-0.2001953125,0.021484375,-0.3046875
772,2.546,IMU1,13.78048780487805,73.53658536585367,31.34146341463415,-0.1982421875,0.021484375,-0.2958984375
773,2.546,IMU2,13.231707317073171,74.93902439024392,30.914634146341466,-0.2021484375,0.0068359375,-0.2978515625
774,2.556,IMU0,12.439024390243903,74.20731707317074,31.03658536585366,-0.2001953125,0.021484375,-0.3046875
775,2.556,IMU1,14.573170731707318,66.89024390243902,35.30487804878049,-0.2265625,0.0068359375,-0.3095703125
776,2.556,IMU2,13.963414634146343,68.59756097560977,34.93902439024391,-0.244140625,-0.0068359375,-0.3095703125
777,2.566,IMU0,13.841463414634148,65.73170731707317,37.5,-0.2548828125,-0.0390625,-0.3203125
778,2.566,IMU1,15.365853658536587,65.2439024390244,37.80487804878049,-0.2646484375,-0.0390625,-0.3076171875
779,2.566,IMU2,14.756097560975611,66.82926829268293,37.5,-0.283203125,-0.0498046875,-0.3046875
780,2.576,IMU0,14.451219512195124,66.21951219512195,40.79268292682927,-0.2626953125,-0.01953125,-0.279296875
781,2.576,IMU1,16.03658536585366,65.67073170731707,40.97560975609756,-0.267578125,-0.0185546875,-0.267578125
782,2.576,IMU2,15.426829268292684,67.07317073170732,40.487804878048784,-0.2685546875,-0.029296875,-0.267578125
783,2.586,IMU0,14.329268292682928,65.60975609756098,43.29268292682927,-0.2294921875,-0.0283203125,-0.314453125
784,2.586,IMU1,15.914634146341465,64.9390243902439,43.35365853658537,-0.2177734375,-0.0205078125,-0.3056640625
785,2.586,IMU2,15.30487804878049,66.09756097560977,42.6829268292683,-0.2041015625,-0.0224609375,-0.3056640625
786,2.596,IMU0,13.78048780487805,66.89024390243902,43.78048780487805,-0.1640625,0.005859375,-0.2998046875
787,2.596,IMU1,15.30487804878049,66.34146341463415,43.90243902439025,-0.15234375,0.017578125,-0.2939453125
788,2.596,IMU2,14.695121951219514,67.43902439024392,43.41463414634147,-0.1484375,0.0205078125,-0.2958984375
789,2.606,IMU0,12.682926829268293,69.08536585365854,44.63414634146342,-0.2041015625,0.06640625,-0.318359375
790,2.606,IMU1,14.207317073170733,68.10975609756098,45.1219512195122,-0.2158203125,0.0712890625,-0.318359375
791,2.606,IMU2,13.78048780487805,68.96341463414635,45.00000000000001,-0.2373046875,0.0625,-0.3271484375
792,2.616,IMU0,11.52439024390244,66.15853658536587,46.524390243902445,-0.21484375,0.017578125,-0.328125
793,2.616,IMU1,13.353658536585368,65.0609756097561,46.89024390243903,-0.228515625,0.0166015625,-0.3232421875
794,2.616,IMU2,12.80487804878049,66.03658536585367,46.707317073170735,-0.2490234375,0.0078125,-0.3291015625
795,2.626,IMU0,12.256097560975611,65.48780487804879,46.40243902439025,-0.1689453125,0.0380859375,-0.3056640625
796,2.626,IMU1,14.02439024390244,64.69512195121952,46.58536585365854,-0.1669921875,0.0419921875,-0.294921875
797,2.626,IMU2,13.475609756097562,66.03658536585367,46.09756097560976,-0.1708984375,0.037109375,-0.2958984375
798,2.636,IMU0,13.963414634146343,64.9390243902439,47.6219512195122,-0.19140625,0.0751953125,-0.3125
799,2.636,IMU1,15.609756097560977,64.08536585365854,47.743902439024396,-0.193359375,0.076171875,-0.3037109375
800,2.636,IMU2,15.060975609756099,65.3658536585366,47.37804878048781,-0.19921875,0.0634765625,-0.3046875
801,2.646,IMU0,15.609756097560977,65.3048780487805,51.28048780487806,-0.146484375,0.0263671875,-0.2373046875
802,2.646,IMU1,17.25609756097561,64.51219512195122,51.40243902439025,-0.1376953125,0.0341796875,-0.2353515625
803,2.646,IMU2,16.585365853658537,65.67073170731707,50.97560975609756,-0.13671875,0.0263671875,-0.244140625
804,2.656,IMU0,17.31707317073171,63.29268292682927,51.34146341463415,-0.1630859375,0.1025390625,-0.2578125
805,2.656,IMU1,19.085365853658537,62.37804878048781,51.768292682926834,-0.173828125,0.107421875,-0.25390625
806,2.656,IMU2,18.414634146341466,63.41463414634147,51.585365853658544,-0.1826171875,0.099609375,-0.2587890625
807,2.666,IMU0,16.951219512195124,59.451219512195124,53.84146341463415,-0.1728515625,0.068359375,-0.26171875
808,2.666,IMU1,18.78048780487805,58.71951219512196,54.085365853658544,-0.17578125,0.0751953125,-0.2587890625
809,2.666,IMU2,18.10975609756098,59.87804878048781,53.78048780487806,-0.1875,0.06640625,-0.2646484375
810,2.676,IMU0,18.78048780487805,57.926829268292686,54.268292682926834,-0.1748046875,0.0849609375,-0.302734375
811,2.676,IMU1,20.731707317073173,57.13414634146342,54.451219512195124,-0.18359375,0.0859375,-0.2919921875
812,2.676,IMU2,20.0609756097561,58.23170731707317,54.268292682926834,-0.1904296875,0.0791015625,-0.2880859375
813,2.686,IMU0,18.10975609756098,58.65853658536586,55.365853658536594,-0.1669921875,0.0546875,-0.25390625
814,2.686,IMU1,19.878048780487806,58.10975609756098,55.487804878048784,-0.1669921875,0.0615234375,-0.2529296875
815,2.686,IMU2,19.146341463414636,59.146341463414636,55.243902439024396,-0.177734375,0.052734375,-0.2626953125
816,2.696,IMU0,19.695121951219512,57.6829268292683,56.34146341463415,-0.1591796875,0.0859375,-0.2744140625
817,2.696,IMU1,21.52439024390244,56.951219512195124,56.524390243902445,-0.158203125,0.0927734375,-0.26171875
818,2.696,IMU2,20.853658536585368,58.04878048780488,56.28048780487806,-0.16015625,0.083984375,-0.2568359375
819,2.706,IMU0,20.365853658536587,56.40243902439025,61.03658536585366,-0.134765625,0.119140625,-0.205078125
820,2.706,IMU1,22.195121951219512,55.79268292682927,61.09756097560976,-0.1279296875,0.1298828125,-0.205078125
821,2.706,IMU2,21.463414634146343,56.646341463414636,60.85365853658537,-0.126953125,0.119140625,-0.216796875
822,2.716,IMU0,22.926829268292686,49.57317073170732,66.70731707317074,-0.166015625,0.103515625,-0.2451171875
823,2.716,IMU1,24.939024390243905,48.78048780487805,66.82926829268293,-0.171875,0.107421875,-0.240234375
824,2.716,IMU2,24.207317073170735,49.93902439024391,66.46341463414635,-0.1767578125,0.103515625,-0.2451171875
825,2.726,IMU0,25.30487804878049,47.19512195121952,72.92682926829269,-0.119140625,0.1806640625,-0.2021484375
826,2.726,IMU1,27.378048780487806,46.58536585365854,72.92682926829269,-0.115234375,0.1884765625,-0.1943359375
827,2.726,IMU2,26.52439024390244,47.50000000000001,72.7439024390244,-0.115234375,0.1787109375,-0.1923828125
828,2.736,IMU0,27.073170731707318,39.024390243902445,80.42682926829269,-0.1640625,0.10546875,-0.2353515625
829,2.736,IMU1,29.512195121951223,38.41463414634147,80.3658536585366,-0.1630859375,0.115234375,-0.2265625
830,2.736,IMU2,28.59756097560976,39.32926829268293,80.1829268292683,-0.1689453125,0.103515625,-0.232421875
831,2.746,IMU0,28.719512195121954,36.768292682926834,85.67073170731707,-0.1279296875,0.1279296875,-0.2021484375
832,2.746,IMU1,31.03658536585366,36.09756097560976,85.67073170731707,-0.1328125,0.1337890625,-0.2060546875
833,2.746,IMU2,30.000000000000004,36.951219512195124,85.3658536585366,-0.1318359375,0.1279296875,-0.2109375
834,2.756,IMU0,32.19512195121951,31.82926829268293,90.67073170731707,-0.1357421875,0.125,-0.212890625
835,2.756,IMU1,34.57317073170732,31.402439024390247,90.67073170731707,-0.1328125,0.1328125,-0.2119140625
836,2.756,IMU2,33.65853658536586,32.01219512195122,90.54878048780489,-0.1328125,0.125,-0.220703125
837,2.766,IMU0,34.146341463414636,28.414634146341466,95.00000000000001,-0.1572265625,0.123046875,-0.2236328125
838,2.766,IMU1,36.82926829268293,27.926829268292686,95.00000000000001,-0.15625,0.1298828125,-0.21484375
839,2.766,IMU2,35.670731707317074,28.59756097560976,94.81707317073172,-0.1611328125,0.123046875,-0.216796875
840,2.776,IMU0,35.79268292682927,25.000000000000004,100.3048780487805,-0.1376953125,0.173828125,-0.2421875
841,2.776,IMU1,38.53658536585366,24.451219512195124,100.3048780487805,-0.142578125,0.181640625,-0.2333984375
842,2.776,IMU2,37.31707317073171,25.365853658536587,100.06097560975611,-0.1337890625,0.1748046875,-0.2412109375
843,2.786,IMU0,39.146341463414636,22.80487804878049,108.71951219512196,-0.107421875,0.1591796875,-0.2216796875
844,2.786,IMU1,41.890243902439025,22.31707317073171,108.53658536585367,-0.099609375,0.1689453125,-0.21875
845,2.786,IMU2,40.73170731707317,22.926829268292686,108.59756097560977,-0.10546875,0.1591796875,-0.2275390625
846,2.796,IMU0,41.951219512195124,19.512195121951223,114.87804878048782,-0.1298828125,0.1181640625,-0.2275390625
847,2.796,IMU1,44.75609756097561,19.085365853658537,114.75609756097562,-0.12890625,0.1298828125,-0.2265625
848,2.796,IMU2,43.71951219512196,19.75609756097561,114.63414634146342,-0.1328125,0.1171875,-0.240234375
849,2.806,IMU0,44.32926829268293,17.31707317073171,119.75609756097562,-0.1455078125,0.099609375,-0.2119140625
850,2.806,IMU1,47.25609756097561,16.82926829268293,119.69512195121952,-0.14453125,0.107421875,-0.2109375
851,2.806,IMU2,46.09756097560976,17.439024390243905,119.51219512195124,-0.15625,0.1044921875,-0.21875
852,2.816,IMU0,46.463414634146346,16.34146341463415,124.08536585365854,-0.125,0.115234375,-0.205078125
853,2.816,IMU1,49.451219512195124,15.914634146341465,124.08536585365854,-0.1279296875,0.123046875,-0.19921875
854,2.816,IMU2,48.170731707317074,16.585365853658537,123.84146341463416,-0.12890625,0.1220703125,-0.201171875
855,2.826,IMU0,46.768292682926834,14.573170731707318,125.97560975609757,-0.13671875,0.1044921875,-0.19140625
856,2.826,IMU1,49.81707317073171,14.146341463414636,125.85365853658537,-0.1416015625,0.1103515625,-0.1806640625
857,2.826,IMU2,48.41463414634147,14.634146341463415,125.67073170731709,-0.14453125,0.111328125,-0.185546875
858,2.836,IMU0,46.951219512195124,13.04878048780488,126.28048780487806,-0.1396484375,0.087890625,-0.185546875
859,2.836,IMU1,50.1219512195122,12.560975609756099,126.21951219512196,-0.1416015625,0.09375,-0.1767578125
860,2.836,IMU2,48.59756097560976,13.170731707317074,125.97560975609757,-0.15625,0.0966796875,-0.1787109375
861,2.846,IMU0,47.987804878048784,11.76829268292683,125.54878048780489,-0.1357421875,0.107421875,-0.1845703125
862,2.846,IMU1,51.03658536585366,11.341463414634147,125.42682926829269,-0.1376953125,0.1142578125,-0.1787109375
863,2.846,IMU2,49.69512195121952,12.01219512195122,125.3048780487805,-0.1494140625,0.12109375,-0.18359375
864,2.856,IMU0,50.243902439024396,9.817073170731708,126.70731707317074,-0.1181640625,0.1455078125,-0.1826171875
865,2.856,IMU1,53.29268292682927,9.451219512195122,126.64634146341464,-0.1201171875,0.1533203125,-0.1806640625
866,2.856,IMU2,52.01219512195122,10.060975609756099,126.58536585365854,-0.123046875,0.1513671875,-0.1845703125
867,2.866,IMU0,52.13414634146342,6.829268292682928,129.8780487804878,-0.119140625,0.16796875,-0.1708984375
868,2.866,IMU1,55.243902439024396,6.585365853658537,129.81707317073173,-0.126953125,0.1787109375,-0.1630859375
869,2.866,IMU2,53.963414634146346,6.829268292682928,129.75609756097563,-0.1162109375,0.169921875,-0.185546875
870,2.876,IMU0,53.23170731707317,4.634146341463415,133.2926829268293,-0.1259765625,0.1572265625,-0.14453125
871,2.876,IMU1,56.40243902439025,4.329268292682928,133.109756097561,-0.12890625,0.166015625,-0.14453125
872,2.876,IMU2,55.243902439024396,4.634146341463415,133.109756097561,-0.1376953125,0.166015625,-0.158203125
873,2.886,IMU0,55.304878048780495,2.073170731707317,136.34146341463415,-0.1123046875,0.1650390625,-0.15234375
874,2.886,IMU1,59.085365853658544,1.402439024390244,136.28048780487805,-0.1181640625,0.173828125,-0.1513671875
875,2.886,IMU2,57.25609756097561,2.1341463414634148,136.09756097560978,-0.1259765625,0.1689453125,-0.162109375
876,2.896,IMU0,57.743902439024396,1.1585365853658538,138.96341463414635,-0.1103515625,0.1474609375,-0.1455078125
877,2.896,IMU1,61.03658536585366,0.7926829268292683,138.78048780487805,-0.11328125,0.158203125,-0.1474609375
878,2.896,IMU2,59.57317073170732,1.2804878048780488,138.65853658536585,-0.12890625,0.154296875,-0.14453125
879,2.906,IMU0,61.15853658536586,-0.30487804878048785,140.5487804878049,-0.1328125,0.146484375,-0.1748046875
880,2.906,IMU1,64.69512195121952,-0.7926829268292683,140.4878048780488,-0.140625,0.158203125,-0.16796875
881,2.906,IMU2,62.987804878048784,-0.30487804878048785,140.3048780487805,-0.1337890625,0.1484375,-0.1826171875
882,2.916,IMU0,64.08536585365854,-1.6463414634146343,140.97560975609758,-0.146484375,0.125,-0.1708984375
883,2.916,IMU1,67.5,-1.7682926829268295,140.91463414634148,-0.1513671875,0.1357421875,-0.162109375
884,2.916,IMU2,65.97560975609757,-1.524390243902439,140.6707317073171,-0.15234375,0.1259765625,-0.1708984375
885,2.926,IMU0,65.85365853658537,-1.707317073170732,140.6707317073171,-0.1435546875,0.1357421875,-0.1416015625
886,2.926,IMU1,69.45121951219512,-1.7682926829268295,140.6707317073171,-0.1513671875,0.130859375,-0.130859375
887,2.926,IMU2,67.7439024390244,-1.4634146341463417,140.4878048780488,-0.15625,0.1328125,-0.1396484375
888,2.936,IMU0,67.92682926829269,-1.3414634146341464,140.3048780487805,-0.1328125,0.126953125,-0.14453125
889,2.936,IMU1,71.40243902439025,-1.7682926829268295,140.1219512195122,-0.140625,0.126953125,-0.1357421875
890,2.936,IMU2,69.75609756097562,-1.3414634146341464,140.0609756097561,-0.1494140625,0.1259765625,-0.1416015625
891,2.946,IMU0,70.3048780487805,-1.3414634146341464,139.87804878048783,-0.1318359375,0.1025390625,-0.1435546875
892,2.946,IMU1,73.71951219512195,-1.707317073170732,139.81707317073173,-0.1337890625,0.1083984375,-0.1455078125
893,2.946,IMU2,72.07317073170732,-1.2804878048780488,139.63414634146343,-0.146484375,0.10546875,-0.1455078125
894,2.956,IMU0,71.58536585365854,-1.0365853658536586,139.51219512195124,-0.1298828125,0.1015625,-0.12109375
895,2.956,IMU1,75.1219512195122,-1.2195121951219514,139.57317073170734,-0.130859375,0.109375,-0.119140625
896,2.956,IMU2,73.41463414634147,-0.9146341463414634,139.39024390243904,-0.140625,0.1044921875,-0.1220703125
897,2.966,IMU0,72.31707317073172,-1.707317073170732,139.51219512195124,-0.115234375,0.1015625,-0.1328125
898,2.966,IMU1,75.54878048780489,-1.5853658536585367,139.57317073170734,-0.119140625,0.11328125,-0.1201171875
899,2.966,IMU2,74.02439024390245,-1.2804878048780488,139.45121951219514,-0.125,0.1083984375,-0.126953125
900,2.976,IMU0,74.51219512195122,-2.5,140.0,-0.1240234375,0.11328125,-0.1044921875
901,2.976,IMU1,77.92682926829269,-2.682926829268293,139.9390243902439,-0.12890625,0.11328125,-0.1005859375
902,2.976,IMU2,76.34146341463415,-2.3170731707317076,139.81707317073173,-0.134765625,0.111328125,-0.107421875
903,2.986,IMU0,75.85365853658537,-3.536585365853659,139.02439024390245,-0.1259765625,0.1201171875,-0.1044921875
904,2.986,IMU1,79.45121951219512,-3.5975609756097566,139.08536585365854,-0.12890625,0.13671875,-0.09765625
905,2.986,IMU2,77.6829268292683,-3.2926829268292686,138.90243902439025,-0.1337890625,0.1298828125,-0.1064453125
906,2.996,IMU0,77.43902439024392,-4.75609756097561,139.14634146341464,-0.1240234375,0.1240234375,-0.103515625
907,2.996,IMU1,80.85365853658537,-5.0,138.96341463414635,-0.1318359375,0.1279296875,-0.0986328125
908,2.996,IMU2,79.20731707317074,-4.695121951219512,138.84146341463415,-0.1416015625,0.125,-0.103515625
909,3.006,IMU0,78.59756097560977,-5.487804878048781,138.78048780487805,-0.1201171875,0.1240234375,-0.125
910,3.006,IMU1,82.13414634146342,-5.365853658536586,138.90243902439025,-0.130859375,0.142578125,-0.115234375
911,3.006,IMU2,80.42682926829269,-5.121951219512195,138.78048780487805,-0.138671875,0.1376953125,-0.1201171875
912,3.016,IMU0,80.0,-5.731707317073171,138.1707317073171,-0.12890625,0.1181640625,-0.1142578125
913,3.016,IMU1,83.53658536585367,-5.731707317073171,138.2317073170732,-0.1376953125,0.1318359375,-0.109375
914,3.016,IMU2,81.82926829268294,-5.426829268292684,137.9878048780488,-0.146484375,0.1259765625,-0.11328125
915,3.026,IMU0,82.50000000000001,-4.695121951219512,136.76829268292684,-0.1201171875,0.126953125,-0.1123046875
916,3.026,IMU1,85.79268292682927,-4.695121951219512,136.95121951219514,-0.1181640625,0.146484375,-0.1025390625
917,3.026,IMU2,84.14634146341464,-4.51219512195122,136.82926829268294,-0.12890625,0.140625,-0.109375
918,3.036,IMU0,84.51219512195122,-5.426829268292684,135.3048780487805,-0.134765625,0.1474609375,-0.1103515625
919,3.036,IMU1,87.8048780487805,-5.365853658536586,135.4878048780488,-0.126953125,0.1494140625,-0.123046875
920,3.036,IMU2,86.21951219512196,-5.060975609756098,135.3048780487805,-0.13671875,0.1474609375,-0.1298828125
921,3.046,IMU0,85.85365853658537,-4.207317073170732,134.63414634146343,-0.1103515625,0.1328125,-0.1171875
922,3.046,IMU1,89.14634146341464,-4.207317073170732,134.81707317073173,-0.1162109375,0.14453125,-0.1083984375
923,3.046,IMU2,87.50000000000001,-3.963414634146342,134.69512195121953,-0.123046875,0.138671875,-0.1142578125
924,3.056,IMU0,88.17073170731707,-3.780487804878049,134.51219512195124,-0.115234375,0.1298828125,-0.12109375
925,3.056,IMU1,91.34146341463415,-3.658536585365854,134.69512195121953,-0.1201171875,0.1455078125,-0.1142578125
926,3.056,IMU2,89.81707317073172,-3.4756097560975614,134.63414634146343,-0.1259765625,0.1396484375,-0.119140625
927,3.066,IMU0,90.1829268292683,-2.5,134.08536585365854,-0.1142578125,0.1494140625,-0.119140625
928,3.066,IMU1,93.35365853658537,-2.378048780487805,134.20731707317074,-0.119140625,0.16015625,-0.1142578125
929,3.066,IMU2,91.82926829268294,-2.3170731707317076,134.08536585365854,-0.1240234375,0.1533203125,-0.1220703125
930,3.076,IMU0,91.46341463414635,-1.524390243902439,133.78048780487805,-0.09375,0.1416015625,-0.13671875
931,3.076,IMU1,94.75609756097562,-1.3414634146341464,133.96341463414635,-0.1025390625,0.15234375,-0.1279296875
932,3.076,IMU2,93.10975609756099,-1.2195121951219514,133.90243902439025,-0.1103515625,0.1455078125,-0.130859375
933,3.086,IMU0,92.25609756097562,-0.1829268292682927,133.41463414634148,-0.078125,0.12109375,-0.1396484375
934,3.086,IMU1,95.3658536585366,0.0,133.53658536585368,-0.0859375,0.1328125,-0.1318359375
935,3.086,IMU2,93.90243902439025,0.06097560975609757,133.53658536585368,-0.091796875,0.1259765625,-0.1357421875
936,3.096,IMU0,93.17073170731707,0.6707317073170732,132.5609756097561,-0.0830078125,0.14453125,-0.12890625
937,3.096,IMU1,96.40243902439025,0.853658536585366,132.7439024390244,-0.0908203125,0.1572265625,-0.119140625
938,3.096,IMU2,94.87804878048782,0.9756097560975611,132.7439024390244,-0.09765625,0.1513671875,-0.1240234375
939,3.106,IMU0,92.7439024390244,1.9512195121951221,131.09756097560978,-0.048828125,0.125,-0.1328125
940,3.106,IMU1,95.91463414634147,2.073170731707317,131.34146341463415,-0.05859375,0.13671875,-0.1259765625
941,3.106,IMU2,94.39024390243904,2.1951219512195124,131.15853658536585,-0.0693359375,0.1318359375,-0.12890625
942,3.116,IMU0,92.50000000000001,1.7682926829268295,127.8048780487805,-0.04296875,0.1396484375,-0.142578125
943,3.116,IMU1,95.60975609756099,1.8902439024390245,128.1707317073171,-0.0537109375,0.1494140625,-0.1337890625
944,3.116,IMU2,94.08536585365854,2.073170731707317,127.98780487804879,-0.068359375,0.1455078125,-0.1328125
945,3.126,IMU0,92.37804878048782,0.426829268292683,123.65853658536587,-0.0546875,0.1259765625,-0.1337890625
946,3.126,IMU1,95.48780487804879,0.48780487804878053,124.02439024390245,-0.0673828125,0.1357421875,-0.12890625
947,3.126,IMU2,93.90243902439025,0.6707317073170732,123.84146341463416,-0.080078125,0.130859375,-0.1279296875
948,3.136,IMU0,93.35365853658537,-0.853658536585366,119.87804878048782,-0.037109375,0.13671875,-0.123046875
949,3.136,IMU1,96.40243902439025,-0.7926829268292683,120.3048780487805,-0.0458984375,0.1474609375,-0.12109375
950,3.136,IMU2,94.87804878048782,-0.6097560975609757,120.06097560975611,-0.0537109375,0.142578125,-0.123046875
951,3.146,IMU0,93.78048780487806,-1.829268292682927,117.25609756097562,-0.0546875,0.1533203125,-0.130859375
952,3.146,IMU1,96.76829268292684,-1.707317073170732,117.50000000000001,-0.0576171875,0.1650390625,-0.125
953,3.146,IMU2,95.2439024390244,-1.6463414634146343,117.43902439024392,-0.0634765625,0.158203125,-0.126953125
954,3.156,IMU0,94.08536585365854,-2.7439024390243905,116.34146341463416,-0.033203125,0.15234375,-0.138671875
955,3.156,IMU1,97.13414634146342,-2.5609756097560976,116.70731707317074,-0.0390625,0.1630859375,-0.13671875
956,3.156,IMU2,95.67073170731709,-2.439024390243903,116.58536585365854,-0.046875,0.1572265625,-0.1376953125
957,3.166,IMU0,94.69512195121952,-3.1097560975609757,116.46341463414635,-0.0341796875,0.1474609375,-0.119140625
958,3.166,IMU1,97.7439024390244,-2.804878048780488,116.82926829268294,-0.041015625,0.15625,-0.1123046875
959,3.166,IMU2,96.21951219512196,-2.9268292682926833,116.70731707317074,-0.0498046875,0.1533203125,-0.119140625
960,3.176,IMU0,95.91463414634147,-4.573170731707317,116.82926829268294,-0.0205078125,0.130859375,-0.1376953125
961,3.176,IMU1,98.96341463414635,-4.390243902439025,117.13414634146342,-0.0263671875,0.1416015625,-0.1318359375
962,3.176,IMU2,97.37804878048782,-4.390243902439025,117.07317073170732,-0.0341796875,0.13671875,-0.134765625
963,3.186,IMU0,97.31707317073172,-4.817073170731708,117.8048780487805,-0.048828125,0.138671875,-0.11328125
964,3.186,IMU1,100.3658536585366,-4.634146341463415,118.10975609756099,-0.0537109375,0.1484375,-0.10546875
965,3.186,IMU2,98.84146341463415,-4.573170731707317,118.04878048780489,-0.0556640625,0.1455078125,-0.1123046875
966,3.196,IMU0,98.65853658536587,-5.609756097560976,118.96341463414635,-0.0283203125,0.134765625,-0.126953125
967,3.196,IMU1,101.76829268292684,-5.487804878048781,119.20731707317074,-0.02734375,0.1455078125,-0.123046875
968,3.196,IMU2,100.2439024390244,-5.3048780487804885,119.20731707317074,-0.037109375,0.1416015625,-0.123046875
969,3.206,IMU0,99.93902439024392,-5.548780487804878,120.85365853658537,-0.0126953125,0.1455078125,-0.1435546875
970,3.206,IMU1,103.04878048780489,-5.2439024390243905,121.21951219512196,-0.013671875,0.1591796875,-0.13671875
971,3.206,IMU2,101.46341463414635,-5.182926829268293,121.15853658536587,-0.017578125,0.1513671875,-0.1396484375
972,3.216,IMU0,100.42682926829269,-4.75609756097561,123.59756097560977,0.0048828125,0.1416015625,-0.1328125
973,3.216,IMU1,103.53658536585367,-4.451219512195122,123.90243902439026,0.0,0.1513671875,-0.1259765625
974,3.216,IMU2,102.13414634146342,-4.573170731707317,123.84146341463416,-0.0048828125,0.1494140625,-0.1357421875
975,3.226,IMU0,100.79268292682927,-5.060975609756098,124.87804878048782,0.0234375,0.123046875,-0.1318359375
976,3.226,IMU1,103.96341463414635,-4.75609756097561,125.1829268292683,0.01953125,0.134765625,-0.12890625
977,3.226,IMU2,102.43902439024392,-4.695121951219512,125.12195121951221,0.0087890625,0.1298828125,-0.1318359375
978,3.236,IMU0,101.21951219512196,-5.426829268292684,125.60975609756099,0.0224609375,0.1044921875,-0.13671875
979,3.236,IMU1,104.39024390243904,-5.060975609756098,125.91463414634147,0.0146484375,0.1171875,-0.1279296875
980,3.236,IMU2,102.8658536585366,-5.121951219512195,125.85365853658537,0.01171875,0.11328125,-0.1376953125
981,3.246,IMU0,100.85365853658537,-5.853658536585367,125.42682926829269,0.02734375,0.0908203125,-0.1240234375
982,3.246,IMU1,104.02439024390245,-5.609756097560976,125.73170731707319,0.0224609375,0.1015625,-0.1142578125
983,3.246,IMU2,102.43902439024392,-5.548780487804878,125.67073170731709,0.015625,0.1005859375,-0.1201171875
984,3.256,IMU0,100.79268292682927,-6.7682926829268295,124.69512195121952,0.025390625,0.087890625,-0.13671875
985,3.256,IMU1,104.08536585365854,-6.585365853658537,125.06097560975611,0.0205078125,0.1005859375,-0.1298828125
986,3.256,IMU2,102.50000000000001,-6.463414634146342,125.00000000000001,0.0146484375,0.0947265625,-0.126953125
987,3.266,IMU0,99.08536585365854,-6.829268292682928,124.57317073170732,0.0341796875,0.083984375,-0.150390625
988,3.266,IMU1,102.31707317073172,-6.585365853658537,124.93902439024392,0.033203125,0.0966796875,-0.1396484375
989,3.266,IMU2,100.60975609756099,-6.402439024390245,124.87804878048782,0.0283203125,0.0859375,-0.1328125
990,3.276,IMU0,96.58536585365854,-5.914634146341464,124.57317073170732,0.037109375,0.076171875,-0.1337890625
991,3.276,IMU1,99.75609756097562,-5.7926829268292686,124.81707317073172,0.037109375,0.0869140625,-0.1279296875
992,3.276,IMU2,98.10975609756099,-5.731707317073171,124.75609756097562,0.0234375,0.0810546875,-0.1279296875
993,3.286,IMU0,93.84146341463415,-5.426829268292684,124.81707317073172,0.0517578125,0.080078125,-0.166015625
994,3.286,IMU1,97.13414634146342,-5.182926829268293,125.06097560975611,0.046875,0.08984375,-0.15625
995,3.286,IMU2,95.3658536585366,-5.060975609756098,124.87804878048782,0.04296875,0.0869140625,-0.158203125
996,3.296,IMU0,91.89024390243904,-3.536585365853659,125.2439024390244,0.05859375,0.0595703125,-0.1357421875
997,3.296,IMU1,95.0609756097561,-3.414634146341464,125.48780487804879,0.052734375,0.0712890625,-0.130859375
998,3.296,IMU2,93.35365853658537,-3.1097560975609757,125.1829268292683,0.0419921875,0.06640625,-0.125
999,3.306,IMU0,89.08536585365854,-2.378048780487805,124.51219512195124,0.0537109375,0.044921875,-0.1455078125
1000,3.306,IMU1,92.25609756097562,-2.25609756097561,124.75609756097562,0.0478515625,0.0546875,-0.130859375
1001,3.306,IMU2,90.42682926829269,-2.1341463414634148,124.57317073170732,0.041015625,0.05078125,-0.130859375
1002,3.316,IMU0,85.3658536585366,-1.8902439024390245,122.6829268292683,0.060546875,0.0439453125,-0.16015625
1003,3.316,IMU1,88.53658536585367,-1.8902439024390245,122.8658536585366,0.0576171875,0.0556640625,-0.1474609375
1004,3.316,IMU2,86.64634146341464,-1.3414634146341464,122.6829268292683,0.04296875,0.046875,-0.1357421875
1005,3.326,IMU0,82.5609756097561,-0.30487804878048785,121.03658536585367,0.056640625,0.0498046875,-0.1318359375
1006,3.326,IMU1,85.67073170731707,-0.3658536585365854,121.28048780487806,0.052734375,0.060546875,-0.1220703125
1007,3.326,IMU2,84.02439024390245,-0.06097560975609757,121.09756097560977,0.044921875,0.056640625,-0.1279296875
1008,3.336,IMU0,79.69512195121952,0.3658536585365854,120.06097560975611,0.0869140625,0.0634765625,-0.1494140625
1009,3.336,IMU1,82.7439024390244,0.30487804878048785,120.3048780487805,0.0791015625,0.07421875,-0.142578125
1010,3.336,IMU2,81.21951219512196,0.5487804878048781,120.00000000000001,0.0703125,0.0634765625,-0.1474609375
1011,3.346,IMU0,77.37804878048782,0.3658536585365854,119.02439024390245,0.09375,0.041015625,-0.130859375
1012,3.346,IMU1,80.54878048780489,0.24390243902439027,119.26829268292684,0.0859375,0.052734375,-0.1279296875
1013,3.346,IMU2,78.96341463414635,0.6097560975609757,118.84146341463416,0.0771484375,0.0439453125,-0.126953125
1014,3.356,IMU0,75.79268292682927,-0.12195121951219513,117.6829268292683,0.11328125,0.0478515625,-0.1484375
1015,3.356,IMU1,78.90243902439025,-0.24390243902439027,117.92682926829269,0.103515625,0.05859375,-0.14453125
1016,3.356,IMU2,77.25609756097562,0.12195121951219513,117.50000000000001,0.1005859375,0.0576171875,-0.140625
1017,3.366,IMU0,73.78048780487805,-2.378048780487805,116.82926829268294,0.1064453125,0.0205078125,-0.1435546875
1018,3.366,IMU1,76.95121951219512,-2.439024390243903,116.95121951219514,0.103515625,0.033203125,-0.1328125
1019,3.366,IMU2,75.1829268292683,-2.439024390243903,116.89024390243904,0.0927734375,0.025390625,-0.13671875
1020,3.376,IMU0,68.65853658536587,-4.634146341463415,115.67073170731709,0.1513671875,-0.0048828125,-0.1484375
1021,3.376,IMU1,71.82926829268294,-4.817073170731708,115.79268292682927,0.1474609375,0.009765625,-0.1376953125
1022,3.376,IMU2,70.0,-4.695121951219512,115.60975609756099,0.130859375,-0.0068359375,-0.1318359375
1023,3.386,IMU0,61.89024390243903,-7.8048780487804885,113.53658536585367,0.142578125,0.00390625,-0.16015625
1024,3.386,IMU1,65.1829268292683,-8.109756097560977,113.53658536585367,0.1396484375,0.0166015625,-0.1484375
1025,3.386,IMU2,62.926829268292686,-7.439024390243903,113.35365853658537,0.130859375,0.0087890625,-0.142578125
1026,3.396,IMU0,55.85365853658537,-10.853658536585368,111.89024390243904,0.181640625,-0.0087890625,-0.1591796875
1027,3.396,IMU1,59.085365853658544,-11.158536585365855,112.01219512195122,0.1708984375,0.00390625,-0.1484375
1028,3.396,IMU2,57.25609756097561,-10.487804878048781,111.15853658536587,0.1640625,0.0,-0.1435546875
1029,3.406,IMU0,49.87804878048781,-13.475609756097562,108.65853658536587,0.169921875,0.0126953125,-0.134765625
1030,3.406,IMU1,53.29268292682927,-13.841463414634148,108.65853658536587,0.1611328125,0.0244140625,-0.1220703125
1031,3.406,IMU2,51.03658536585366,-13.963414634146343,107.8658536585366,0.1484375,0.0166015625,-0.1298828125
1032,3.416,IMU0,45.1219512195122,-16.70731707317073,104.63414634146342,0.18359375,0.005859375,-0.1513671875
1033,3.416,IMU1,48.47560975609756,-17.25609756097561,104.57317073170732,0.1728515625,0.0166015625,-0.140625
1034,3.416,IMU2,46.21951219512196,-16.402439024390244,103.78048780487806,0.162109375,0.0146484375,-0.123046875
1035,3.426,IMU0,40.85365853658537,-21.03658536585366,100.48780487804879,0.1357421875,0.0205078125,-0.166015625
1036,3.426,IMU1,44.268292682926834,-21.646341463414636,100.42682926829269,0.1220703125,0.03125,-0.1533203125
1037,3.426,IMU2,42.01219512195122,-20.731707317073173,99.63414634146342,0.130859375,0.021484375,-0.15625
1038,3.436,IMU0,37.987804878048784,-22.80487804878049,97.6219512195122,0.126953125,0.029296875,-0.1328125
1039,3.436,IMU1,41.28048780487805,-23.414634146341466,97.43902439024392,0.1181640625,0.0390625,-0.123046875
1040,3.436,IMU2,39.57317073170732,-23.04878048780488,97.07317073170732,0.1015625,0.041015625,-0.130859375
1041,3.446,IMU0,35.73170731707317,-25.365853658536587,94.39024390243904,0.1259765625,0.0390625,-0.1455078125
1042,3.446,IMU1,39.146341463414636,-26.03658536585366,94.20731707317074,0.1201171875,0.0498046875,-0.134765625
1043,3.446,IMU2,37.07317073170732,-25.54878048780488,93.84146341463415,0.10546875,0.041015625,-0.1298828125
1044,3.456,IMU0,33.35365853658537,-27.743902439024392,92.5609756097561,0.119140625,0.0283203125,-0.1484375
1045,3.456,IMU1,36.768292682926834,-28.475609756097562,92.31707317073172,0.1103515625,0.0390625,-0.142578125
1046,3.456,IMU2,35.0,-27.25609756097561,91.76829268292684,0.0966796875,0.03515625,-0.1376953125
1047,3.466,IMU0,32.987804878048784,-28.902439024390247,89.45121951219512,0.095703125,0.0400390625,-0.115234375
1048,3.466,IMU1,36.34146341463415,-30.182926829268297,88.78048780487805,0.0869140625,0.048828125,-0.107421875
1049,3.466,IMU2,34.63414634146342,-29.146341463414636,88.53658536585367,0.083984375,0.04296875,-0.123046875
1050,3.476,IMU0,30.670731707317074,-29.32926829268293,86.89024390243904,0.09765625,0.0263671875,-0.1123046875
1051,3.476,IMU1,34.024390243902445,-30.30487804878049,86.70731707317074,0.09375,0.037109375,-0.1083984375
1052,3.476,IMU2,31.646341463414636,-29.08536585365854,86.21951219512196,0.0634765625,0.025390625,-0.0810546875
1053,3.486,IMU0,28.59756097560976,-30.0609756097561,84.39024390243902,0.0869140625,0.0068359375,-0.1123046875
1054,3.486,IMU1,31.82926829268293,-30.60975609756098,83.90243902439025,0.0732421875,0.017578125,-0.09765625
1055,3.486,IMU2,30.000000000000004,-29.634146341463417,83.59756097560977,0.0625,0.0087890625,-0.0966796875
1056,3.496,IMU0,25.30487804878049,-30.0609756097561,81.95121951219512,0.0791015625,0.0361328125,-0.1279296875
1057,3.496,IMU1,28.231707317073173,-31.280487804878053,81.58536585365854,0.0732421875,0.0419921875,-0.11328125
1058,3.496,IMU2,26.402439024390247,-30.182926829268297,81.21951219512196,0.0595703125,0.037109375,-0.1201171875
1059,3.506,IMU0,22.134146341463417,-29.695121951219516,78.96341463414635,0.0771484375,-0.005859375,-0.1435546875
1060,3.506,IMU1,25.182926829268293,-30.60975609756098,78.47560975609757,0.076171875,0.0009765625,-0.138671875
1061,3.506,IMU2,23.29268292682927,-29.39024390243903,78.10975609756099,0.064453125,-0.0087890625,-0.1357421875
1062,3.516,IMU0,17.865853658536587,-27.378048780487806,74.08536585365854,0.0771484375,-0.001953125,-0.1171875
1063,3.516,IMU1,20.731707317073173,-28.658536585365855,73.59756097560977,0.0732421875,0.0126953125,-0.1240234375
1064,3.516,IMU2,18.963414634146343,-27.439024390243905,73.23170731707317,0.0634765625,0.0029296875,-0.123046875
1065,3.526,IMU0,14.390243902439027,-25.853658536585368,68.84146341463415,0.0859375,0.02734375,-0.1396484375
1066,3.526,IMU1,17.073170731707318,-26.76829268292683,68.23170731707317,0.0859375,0.0361328125,-0.1328125
1067,3.526,IMU2,15.30487804878049,-25.426829268292686,67.7439024390244,0.0771484375,0.0244140625,-0.1298828125
1068,3.536,IMU0,11.463414634146343,-24.512195121951223,64.9390243902439,0.0986328125,0.0029296875,-0.1337890625
1069,3.536,IMU1,14.390243902439027,-25.243902439024392,64.02439024390245,0.0908203125,0.01171875,-0.119140625
1070,3.536,IMU2,12.500000000000002,-23.963414634146343,63.47560975609757,0.0732421875,0.0,-0.119140625
1071,3.546,IMU0,8.231707317073171,-23.59756097560976,57.926829268292686,0.109375,0.0,-0.1552734375
1072,3.546,IMU1,10.975609756097562,-24.207317073170735,57.31707317073171,0.0986328125,0.0234375,-0.12890625
1073,3.546,IMU2,9.146341463414634,-22.80487804878049,56.82926829268293,0.0830078125,0.015625,-0.1259765625
1074,3.556,IMU0,5.487804878048781,-23.10975609756098,51.82926829268293,0.1123046875,-0.0009765625,-0.1396484375
1075,3.556,IMU1,8.109756097560977,-24.32926829268293,51.34146341463415,0.099609375,0.0185546875,-0.134765625
1076,3.556,IMU2,6.402439024390245,-22.926829268292686,50.85365853658537,0.0869140625,0.0078125,-0.13671875
1077,3.566,IMU0,2.9268292682926833,-22.743902439024392,47.31707317073171,0.109375,0.0244140625,-0.1201171875
1078,3.566,IMU1,5.487804878048781,-23.902439024390247,46.646341463414636,0.1103515625,0.025390625,-0.1123046875
1079,3.566,IMU2,3.780487804878049,-22.378048780487806,46.09756097560976,0.1015625,0.009765625,-0.115234375
1080,3.576,IMU0,0.9146341463414634,-22.80487804878049,43.59756097560976,0.095703125,0.0126953125,-0.13671875
1081,3.576,IMU1,3.536585365853659,-23.719512195121954,42.804878048780495,0.099609375,0.0126953125,-0.1279296875
1082,3.576,IMU2,1.707317073170732,-22.134146341463417,42.25609756097561,0.0927734375,-0.0009765625,-0.126953125
1083,3.586,IMU0,-1.6463414634146343,-21.890243902439025,38.84146341463415,0.1015625,0.0302734375,-0.1240234375
1084,3.586,IMU1,1.2804878048780488,-23.231707317073173,38.78048780487805,0.0966796875,0.0341796875,-0.1103515625
1085,3.586,IMU2,-0.426829268292683,-21.707317073170735,38.10975609756098,0.0849609375,0.01953125,-0.111328125
1086,3.596,IMU0,-2.987804878048781,-21.82926829268293,35.1829268292683,0.1083984375,0.0166015625,-0.1201171875
1087,3.596,IMU1,-0.30487804878048785,-23.29268292682927,34.93902439024391,0.0908203125,0.029296875,-0.1083984375
1088,3.596,IMU2,-2.073170731707317,-21.82926829268293,34.451219512195124,0.076171875,0.0185546875,-0.1083984375
1089,3.606,IMU0,-4.085365853658537,-21.76829268292683,32.6219512195122,0.08984375,0.03125,-0.115234375
1090,3.606,IMU1,-1.2195121951219514,-23.04878048780488,32.5,0.0830078125,0.0400390625,-0.1103515625
1091,3.606,IMU2,-2.804878048780488,-21.52439024390244,32.01219512195122,0.0732421875,0.0283203125,-0.1123046875
1092,3.616,IMU0,-3.7195121951219514,-21.76829268292683,29.573170731707318,0.08984375,0.03515625,-0.1025390625
1093,3.616,IMU1,-0.9146341463414634,-23.04878048780488,29.512195121951223,0.1005859375,0.041015625,-0.11328125
1094,3.616,IMU2,-2.5609756097560976,-21.52439024390244,28.902439024390247,0.0751953125,0.0322265625,-0.10546875
1095,3.626,IMU0,-3.231707317073171,-21.707317073170735,27.073170731707318,0.08984375,0.05078125,-0.1103515625
1096,3.626,IMU1,-0.426829268292683,-22.98780487804878,27.012195121951223,0.0810546875,0.060546875,-0.1044921875
1097,3.626,IMU2,-2.1951219512195124,-21.52439024390244,26.34146341463415,0.0751953125,0.0458984375,-0.1083984375
1098,3.636,IMU0,-1.524390243902439,-21.219512195121954,25.243902439024392,0.0791015625,0.0576171875,-0.0830078125
1099,3.636,IMU1,1.1585365853658538,-22.500000000000004,25.182926829268293,0.0693359375,0.06640625,-0.078125
1100,3.636,IMU2,-0.426829268292683,-21.03658536585366,24.573170731707318,0.0546875,0.052734375,-0.0869140625
1101,3.646,IMU0,-0.1829268292682927,-20.914634146341466,23.84146341463415,0.08203125,0.0576171875,-0.103515625
1102,3.646,IMU1,2.5609756097560976,-22.25609756097561,23.902439024390247,0.0791015625,0.06640625,-0.0966796875
