,ts,id,Gx,Gy,Gz,Ax,Ay,Az
0,0.01,IMU0,-0.12195121951219513,-0.48780487804878053,0.1829268292682927,-0.064453125,0.052734375,0.9169921875
1,0.01,IMU1,0.9146341463414634,-1.829268292682927,0.24390243902439027,-0.0849609375,0.06640625,0.9443359375
2,0.02,IMU0,-0.30487804878048785,0.3658536585365854,0.06097560975609757,-0.0634765625,0.0517578125,0.9189453125
3,0.02,IMU1,0.7317073170731708,-0.9146341463414634,0.1829268292682927,-0.0869140625,0.06640625,0.94921875
4,0.03,IMU0,-0.6707317073170732,-0.6707317073170732,0.1829268292682927,-0.0654296875,0.052734375,0.9150390625
5,0.03,IMU1,0.3658536585365854,-2.0121951219512195,0.30487804878048785,-0.0849609375,0.0673828125,0.939453125
6,0.04,IMU0,-0.6707317073170732,0.24390243902439027,0.12195121951219513,-0.064453125,0.0517578125,0.9052734375
7,0.04,IMU1,0.30487804878048785,-1.0975609756097562,0.1829268292682927,-0.0859375,0.0673828125,0.935546875
8,0.05,IMU0,-0.6097560975609757,-0.3658536585365854,0.1829268292682927,-0.064453125,0.052734375,0.90625
9,0.05,IMU1,0.426829268292683,-1.7682926829268295,0.24390243902439027,-0.0869140625,0.0673828125,0.9306640625
10,0.06,IMU0,-0.24390243902439027,0.1829268292682927,0.12195121951219513,-0.064453125,0.05078125,0.90625
11,0.06,IMU1,0.7926829268292683,-1.1585365853658538,0.1829268292682927,-0.0869140625,0.06640625,0.93359375
12,0.07,IMU0,-0.30487804878048785,-0.12195121951219513,0.1829268292682927,-0.064453125,0.0517578125,0.9072265625
13,0.07,IMU1,0.7317073170731708,-1.524390243902439,0.24390243902439027,-0.0859375,0.0673828125,0.935546875
14,0.08,IMU0,-0.24390243902439027,0.1829268292682927,0.12195121951219513,-0.064453125,0.052734375,0.9150390625
15,0.08,IMU1,0.7317073170731708,-1.0975609756097562,0.1829268292682927,-0.0869140625,0.068359375,0.9423828125
16,0.09,IMU0,-0.426829268292683,-0.12195121951219513,0.12195121951219513,-0.064453125,0.0517578125,0.916015625
17,0.09,IMU1,0.5487804878048781,-1.4634146341463417,0.1829268292682927,-0.0859375,0.0673828125,0.943359375
18,0.1,IMU0,-0.5487804878048781,-0.06097560975609757,0.12195121951219513,-0.064453125,0.05078125,0.9130859375
19,0.1,IMU1,0.48780487804878053,-1.402439024390244,0.12195121951219513,-0.0869140625,0.06640625,0.94140625
20,0.11,IMU0,-0.5487804878048781,-0.24390243902439027,0.1829268292682927,-0.0634765625,0.05078125,0.9072265625
21,0.11,IMU1,0.426829268292683,-1.4634146341463417,0.1829268292682927,-0.0859375,0.0673828125,0.9345703125
22,0.12,IMU0,-0.48780487804878053,0.0,0.12195121951219513,-0.064453125,0.052734375,0.9052734375
23,0.12,IMU1,0.48780487804878053,-1.3414634146341464,0.24390243902439027,-0.0849609375,0.068359375,0.93359375
24,0.13,IMU0,-0.30487804878048785,0.0,0.12195121951219513,-0.064453125,0.0517578125,0.9072265625
25,0.13,IMU1,0.6097560975609757,-1.3414634146341464,0.24390243902439027,-0.0849609375,0.0673828125,0.935546875
26,0.14,IMU0,-0.30487804878048785,0.0,0.12195121951219513,-0.0634765625,0.05078125,0.91015625
27,0.14,IMU1,0.6097560975609757,-1.3414634146341464,0.1829268292682927,-0.0849609375,0.0673828125,0.9375
28,0.15,IMU0,-0.426829268292683,0.0,0.12195121951219513,-0.0634765625,0.052734375,0.9130859375
29,0.15,IMU1,0.5487804878048781,-1.3414634146341464,0.1829268292682927,-0.0830078125,0.0673828125,0.9423828125
30,0.16,IMU0,-0.48780487804878053,0.0,0.12195121951219513,-0.064453125,0.0517578125,0.9130859375
31,0.16,IMU1,0.48780487804878053,-1.3414634146341464,0.1829268292682927,-0.0849609375,0.0673828125,0.9423828125
32,0.17,IMU0,-0.6097560975609757,-0.06097560975609757,0.1829268292682927,-0.064453125,0.0517578125,0.91015625
33,0.17,IMU1,0.3658536585365854,-1.3414634146341464,0.24390243902439027,-0.0849609375,0.0673828125,0.939453125
34,0.18,IMU0,-0.6097560975609757,-0.12195121951219513,0.12195121951219513,-0.064453125,0.0517578125,0.9091796875
35,0.18,IMU1,0.426829268292683,-1.402439024390244,0.1829268292682927,-0.0859375,0.0673828125,0.9365234375
36,0.19,IMU0,-0.48780487804878053,-0.06097560975609757,0.1829268292682927,-0.064453125,0.052734375,0.9091796875
37,0.19,IMU1,0.48780487804878053,-1.3414634146341464,0.1829268292682927,-0.0869140625,0.0673828125,0.9345703125
38,0.2,IMU0,-0.426829268292683,0.0,0.1829268292682927,-0.064453125,0.0517578125,0.9111328125
39,0.2,IMU1,0.6097560975609757,-1.2804878048780488,0.1829268292682927,-0.087890625,0.068359375,0.9384765625
40,0.21,IMU0,-0.3658536585365854,-0.06097560975609757,0.1829268292682927,-0.064453125,0.0517578125,0.9150390625
41,0.21,IMU1,0.6097560975609757,-1.3414634146341464,0.1829268292682927,-0.087890625,0.0673828125,0.94140625
42,0.22,IMU0,-0.3658536585365854,-0.06097560975609757,0.1829268292682927,-0.064453125,0.05078125,0.9140625
43,0.22,IMU1,0.6097560975609757,-1.2804878048780488,0.1829268292682927,-0.0869140625,0.0673828125,0.943359375
44,0.23,IMU0,-0.426829268292683,-0.12195121951219513,0.12195121951219513,-0.064453125,0.0517578125,0.9111328125
45,0.23,IMU1,0.5487804878048781,-1.3414634146341464,0.30487804878048785,-0.0859375,0.0673828125,0.94140625
46,0.24,IMU0,-0.48780487804878053,-0.12195121951219513,0.1829268292682927,-0.0654296875,0.0517578125,0.9091796875
47,0.24,IMU1,0.48780487804878053,-1.3414634146341464,0.30487804878048785,-0.0859375,0.0673828125,0.9375
48,0.25,IMU0,-0.48780487804878053,-0.06097560975609757,0.1829268292682927,-0.064453125,0.0517578125,0.90625
49,0.25,IMU1,0.48780487804878053,-1.402439024390244,0.30487804878048785,-0.0859375,0.0673828125,0.9365234375
50,0.26,IMU0,-0.426829268292683,-0.06097560975609757,0.1829268292682927,-0.064453125,0.05078125,0.9052734375
51,0.26,IMU1,0.48780487804878053,-1.3414634146341464,0.24390243902439027,-0.0859375,0.0673828125,0.93359375
52,0.27,IMU0,-0.426829268292683,0.0,0.1829268292682927,-0.064453125,0.0517578125,0.91015625
53,0.27,IMU1,0.5487804878048781,-1.3414634146341464,0.24390243902439027,-0.0859375,0.0673828125,0.935546875
54,0.28,IMU0,-0.3658536585365854,0.0,0.1829268292682927,-0.064453125,0.05078125,0.9111328125
55,0.28,IMU1,0.6097560975609757,-1.2804878048780488,0.1829268292682927,-0.0859375,0.0673828125,0.9375
56,0.29,IMU0,-0.426829268292683,0.0,0.1829268292682927,-0.064453125,0.0498046875,0.9130859375
57,0.29,IMU1,0.5487804878048781,-1.3414634146341464,0.1829268292682927,-0.0859375,0.0673828125,0.9404296875
58,0.3,IMU0,-0.48780487804878053,-0.06097560975609757,0.1829268292682927,-0.064453125,0.05078125,0.9111328125
59,0.3,IMU1,0.5487804878048781,-1.4634146341463417,0.1829268292682927,-0.0859375,0.0673828125,0.939453125
60,0.31,IMU0,-0.48780487804878053,-0.12195121951219513,0.1829268292682927,-0.064453125,0.0517578125,0.9111328125
61,0.31,IMU1,0.48780487804878053,-1.4634146341463417,0.1829268292682927,-0.0849609375,0.0673828125,0.9384765625
62,0.32,IMU0,-0.48780487804878053,-0.12195121951219513,0.1829268292682927,-0.0634765625,0.0517578125,0.91015625
63,0.32,IMU1,0.48780487804878053,-1.3414634146341464,0.24390243902439027,-0.0859375,0.0673828125,0.935546875
64,0.33,IMU0,-0.48780487804878053,-0.06097560975609757,0.1829268292682927,-0.064453125,0.0517578125,0.908203125
65,0.33,IMU1,0.48780487804878053,-1.402439024390244,0.24390243902439027,-0.0869140625,0.0673828125,0.9365234375
66,0.34,IMU0,-0.426829268292683,0.06097560975609757,0.1829268292682927,-0.064453125,0.0517578125,0.9111328125
67,0.34,IMU1,0.5487804878048781,-1.402439024390244,0.24390243902439027,-0.0859375,0.06640625,0.9365234375
68,0.35,IMU0,-0.426829268292683,0.0,0.1829268292682927,-0.064453125,0.05078125,0.9111328125
69,0.35,IMU1,0.5487804878048781,-1.402439024390244,0.1829268292682927,-0.0849609375,0.06640625,0.9384765625
70,0.36,IMU0,-0.48780487804878053,0.0,0.12195121951219513,-0.064453125,0.0517578125,0.912109375
71,0.36,IMU1,0.5487804878048781,-1.402439024390244,0.24390243902439027,-0.0849609375,0.06640625,0.939453125
72,0.37,IMU0,-0.5487804878048781,-0.06097560975609757,0.12195121951219513,-0.0634765625,0.0517578125,0.912109375
73,0.37,IMU1,0.48780487804878053,-1.402439024390244,0.24390243902439027,-0.0849609375,0.06640625,0.9384765625
74,0.38,IMU0,-0.48780487804878053,-0.06097560975609757,0.12195121951219513,-0.0634765625,0.0517578125,0.91015625
75,0.38,IMU1,0.48780487804878053,-1.402439024390244,0.24390243902439027,-0.0859375,0.06640625,0.9375
76,0.39,IMU0,-0.48780487804878053,-0.06097560975609757,0.1829268292682927,-0.0634765625,0.05078125,0.90625
77,0.39,IMU1,0.426829268292683,-1.402439024390244,0.24390243902439027,-0.0869140625,0.0673828125,0.9345703125
78,0.4,IMU0,-0.426829268292683,0.0,0.12195121951219513,-0.0634765625,0.0498046875,0.908203125
79,0.4,IMU1,0.48780487804878053,-1.3414634146341464,0.24390243902439027,-0.0859375,0.068359375,0.935546875
80,0.41,IMU0,-0.426829268292683,0.0,0.12195121951219513,-0.0634765625,0.0498046875,0.91015625
81,0.41,IMU1,0.5487804878048781,-1.3414634146341464,0.24390243902439027,-0.0869140625,0.0673828125,0.9365234375
82,0.42,IMU0,-0.426829268292683,0.0,0.06097560975609757,-0.0634765625,0.0517578125,0.912109375
83,0.42,IMU1,0.5487804878048781,-1.2804878048780488,0.24390243902439027,-0.0869140625,0.06640625,0.9375
84,0.43,IMU0,-0.426829268292683,-0.06097560975609757,0.12195121951219513,-0.064453125,0.0517578125,0.9130859375
85,0.43,IMU1,0.5487804878048781,-1.3414634146341464,0.24390243902439027,-0.0869140625,0.06640625,0.9384765625
86,0.44,IMU0,-0.426829268292683,-0.06097560975609757,0.12195121951219513,-0.0634765625,0.0517578125,0.9130859375
87,0.44,IMU1,0.5487804878048781,-1.3414634146341464,0.24390243902439027,-0.0859375,0.0673828125,0.9404296875
88,0.45,IMU0,-0.48780487804878053,-0.12195121951219513,0.12195121951219513,-0.064453125,0.0517578125,0.9091796875
89,0.45,IMU1,0.5487804878048781,-1.402439024390244,0.24390243902439027,-0.0869140625,0.0673828125,0.9384765625
90,0.46,IMU0,-0.426829268292683,-0.12195121951219513,0.12195121951219513,-0.064453125,0.052734375,0.9072265625
91,0.46,IMU1,0.48780487804878053,-1.402439024390244,0.24390243902439027,-0.0869140625,0.06640625,0.9365234375
92,0.47,IMU0,-0.48780487804878053,-0.06097560975609757,0.12195121951219513,-0.064453125,0.0517578125,0.908203125
93,0.47,IMU1,0.48780487804878053,-1.3414634146341464,0.24390243902439027,-0.0859375,0.0673828125,0.9365234375
94,0.48,IMU0,-0.426829268292683,-0.06097560975609757,0.12195121951219513,-0.064453125,0.05078125,0.9072265625
95,0.48,IMU1,0.5487804878048781,-1.3414634146341464,0.24390243902439027,-0.0859375,0.0654296875,0.9365234375
96,0.49,IMU0,-0.3658536585365854,0.0,0.12195121951219513,-0.0654296875,0.0517578125,0.9091796875
97,0.49,IMU1,0.6097560975609757,-1.3414634146341464,0.30487804878048785,-0.0859375,0.0673828125,0.939453125
98,0.5,IMU0,-0.426829268292683,0.0,0.12195121951219513,-0.0654296875,0.0517578125,0.9140625
99,0.5,IMU1,0.6097560975609757,-1.3414634146341464,0.30487804878048785,-0.0869140625,0.0673828125,0.94140625
100,0.51,IMU0,-0.48780487804878053,-0.06097560975609757,0.12195121951219513,-0.064453125,0.052734375,0.9130859375
101,0.51,IMU1,0.5487804878048781,-1.3414634146341464,0.30487804878048785,-0.0859375,0.0673828125,0.9404296875
102,0.52,IMU0,-0.48780487804878053,-0.06097560975609757,0.12195121951219513,-0.0634765625,0.052734375,0.91015625
103,0.52,IMU1,0.48780487804878053,-1.402439024390244,0.24390243902439027,-0.0859375,0.0654296875,0.9384765625
104,0.53,IMU0,-0.48780487804878053,-0.06097560975609757,0.1829268292682927,-0.064453125,0.052734375,0.908203125
105,0.53,IMU1,0.48780487804878053,-1.402439024390244,0.24390243902439027,-0.0869140625,0.0654296875,0.9365234375
106,0.54,IMU0,-0.426829268292683,-0.06097560975609757,0.1829268292682927,-0.0634765625,0.0517578125,0.9072265625
107,0.54,IMU1,0.426829268292683,-1.3414634146341464,0.24390243902439027,-0.0859375,0.06640625,0.9375
108,0.55,IMU0,-0.48780487804878053,0.0,0.1829268292682927,-0.0634765625,0.0517578125,0.90625
109,0.55,IMU1,0.5487804878048781,-1.3414634146341464,0.24390243902439027,-0.0869140625,0.06640625,0.9384765625
110,0.56,IMU0,-0.426829268292683,-0.06097560975609757,0.1829268292682927,-0.0634765625,0.0517578125,0.9091796875
111,0.56,IMU1,0.5487804878048781,-1.402439024390244,0.1829268292682927,-0.0869140625,0.06640625,0.9404296875
112,0.57,IMU0,-0.426829268292683,-0.06097560975609757,0.12195121951219513,-0.0634765625,0.0517578125,0.912109375
113,0.57,IMU1,0.5487804878048781,-1.3414634146341464,0.24390243902439027,-0.0869140625,0.06640625,0.94140625
114,0.58,IMU0,-0.426829268292683,-0.12195121951219513,0.12195121951219513,-0.0634765625,0.0517578125,0.912109375
115,0.58,IMU1,0.5487804878048781,-1.3414634146341464,0.24390243902439027,-0.0859375,0.068359375,0.939453125
116,0.59,IMU0,-0.5487804878048781,-0.12195121951219513,0.12195121951219513,-0.064453125,0.0517578125,0.9091796875
117,0.59,IMU1,0.48780487804878053,-1.3414634146341464,0.1829268292682927,-0.0859375,0.0673828125,0.9375
118,0.6,IMU0,-0.48780487804878053,-0.06097560975609757,0.12195121951219513,-0.064453125,0.0517578125,0.908203125
119,0.6,IMU1,0.426829268292683,-1.3414634146341464,0.1829268292682927,-0.0859375,0.0673828125,0.935546875
120,0.61,IMU0,-0.48780487804878053,-0.12195121951219513,0.12195121951219513,-0.064453125,0.0517578125,0.9091796875
121,0.61,IMU1,0.48780487804878053,-1.3414634146341464,0.12195121951219513,-0.0869140625,0.068359375,0.9345703125
122,0.62,IMU0,-0.426829268292683,-0.06097560975609757,0.12195121951219513,-0.064453125,0.0517578125,0.9091796875
123,0.62,IMU1,0.6097560975609757,-1.3414634146341464,0.1829268292682927,-0.0859375,0.068359375,0.9375
124,0.63,IMU0,-0.3658536585365854,-0.12195121951219513,0.1829268292682927,-0.064453125,0.0517578125,0.912109375
125,0.63,IMU1,0.6097560975609757,-1.3414634146341464,0.1829268292682927,-0.0859375,0.068359375,0.9404296875
126,0.64,IMU0,-0.3658536585365854,-0.06097560975609757,0.1829268292682927,-0.0634765625,0.05078125,0.912109375
127,0.64,IMU1,0.5487804878048781,-1.402439024390244,0.1829268292682927,-0.0859375,0.0673828125,0.939453125
128,0.65,IMU0,-0.426829268292683,-0.06097560975609757,0.12195121951219513,-0.0634765625,0.05078125,0.9111328125
129,0.65,IMU1,0.5487804878048781,-1.402439024390244,0.1829268292682927,-0.0849609375,0.0673828125,0.9384765625
130,0.66,IMU0,-0.426829268292683,-0.06097560975609757,0.12195121951219513,-0.064453125,0.0498046875,0.9091796875
131,0.66,IMU1,0.48780487804878053,-1.402439024390244,0.1829268292682927,-0.0859375,0.06640625,0.9375
132,0.67,IMU0,-0.426829268292683,-0.06097560975609757,0.1829268292682927,-0.064453125,0.0498046875,0.9072265625
133,0.67,IMU1,0.48780487804878053,-1.402439024390244,0.24390243902439027,-0.0859375,0.06640625,0.9375
134,0.68,IMU0,-0.426829268292683,-0.06097560975609757,0.1829268292682927,-0.064453125,0.0517578125,0.908203125
135,0.68,IMU1,0.48780487804878053,-1.4634146341463417,0.1829268292682927,-0.0869140625,0.06640625,0.9384765625
136,0.69,IMU0,-0.3658536585365854,0.0,0.12195121951219513,-0.0634765625,0.0517578125,0.91015625
137,0.69,IMU1,0.5487804878048781,-1.3414634146341464,0.24390243902439027,-0.0859375,0.06640625,0.9384765625
138,0.7,IMU0,-0.426829268292683,-0.06097560975609757,0.12195121951219513,-0.0634765625,0.052734375,0.91015625
139,0.7,IMU1,0.5487804878048781,-1.3414634146341464,0.24390243902439027,-0.087890625,0.06640625,0.9404296875
140,0.71,IMU0,-0.426829268292683,0.0,0.12195121951219513,-0.0634765625,0.052734375,0.91015625
141,0.71,IMU1,0.5487804878048781,-1.402439024390244,0.24390243902439027,-0.0859375,0.0673828125,0.9404296875
142,0.72,IMU0,-0.48780487804878053,-0.06097560975609757,0.12195121951219513,-0.064453125,0.0537109375,0.9111328125
143,0.72,IMU1,0.48780487804878053,-1.402439024390244,0.24390243902439027,-0.0859375,0.0673828125,0.9384765625
144,0.73,IMU0,-0.48780487804878053,-0.06097560975609757,0.1829268292682927,-0.0634765625,0.0517578125,0.912109375
145,0.73,IMU1,0.48780487804878053,-1.402439024390244,0.24390243902439027,-0.0869140625,0.068359375,0.9375
146,0.74,IMU0,-0.48780487804878053,-0.06097560975609757,0.1829268292682927,-0.0625,0.0517578125,0.912109375
147,0.74,IMU1,0.48780487804878053,-1.3414634146341464,0.24390243902439027,-0.0849609375,0.0673828125,0.9365234375
148,0.75,IMU0,-0.426829268292683,0.0,0.1829268292682927,-0.0634765625,0.052734375,0.9091796875
149,0.75,IMU1,0.5487804878048781,-1.3414634146341464,0.24390243902439027,-0.0859375,0.0673828125,0.9375
150,0.76,IMU0,-0.426829268292683,-0.06097560975609757,0.1829268292682927,-0.064453125,0.0517578125,0.91015625
151,0.76,IMU1,0.5487804878048781,-1.402439024390244,0.24390243902439027,-0.0859375,0.06640625,0.939453125
152,0.77,IMU0,-0.426829268292683,0.0,0.12195121951219513,-0.064453125,0.0517578125,0.912109375
153,0.77,IMU1,0.5487804878048781,-1.3414634146341464,0.1829268292682927,-0.0849609375,0.06640625,0.939453125
154,0.78,IMU0,-0.3658536585365854,-0.06097560975609757,0.1829268292682927,-0.0634765625,0.0517578125,0.912109375
155,0.78,IMU1,0.5487804878048781,-1.3414634146341464,0.1829268292682927,-0.0859375,0.0673828125,0.939453125
156,0.79,IMU0,-0.426829268292683,-0.06097560975609757,0.12195121951219513,-0.064453125,0.0517578125,0.9111328125
157,0.79,IMU1,0.5487804878048781,-1.402439024390244,0.1829268292682927,-0.0859375,0.0673828125,0.9384765625
158,0.8,IMU0,-0.426829268292683,-0.06097560975609757,0.12195121951219513,-0.064453125,0.0517578125,0.91015625
159,0.8,IMU1,0.48780487804878053,-1.3414634146341464,0.24390243902439027,-0.0859375,0.0673828125,0.939453125
160,0.81,IMU0,-0.48780487804878053,-0.06097560975609757,0.12195121951219513,-0.064453125,0.05078125,0.912109375
161,0.81,IMU1,0.48780487804878053,-1.402439024390244,0.24390243902439027,-0.0859375,0.06640625,0.9384765625
162,0.82,IMU0,-0.426829268292683,0.0,0.12195121951219513,-0.0634765625,0.05078125,0.9111328125
163,0.82,IMU1,0.48780487804878053,-1.402439024390244,0.30487804878048785,-0.0859375,0.06640625,0.9365234375
164,0.83,IMU0,-0.426829268292683,0.0,0.12195121951219513,-0.064453125,0.0517578125,0.91015625
165,0.83,IMU1,0.48780487804878053,-1.4634146341463417,0.24390243902439027,-0.0859375,0.06640625,0.9384765625
166,0.84,IMU0,-0.426829268292683,0.0,0.12195121951219513,-0.064453125,0.052734375,0.9091796875
167,0.84,IMU1,0.48780487804878053,-1.402439024390244,0.1829268292682927,-0.0859375,0.0654296875,0.9384765625
168,0.85,IMU0,-0.48780487804878053,0.0,0.12195121951219513,-0.064453125,0.0517578125,0.908203125
169,0.85,IMU1,0.48780487804878053,-1.402439024390244,0.24390243902439027,-0.0849609375,0.06640625,0.9384765625
170,0.86,IMU0,-0.48780487804878053,0.0,0.12195121951219513,-0.0654296875,0.05078125,0.9091796875
171,0.86,IMU1,0.48780487804878053,-1.402439024390244,0.1829268292682927,-0.0849609375,0.0673828125,0.9384765625
172,0.87,IMU0,-0.5487804878048781,0.0,0.12195121951219513,-0.064453125,0.0517578125,0.9111328125
173,0.87,IMU1,0.48780487804878053,-1.402439024390244,0.1829268292682927,-0.0859375,0.0673828125,0.9384765625
174,0.88,IMU0,-0.48780487804878053,0.0,0.12195121951219513,-0.064453125,0.0517578125,0.9111328125
175,0.88,IMU1,0.5487804878048781,-1.3414634146341464,0.24390243902439027,-0.0849609375,0.0673828125,0.9375
176,0.89,IMU0,-0.426829268292683,0.0,0.1829268292682927,-0.0634765625,0.0517578125,0.9111328125
177,0.89,IMU1,0.5487804878048781,-1.3414634146341464,0.24390243902439027,-0.0859375,0.0673828125,0.939453125
178,0.9,IMU0,-0.48780487804878053,-0.06097560975609757,0.1829268292682927,-0.064453125,0.0517578125,0.9111328125
179,0.9,IMU1,0.5487804878048781,-1.3414634146341464,0.24390243902439027,-0.0849609375,0.0673828125,0.9404296875
180,0.91,IMU0,-0.48780487804878053,-0.06097560975609757,0.12195121951219513,-0.0634765625,0.0517578125,0.9111328125
181,0.91,IMU1,0.48780487804878053,-1.402439024390244,0.24390243902439027,-0.0849609375,0.06640625,0.9404296875
182,0.92,IMU0,-0.48780487804878053,-0.06097560975609757,0.12195121951219513,-0.0634765625,0.0517578125,0.908203125
183,0.92,IMU1,0.48780487804878053,-1.402439024390244,0.24390243902439027,-0.0849609375,0.0673828125,0.939453125
184,0.93,IMU0,-0.426829268292683,-0.06097560975609757,0.12195121951219513,-0.0625,0.0517578125,0.9091796875
185,0.93,IMU1,0.48780487804878053,-1.402439024390244,0.24390243902439027,-0.0849609375,0.0673828125,0.939453125
186,0.94,IMU0,-0.426829268292683,-0.06097560975609757,0.12195121951219513,-0.0625,0.0517578125,0.9091796875
187,0.94,IMU1,0.48780487804878053,-1.3414634146341464,0.1829268292682927,-0.0859375,0.068359375,0.939453125
188,0.95,IMU0,-0.48780487804878053,-0.06097560975609757,0.12195121951219513,-0.0625,0.0517578125,0.91015625
189,0.95,IMU1,0.5487804878048781,-1.3414634146341464,0.1829268292682927,-0.0859375,0.068359375,0.9375
190,0.96,IMU0,-0.48780487804878053,-0.06097560975609757,0.12195121951219513,-0.0634765625,0.05078125,0.9111328125
191,0.96,IMU1,0.5487804878048781,-1.3414634146341464,0.1829268292682927,-0.0859375,0.0673828125,0.9375
192,0.97,IMU0,-0.48780487804878053,-0.06097560975609757,0.12195121951219513,-0.0634765625,0.05078125,0.9111328125
193,0.97,IMU1,0.5487804878048781,-1.3414634146341464,0.24390243902439027,-0.0859375,0.06640625,0.9375
194,0.98,IMU0,-0.48780487804878053,-0.06097560975609757,0.12195121951219513,-0.064453125,0.05078125,0.912109375
195,0.98,IMU1,0.5487804878048781,-1.402439024390244,0.1829268292682927,-0.0859375,0.0654296875,0.939453125
196,0.99,IMU0,-0.48780487804878053,-0.06097560975609757,0.1829268292682927,-0.0654296875,0.05078125,0.9111328125
197,0.99,IMU1,0.5487804878048781,-1.402439024390244,0.24390243902439027,-0.0859375,0.0673828125,0.9375
198,1.0,IMU0,-0.426829268292683,0.0,0.1829268292682927,-0.0634765625,0.05078125,0.912109375
199,1.0,IMU1,0.5487804878048781,-1.402439024390244,0.24390243902439027,-0.0859375,0.068359375,0.939453125
200,1.01,IMU0,-0.48780487804878053,0.0,0.1829268292682927,-0.064453125,0.0517578125,0.91015625
201,1.01,IMU1,0.5487804878048781,-1.402439024390244,0.1829268292682927,-0.0859375,0.068359375,0.9375
202,1.02,IMU0,-0.48780487804878053,0.0,0.1829268292682927,-0.0654296875,0.05078125,0.912109375
203,1.02,IMU1,0.5487804878048781,-1.402439024390244,0.1829268292682927,-0.0859375,0.0673828125,0.9375
204,1.03,IMU0,-0.426829268292683,-0.06097560975609757,0.1829268292682927,-0.064453125,0.0517578125,0.912109375
205,1.03,IMU1,0.48780487804878053,-1.3414634146341464,0.24390243902439027,-0.0849609375,0.0673828125,0.939453125
206,1.04,IMU0,-0.426829268292683,0.0,0.1829268292682927,-0.064453125,0.0517578125,0.912109375
207,1.04,IMU1,0.48780487804878053,-1.3414634146341464,0.24390243902439027,-0.0849609375,0.0673828125,0.9384765625
208,1.05,IMU0,-0.426829268292683,0.0,0.1829268292682927,-0.064453125,0.05078125,0.9111328125
209,1.05,IMU1,0.5487804878048781,-1.3414634146341464,0.30487804878048785,-0.083984375,0.068359375,0.939453125
210,1.06,IMU0,-0.48780487804878053,0.0,0.12195121951219513,-0.064453125,0.0517578125,0.9111328125
211,1.06,IMU1,0.5487804878048781,-1.402439024390244,0.24390243902439027,-0.0849609375,0.068359375,0.939453125
212,1.07,IMU0,-0.48780487804878053,0.0,0.1829268292682927,-0.064453125,0.05078125,0.91015625
213,1.07,IMU1,0.48780487804878053,-1.402439024390244,0.30487804878048785,-0.0849609375,0.068359375,0.939453125
214,1.08,IMU0,-0.426829268292683,-0.06097560975609757,0.12195121951219513,-0.0654296875,0.05078125,0.9111328125
215,1.08,IMU1,0.48780487804878053,-1.402439024390244,0.24390243902439027,-0.0859375,0.0673828125,0.9384765625
216,1.09,IMU0,-0.48780487804878053,-0.06097560975609757,0.12195121951219513,-0.06640625,0.0517578125,0.912109375
217,1.09,IMU1,0.48780487804878053,-1.3414634146341464,0.1829268292682927,-0.0859375,0.0673828125,0.9375
218,1.1,IMU0,-0.426829268292683,-0.06097560975609757,0.12195121951219513,-0.0654296875,0.05078125,0.912109375
219,1.1,IMU1,0.48780487804878053,-1.402439024390244,0.1829268292682927,-0.0869140625,0.06640625,0.9375
220,1.11,IMU0,-0.426829268292683,-0.06097560975609757,0.1829268292682927,-0.064453125,0.05078125,0.9111328125
221,1.11,IMU1,0.48780487804878053,-1.3414634146341464,0.1829268292682927,-0.0859375,0.06640625,0.9375
222,1.12,IMU0,-0.426829268292683,-0.06097560975609757,0.1829268292682927,-0.064453125,0.05078125,0.9111328125
223,1.12,IMU1,0.5487804878048781,-1.3414634146341464,0.24390243902439027,-0.0859375,0.06640625,0.9375
224,1.13,IMU0,-0.426829268292683,-0.06097560975609757,0.1829268292682927,-0.0654296875,0.05078125,0.9111328125
225,1.13,IMU1,0.5487804878048781,-1.402439024390244,0.24390243902439027,-0.0859375,0.0673828125,0.939453125
226,1.14,IMU0,-0.3658536585365854,-0.06097560975609757,0.1829268292682927,-0.064453125,0.05078125,0.9130859375
227,1.14,IMU1,0.5487804878048781,-1.402439024390244,0.1829268292682927,-0.0859375,0.0673828125,0.9404296875
228,1.15,IMU0,-0.3658536585365854,-0.06097560975609757,0.12195121951219513,-0.064453125,0.0498046875,0.9111328125
229,1.15,IMU1,0.5487804878048781,-1.402439024390244,0.24390243902439027,-0.0859375,0.068359375,0.9404296875
230,1.16,IMU0,-0.426829268292683,-0.06097560975609757,0.1829268292682927,-0.0634765625,0.0517578125,0.9111328125
231,1.16,IMU1,0.6097560975609757,-1.3414634146341464,0.24390243902439027,-0.0869140625,0.0673828125,0.939453125
232,1.17,IMU0,-0.3658536585365854,-0.06097560975609757,0.12195121951219513,-0.064453125,0.0517578125,0.9111328125
233,1.17,IMU1,0.5487804878048781,-1.402439024390244,0.24390243902439027,-0.0859375,0.06640625,0.939453125
234,1.18,IMU0,-0.3658536585365854,-0.06097560975609757,0.06097560975609757,-0.0634765625,0.05078125,0.9091796875
235,1.18,IMU1,0.6097560975609757,-1.4634146341463417,0.24390243902439027,-0.0869140625,0.0654296875,0.9384765625
236,1.19,IMU0,-0.426829268292683,-0.06097560975609757,0.12195121951219513,-0.064453125,0.0517578125,0.91015625
237,1.19,IMU1,0.6097560975609757,-1.402439024390244,0.1829268292682927,-0.0859375,0.0654296875,0.9384765625
238,1.2,IMU0,-0.3658536585365854,-0.06097560975609757,0.12195121951219513,-0.064453125,0.0517578125,0.9111328125
239,1.2,IMU1,0.6097560975609757,-1.402439024390244,0.1829268292682927,-0.0849609375,0.06640625,0.9375
240,1.21,IMU0,-0.3658536585365854,-0.06097560975609757,0.12195121951219513,-0.0654296875,0.05078125,0.91015625
241,1.21,IMU1,0.6097560975609757,-1.2804878048780488,0.24390243902439027,-0.0849609375,0.0673828125,0.939453125
242,1.22,IMU0,-0.3658536585365854,-0.06097560975609757,0.12195121951219513,-0.064453125,0.052734375,0.912109375
243,1.22,IMU1,0.5487804878048781,-1.3414634146341464,0.30487804878048785,-0.0859375,0.0673828125,0.9404296875
244,1.23,IMU0,-0.426829268292683,-0.12195121951219513,0.12195121951219513,-0.064453125,0.052734375,0.91015625
245,1.23,IMU1,0.5487804878048781,-1.402439024390244,0.24390243902439027,-0.0859375,0.0673828125,0.939453125
246,1.24,IMU0,-0.426829268292683,-0.12195121951219513,0.12195121951219513,-0.0634765625,0.052734375,0.9091796875
247,1.24,IMU1,0.5487804878048781,-1.402439024390244,0.24390243902439027,-0.0869140625,0.0673828125,0.939453125
248,1.25,IMU0,-0.426829268292683,-0.12195121951219513,0.12195121951219513,-0.064453125,0.052734375,0.908203125
249,1.25,IMU1,0.5487804878048781,-1.402439024390244,0.30487804878048785,-0.0859375,0.0673828125,0.9384765625
250,1.26,IMU0,-0.3658536585365854,-0.12195121951219513,0.12195121951219513,-0.064453125,0.052734375,0.9091796875
251,1.26,IMU1,0.5487804878048781,-1.402439024390244,0.24390243902439027,-0.0869140625,0.0673828125,0.9384765625
252,1.27,IMU0,-0.3658536585365854,-0.06097560975609757,0.12195121951219513,-0.064453125,0.052734375,0.91015625
253,1.27,IMU1,0.6097560975609757,-1.402439024390244,0.24390243902439027,-0.0859375,0.0673828125,0.939453125
254,1.28,IMU0,-0.3658536585365854,-0.06097560975609757,0.12195121951219513,-0.064453125,0.0517578125,0.9111328125
255,1.28,IMU1,0.6707317073170732,-1.4634146341463417,0.1829268292682927,-0.0849609375,0.0673828125,0.9384765625
256,1.29,IMU0,-0.3658536585365854,-0.06097560975609757,0.12195121951219513,-0.064453125,0.052734375,0.9111328125
257,1.29,IMU1,0.6707317073170732,-1.402439024390244,0.24390243902439027,-0.0859375,0.068359375,0.9384765625
258,1.3,IMU0,-0.3658536585365854,-0.06097560975609757,0.12195121951219513,-0.0634765625,0.052734375,0.9111328125
259,1.3,IMU1,0.6097560975609757,-1.402439024390244,0.24390243902439027,-0.0849609375,0.068359375,0.9384765625
260,1.31,IMU0,-0.3658536585365854,-0.06097560975609757,0.12195121951219513,-0.064453125,0.0517578125,0.9111328125
261,1.31,IMU1,0.5487804878048781,-1.402439024390244,0.24390243902439027,-0.083984375,0.068359375,0.9384765625
262,1.32,IMU0,-0.426829268292683,-0.06097560975609757,0.12195121951219513,-0.064453125,0.0517578125,0.912109375
263,1.32,IMU1,0.5487804878048781,-1.402439024390244,0.24390243902439027,-0.0849609375,0.0673828125,0.9384765625
264,1.33,IMU0,-0.426829268292683,-0.06097560975609757,0.12195121951219513,-0.064453125,0.05078125,0.91015625
265,1.33,IMU1,0.5487804878048781,-1.402439024390244,0.24390243902439027,-0.0849609375,0.06640625,0.9365234375
266,1.34,IMU0,-0.48780487804878053,-0.06097560975609757,0.12195121951219513,-0.064453125,0.05078125,0.908203125
267,1.34,IMU1,0.48780487804878053,-1.3414634146341464,0.24390243902439027,-0.0849609375,0.0673828125,0.9345703125
268,1.35,IMU0,-0.48780487804878053,-0.06097560975609757,0.12195121951219513,-0.064453125,0.05078125,0.91015625
269,1.35,IMU1,0.48780487804878053,-1.3414634146341464,0.1829268292682927,-0.0849609375,0.06640625,0.9365234375
270,1.36,IMU0,-0.426829268292683,0.0,0.12195121951219513,-0.0634765625,0.05078125,0.9130859375
271,1.36,IMU1,0.48780487804878053,-1.3414634146341464,0.24390243902439027,-0.0849609375,0.068359375,0.939453125
272,1.37,IMU0,-0.3658536585365854,-0.06097560975609757,0.12195121951219513,-0.064453125,0.0498046875,0.9130859375
273,1.37,IMU1,0.5487804878048781,-1.402439024390244,0.24390243902439027,-0.0859375,0.068359375,0.9404296875
274,1.38,IMU0,-0.426829268292683,-0.06097560975609757,0.12195121951219513,-0.064453125,0.05078125,0.91015625
275,1.38,IMU1,0.5487804878048781,-1.3414634146341464,0.24390243902439027,-0.0849609375,0.0673828125,0.9404296875
276,1.39,IMU0,-0.5487804878048781,-0.12195121951219513,0.12195121951219513,-0.064453125,0.0517578125,0.91015625
277,1.39,IMU1,0.426829268292683,-1.402439024390244,0.24390243902439027,-0.0859375,0.068359375,0.9375
278,1.4,IMU0,-0.5487804878048781,-0.06097560975609757,0.12195121951219513,-0.0634765625,0.05078125,0.908203125
279,1.4,IMU1,0.426829268292683,-1.3414634146341464,0.1829268292682927,-0.0859375,0.0673828125,0.9375
280,1.41,IMU0,-0.48780487804878053,0.0,0.12195121951219513,-0.0634765625,0.05078125,0.9091796875
281,1.41,IMU1,0.5487804878048781,-1.3414634146341464,0.24390243902439027,-0.0859375,0.0673828125,0.9365234375
282,1.42,IMU0,-0.3658536585365854,0.0,0.1829268292682927,-0.0634765625,0.0517578125,0.91015625
283,1.42,IMU1,0.6097560975609757,-1.3414634146341464,0.1829268292682927,-0.0859375,0.06640625,0.9384765625
284,1.43,IMU0,-0.3658536585365854,0.0,0.1829268292682927,-0.064453125,0.052734375,0.912109375
285,1.43,IMU1,0.7317073170731708,-1.3414634146341464,0.24390243902439027,-0.0859375,0.06640625,0.9404296875
286,1.44,IMU0,-0.426829268292683,-0.06097560975609757,0.1829268292682927,-0.064453125,0.0517578125,0.912109375
287,1.44,IMU1,0.5487804878048781,-1.402439024390244,0.24390243902439027,-0.0869140625,0.0673828125,0.9404296875
288,1.45,IMU0,-0.5487804878048781,0.0,0.12195121951219513,-0.0634765625,0.052734375,0.9111328125
289,1.45,IMU1,0.426829268292683,-1.3414634146341464,0.24390243902439027,-0.0869140625,0.0673828125,0.9384765625
290,1.46,IMU0,-0.5487804878048781,0.0,0.1829268292682927,-0.0634765625,0.0517578125,0.9091796875
291,1.46,IMU1,0.48780487804878053,-1.3414634146341464,0.1829268292682927,-0.0869140625,0.0673828125,0.9375
292,1.47,IMU0,-0.48780487804878053,0.0,0.1829268292682927,-0.064453125,0.0517578125,0.9091796875
293,1.47,IMU1,0.5487804878048781,-1.3414634146341464,0.24390243902439027,-0.087890625,0.0673828125,0.9384765625
294,1.48,IMU0,-0.426829268292683,0.0,0.1829268292682927,-0.064453125,0.0517578125,0.91015625
295,1.48,IMU1,0.5487804878048781,-1.3414634146341464,0.24390243902439027,-0.087890625,0.068359375,0.9375
296,1.49,IMU0,-0.426829268292683,0.0,0.12195121951219513,-0.0654296875,0.0517578125,0.9111328125
297,1.49,IMU1,0.48780487804878053,-1.402439024390244,0.1829268292682927,-0.0869140625,0.0673828125,0.9365234375
298,1.5,IMU0,-0.5487804878048781,-0.06097560975609757,0.12195121951219513,-0.064453125,0.0517578125,0.908203125
299,1.5,IMU1,0.3658536585365854,-1.402439024390244,0.1829268292682927,-0.0849609375,0.0673828125,0.935546875
300,1.51,IMU0,-0.6097560975609757,0.12195121951219513,0.12195121951219513,-0.064453125,0.052734375,0.9111328125
301,1.51,IMU1,0.24390243902439027,-1.2804878048780488,0.12195121951219513,-0.0859375,0.0673828125,0.9384765625
302,1.52,IMU0,-0.3658536585365854,-0.24390243902439027,0.12195121951219513,-0.064453125,0.052734375,0.912109375
303,1.52,IMU1,0.5487804878048781,-1.524390243902439,0.1829268292682927,-0.087890625,0.0673828125,0.943359375
304,1.53,IMU0,-0.48780487804878053,0.30487804878048785,0.06097560975609757,-0.0634765625,0.05078125,0.91015625
305,1.53,IMU1,0.48780487804878053,-1.0975609756097562,0.12195121951219513,-0.0869140625,0.06640625,0.939453125
306,1.54,IMU0,-0.3658536585365854,-0.24390243902439027,0.06097560975609757,-0.0654296875,0.052734375,0.9169921875
307,1.54,IMU1,0.6097560975609757,-1.5853658536585367,0.24390243902439027,-0.087890625,0.068359375,0.9462890625
308,1.55,IMU0,-0.48780487804878053,0.1829268292682927,0.06097560975609757,-0.0654296875,0.05078125,0.912109375
309,1.55,IMU1,0.426829268292683,-1.2195121951219514,0.24390243902439027,-0.0859375,0.06640625,0.939453125
310,1.56,IMU0,-0.5487804878048781,-0.24390243902439027,0.12195121951219513,-0.06640625,0.05078125,0.916015625
311,1.56,IMU1,0.3658536585365854,-1.6463414634146343,0.24390243902439027,-0.0869140625,0.0673828125,0.9423828125
312,1.57,IMU0,-0.48780487804878053,0.1829268292682927,0.06097560975609757,-0.064453125,0.0517578125,0.9091796875
313,1.57,IMU1,0.426829268292683,-1.2195121951219514,0.24390243902439027,-0.0859375,0.0673828125,0.9326171875
314,1.58,IMU0,-0.3658536585365854,-0.1829268292682927,0.12195121951219513,-0.0634765625,0.052734375,0.9111328125
315,1.58,IMU1,0.5487804878048781,-1.524390243902439,0.30487804878048785,-0.0859375,0.068359375,0.9384765625
316,1.59,IMU0,-0.30487804878048785,0.06097560975609757,0.1829268292682927,-0.0634765625,0.0517578125,0.9130859375
317,1.59,IMU1,0.6707317073170732,-1.2804878048780488,0.24390243902439027,-0.0869140625,0.0673828125,0.9384765625
318,1.6,IMU0,-0.426829268292683,-0.1829268292682927,0.12195121951219513,-0.0625,0.0517578125,0.91015625
319,1.6,IMU1,0.5487804878048781,-1.524390243902439,0.30487804878048785,-0.083984375,0.068359375,0.9365234375
320,1.61,IMU0,-0.48780487804878053,0.0,0.12195121951219513,-0.0634765625,0.052734375,0.912109375
321,1.61,IMU1,0.48780487804878053,-1.2804878048780488,0.24390243902439027,-0.0849609375,0.068359375,0.939453125
322,1.62,IMU0,-0.5487804878048781,-0.1829268292682927,0.12195121951219513,-0.064453125,0.0517578125,0.908203125
323,1.62,IMU1,0.5487804878048781,-1.4634146341463417,0.1829268292682927,-0.083984375,0.0673828125,0.935546875
324,1.63,IMU0,-0.48780487804878053,-0.06097560975609757,0.12195121951219513,-0.0654296875,0.05078125,0.9111328125
325,1.63,IMU1,0.5487804878048781,-1.3414634146341464,0.1829268292682927,-0.0859375,0.068359375,0.9384765625
326,1.64,IMU0,-0.426829268292683,-0.12195121951219513,0.1829268292682927,-0.0654296875,0.0517578125,0.9072265625
327,1.64,IMU1,0.5487804878048781,-1.402439024390244,0.24390243902439027,-0.0849609375,0.0673828125,0.9365234375
328,1.65,IMU0,-0.426829268292683,0.0,0.12195121951219513,-0.064453125,0.052734375,0.9091796875
329,1.65,IMU1,0.5487804878048781,-1.3414634146341464,0.24390243902439027,-0.0849609375,0.0673828125,0.9404296875
330,1.66,IMU0,-0.426829268292683,-0.06097560975609757,0.1829268292682927,-0.064453125,0.05078125,0.91015625
331,1.66,IMU1,0.5487804878048781,-1.3414634146341464,0.24390243902439027,-0.0869140625,0.06640625,0.9404296875
332,1.67,IMU0,-0.48780487804878053,-0.12195121951219513,0.24390243902439027,-0.064453125,0.0498046875,0.91015625
333,1.67,IMU1,0.48780487804878053,-1.3414634146341464,0.24390243902439027,-0.0869140625,0.06640625,0.939453125
334,1.68,IMU0,-0.5487804878048781,-0.12195121951219513,0.1829268292682927,-0.064453125,0.05078125,0.908203125
335,1.68,IMU1,0.48780487804878053,-1.3414634146341464,0.24390243902439027,-0.0859375,0.068359375,0.9384765625
336,1.69,IMU0,-0.48780487804878053,-0.12195121951219513,0.1829268292682927,-0.0634765625,0.0498046875,0.908203125
337,1.69,IMU1,0.48780487804878053,-1.402439024390244,0.24390243902439027,-0.0859375,0.068359375,0.9365234375
338,1.7,IMU0,-0.48780487804878053,0.0,0.12195121951219513,-0.0634765625,0.05078125,0.908203125
339,1.7,IMU1,0.48780487804878053,-1.3414634146341464,0.1829268292682927,-0.0859375,0.068359375,0.9365234375
340,1.71,IMU0,-0.5487804878048781,0.0,0.12195121951219513,-0.0634765625,0.052734375,0.908203125
341,1.71,IMU1,0.5487804878048781,-1.3414634146341464,0.1829268292682927,-0.0859375,0.068359375,0.9375
342,1.72,IMU0,-0.48780487804878053,0.0,0.12195121951219513,-0.0634765625,0.0517578125,0.912109375
343,1.72,IMU1,0.48780487804878053,-1.3414634146341464,0.1829268292682927,-0.0859375,0.0673828125,0.9384765625
344,1.73,IMU0,-0.48780487804878053,-0.06097560975609757,0.12195121951219513,-0.064453125,0.0517578125,0.9111328125
345,1.73,IMU1,0.48780487804878053,-1.402439024390244,0.12195121951219513,-0.0859375,0.0673828125,0.939453125
346,1.74,IMU0,-0.48780487804878053,-0.06097560975609757,0.12195121951219513,-0.0634765625,0.05078125,0.912109375
347,1.74,IMU1,0.48780487804878053,-1.402439024390244,0.1829268292682927,-0.0859375,0.06640625,0.939453125
348,1.75,IMU0,-0.48780487804878053,-0.06097560975609757,0.12195121951219513,-0.0634765625,0.05078125,0.9111328125
349,1.75,IMU1,0.48780487804878053,-1.402439024390244,0.24390243902439027,-0.0869140625,0.0673828125,0.9384765625
350,1.76,IMU0,-0.48780487804878053,-0.06097560975609757,0.12195121951219513,-0.0634765625,0.0498046875,0.9091796875
351,1.76,IMU1,0.48780487804878053,-1.402439024390244,0.1829268292682927,-0.0869140625,0.0673828125,0.9384765625
352,1.77,IMU0,-0.5487804878048781,-0.06097560975609757,0.12195121951219513,-0.0634765625,0.05078125,0.9091796875
353,1.77,IMU1,0.48780487804878053,-1.402439024390244,0.1829268292682927,-0.0859375,0.0673828125,0.9365234375
354,1.78,IMU0,-0.48780487804878053,-0.06097560975609757,0.12195121951219513,-0.0625,0.05078125,0.91015625
355,1.78,IMU1,0.48780487804878053,-1.3414634146341464,0.1829268292682927,-0.0859375,0.06640625,0.9375
356,1.79,IMU0,-0.48780487804878053,-0.06097560975609757,0.12195121951219513,-0.0634765625,0.0517578125,0.908203125
357,1.79,IMU1,0.48780487804878053,-1.402439024390244,0.1829268292682927,-0.0869140625,0.068359375,0.939453125
358,1.8,IMU0,-0.48780487804878053,-0.06097560975609757,0.06097560975609757,-0.0634765625,0.0517578125,0.9091796875
359,1.8,IMU1,0.48780487804878053,-1.3414634146341464,0.24390243902439027,-0.0869140625,0.068359375,0.9404296875
360,1.81,IMU0,-0.426829268292683,0.0,0.12195121951219513,-0.0634765625,0.0517578125,0.912109375
361,1.81,IMU1,0.48780487804878053,-1.402439024390244,0.24390243902439027,-0.0869140625,0.0673828125,0.94140625
362,1.82,IMU0,-0.426829268292683,-0.06097560975609757,0.12195121951219513,-0.0634765625,0.052734375,0.912109375
363,1.82,IMU1,0.5487804878048781,-1.402439024390244,0.24390243902439027,-0.087890625,0.068359375,0.9404296875
364,1.83,IMU0,-0.5487804878048781,-0.12195121951219513,0.12195121951219513,-0.0625,0.0517578125,0.9111328125
365,1.83,IMU1,0.48780487804878053,-1.4634146341463417,0.24390243902439027,-0.087890625,0.068359375,0.9375
366,1.84,IMU0,-0.5487804878048781,-0.12195121951219513,0.12195121951219513,-0.064453125,0.0517578125,0.91015625
367,1.84,IMU1,0.426829268292683,-1.402439024390244,0.24390243902439027,-0.0869140625,0.06640625,0.9384765625
368,1.85,IMU0,-0.5487804878048781,-0.12195121951219513,0.12195121951219513,-0.064453125,0.05078125,0.908203125
369,1.85,IMU1,0.426829268292683,-1.402439024390244,0.24390243902439027,-0.087890625,0.06640625,0.9375
370,1.86,IMU0,-0.48780487804878053,-0.06097560975609757,0.12195121951219513,-0.064453125,0.05078125,0.91015625
371,1.86,IMU1,0.48780487804878053,-1.402439024390244,0.24390243902439027,-0.0869140625,0.06640625,0.9375
372,1.87,IMU0,-0.3658536585365854,-0.06097560975609757,0.1829268292682927,-0.0625,0.05078125,0.912109375
373,1.87,IMU1,0.5487804878048781,-1.3414634146341464,0.24390243902439027,-0.0869140625,0.06640625,0.939453125
374,1.88,IMU0,-0.3658536585365854,0.0,0.1829268292682927,-0.0634765625,0.0498046875,0.9130859375
375,1.88,IMU1,0.6097560975609757,-1.402439024390244,0.24390243902439027,-0.0859375,0.06640625,0.94140625
376,1.89,IMU0,-0.48780487804878053,-0.06097560975609757,0.12195121951219513,-0.0634765625,0.05078125,0.9130859375
377,1.89,IMU1,0.48780487804878053,-1.402439024390244,0.24390243902439027,-0.0859375,0.06640625,0.94140625
378,1.9,IMU0,-0.5487804878048781,-0.06097560975609757,0.12195121951219513,-0.0634765625,0.0517578125,0.912109375
379,1.9,IMU1,0.426829268292683,-1.402439024390244,0.1829268292682927,-0.0859375,0.0673828125,0.94140625
380,1.91,IMU0,-0.48780487804878053,-0.06097560975609757,0.12195121951219513,-0.0634765625,0.0517578125,0.9091796875
381,1.91,IMU1,0.48780487804878053,-1.402439024390244,0.24390243902439027,-0.083984375,0.0673828125,0.939453125
382,1.92,IMU0,-0.426829268292683,-0.06097560975609757,0.1829268292682927,-0.064453125,0.0517578125,0.9091796875
383,1.92,IMU1,0.48780487804878053,-1.402439024390244,0.24390243902439027,-0.0849609375,0.0673828125,0.9384765625
384,1.93,IMU0,-0.3658536585365854,-0.06097560975609757,0.1829268292682927,-0.0654296875,0.0517578125,0.91015625
385,1.93,IMU1,0.48780487804878053,-1.402439024390244,0.24390243902439027,-0.0859375,0.068359375,0.9384765625
386,1.94,IMU0,-0.3658536585365854,-0.06097560975609757,0.1829268292682927,-0.0654296875,0.052734375,0.9111328125
387,1.94,IMU1,0.5487804878048781,-1.3414634146341464,0.24390243902439027,-0.0859375,0.06640625,0.9375
388,1.95,IMU0,-0.426829268292683,-0.06097560975609757,0.1829268292682927,-0.0654296875,0.0517578125,0.912109375
389,1.95,IMU1,0.48780487804878053,-1.3414634146341464,0.24390243902439027,-0.0859375,0.0673828125,0.9384765625
390,1.96,IMU0,-0.426829268292683,-0.06097560975609757,0.1829268292682927,-0.064453125,0.0517578125,0.912109375
391,1.96,IMU1,0.48780487804878053,-1.402439024390244,0.24390243902439027,-0.0859375,0.06640625,0.9375
392,1.97,IMU0,-0.426829268292683,-0.06097560975609757,0.24390243902439027,-0.0634765625,0.0517578125,0.9111328125
393,1.97,IMU1,0.48780487804878053,-1.3414634146341464,0.1829268292682927,-0.0859375,0.0673828125,0.9365234375
394,1.98,IMU0,-0.426829268292683,0.0,0.1829268292682927,-0.0634765625,0.05078125,0.91015625
395,1.98,IMU1,0.48780487804878053,-1.402439024390244,0.1829268292682927,-0.0849609375,0.0673828125,0.9365234375
396,1.99,IMU0,-0.426829268292683,-0.12195121951219513,0.1829268292682927,-0.0634765625,0.0517578125,0.9111328125
397,1.99,IMU1,0.5487804878048781,-1.402439024390244,0.24390243902439027,-0.0849609375,0.0673828125,0.935546875
398,2.0,IMU0,-0.426829268292683,-0.12195121951219513,0.1829268292682927,-0.0634765625,0.0517578125,0.9111328125
399,2.0,IMU1,0.5487804878048781,-1.402439024390244,0.1829268292682927,-0.0849609375,0.0673828125,0.9375
400,2.01,IMU0,-0.426829268292683,-0.06097560975609757,0.12195121951219513,-0.0634765625,0.0517578125,0.912109375
401,2.01,IMU1,0.5487804878048781,-1.402439024390244,0.1829268292682927,-0.0859375,0.0673828125,0.9384765625
402,2.02,IMU0,-0.48780487804878053,-0.06097560975609757,0.12195121951219513,-0.064453125,0.052734375,0.91015625
403,2.02,IMU1,0.48780487804878053,-1.402439024390244,0.24390243902439027,-0.0859375,0.0673828125,0.939453125
404,2.03,IMU0,-0.48780487804878053,-0.06097560975609757,0.12195121951219513,-0.0634765625,0.0517578125,0.908203125
405,2.03,IMU1,0.48780487804878053,-1.402439024390244,0.1829268292682927,-0.0859375,0.0673828125,0.9404296875
406,2.04,IMU0,-0.48780487804878053,-0.06097560975609757,0.12195121951219513,-0.064453125,0.0517578125,0.908203125
407,2.04,IMU1,0.48780487804878053,-1.402439024390244,0.1829268292682927,-0.0859375,0.0673828125,0.9384765625
408,2.05,IMU0,-0.48780487804878053,-0.06097560975609757,0.12195121951219513,-0.064453125,0.0517578125,0.908203125
409,2.05,IMU1,0.48780487804878053,-1.4634146341463417,0.1829268292682927,-0.0859375,0.0673828125,0.9375
410,2.06,IMU0,-0.426829268292683,-0.06097560975609757,0.1829268292682927,-0.0634765625,0.05078125,0.9091796875
411,2.06,IMU1,0.5487804878048781,-1.402439024390244,0.24390243902439027,-0.0849609375,0.068359375,0.9365234375
412,2.07,IMU0,-0.426829268292683,0.0,0.12195121951219513,-0.0634765625,0.0517578125,0.9111328125
413,2.07,IMU1,0.5487804878048781,-1.402439024390244,0.1829268292682927,-0.0859375,0.068359375,0.9375
414,2.08,IMU0,-0.426829268292683,0.0,0.12195121951219513,-0.064453125,0.0517578125,0.9130859375
415,2.08,IMU1,0.5487804878048781,-1.4634146341463417,0.1829268292682927,-0.0859375,0.0673828125,0.9375
416,2.09,IMU0,-0.48780487804878053,-0.06097560975609757,0.12195121951219513,-0.064453125,0.052734375,0.9111328125
417,2.09,IMU1,0.48780487804878053,-1.402439024390244,0.24390243902439027,-0.0849609375,0.068359375,0.9384765625
418,2.1,IMU0,-0.48780487804878053,-0.06097560975609757,0.12195121951219513,-0.0634765625,0.0517578125,0.9111328125
419,2.1,IMU1,0.48780487804878053,-1.402439024390244,0.24390243902439027,-0.0849609375,0.0673828125,0.9384765625
420,2.11,IMU0,-0.48780487804878053,-0.06097560975609757,0.12195121951219513,-0.0634765625,0.0517578125,0.91015625
421,2.11,IMU1,0.48780487804878053,-1.402439024390244,0.1829268292682927,-0.0859375,0.068359375,0.9375
422,2.12,IMU0,-0.48780487804878053,-0.06097560975609757,0.12195121951219513,-0.064453125,0.0517578125,0.9091796875
423,2.12,IMU1,0.6097560975609757,-1.402439024390244,0.12195121951219513,-0.0849609375,0.0673828125,0.9375
424,2.13,IMU0,-0.426829268292683,-0.06097560975609757,0.12195121951219513,-0.064453125,0.052734375,0.9111328125
425,2.13,IMU1,0.5487804878048781,-1.402439024390244,0.1829268292682927,-0.0859375,0.06640625,0.9404296875
426,2.14,IMU0,-0.426829268292683,-0.06097560975609757,0.1829268292682927,-0.0654296875,0.0517578125,0.91015625
427,2.14,IMU1,0.5487804878048781,-1.402439024390244,0.1829268292682927,-0.0869140625,0.0673828125,0.939453125
428,2.15,IMU0,-0.48780487804878053,0.0,0.12195121951219513,-0.06640625,0.0517578125,0.91015625
429,2.15,IMU1,0.5487804878048781,-1.402439024390244,0.1829268292682927,-0.0869140625,0.0673828125,0.9375
430,2.16,IMU0,-0.48780487804878053,-0.06097560975609757,0.1829268292682927,-0.0654296875,0.0517578125,0.91015625
431,2.16,IMU1,0.5487804878048781,-1.402439024390244,0.24390243902439027,-0.0859375,0.068359375,0.9365234375
432,2.17,IMU0,-0.48780487804878053,-0.06097560975609757,0.12195121951219513,-0.064453125,0.05078125,0.91015625
433,2.17,IMU1,0.6097560975609757,-1.402439024390244,0.24390243902439027,-0.0859375,0.0673828125,0.9375
434,2.18,IMU0,-0.426829268292683,-0.06097560975609757,0.1829268292682927,-0.064453125,0.0517578125,0.9111328125
435,2.18,IMU1,0.6097560975609757,-1.402439024390244,0.24390243902439027,-0.0859375,0.0673828125,0.9375
436,2.19,IMU0,-0.426829268292683,-0.06097560975609757,0.1829268292682927,-0.0634765625,0.0517578125,0.91015625
437,2.19,IMU1,0.5487804878048781,-1.402439024390244,0.24390243902439027,-0.0859375,0.0673828125,0.9384765625
438,2.2,IMU0,-0.48780487804878053,-0.06097560975609757,0.12195121951219513,-0.0634765625,0.0517578125,0.91015625
439,2.2,IMU1,0.48780487804878053,-1.402439024390244,0.24390243902439027,-0.0859375,0.068359375,0.9384765625
440,2.21,IMU0,-0.48780487804878053,-0.12195121951219513,0.12195121951219513,-0.0634765625,0.0517578125,0.91015625
441,2.21,IMU1,0.48780487804878053,-1.3414634146341464,0.24390243902439027,-0.0859375,0.0673828125,0.9384765625
442,2.22,IMU0,-0.48780487804878053,0.0,0.12195121951219513,-0.0625,0.05078125,0.908203125
443,2.22,IMU1,0.5487804878048781,-1.3414634146341464,0.24390243902439027,-0.0859375,0.06640625,0.9404296875
444,2.23,IMU0,-0.426829268292683,-0.06097560975609757,0.12195121951219513,-0.0634765625,0.052734375,0.9111328125
445,2.23,IMU1,0.5487804878048781,-1.402439024390244,0.24390243902439027,-0.0859375,0.06640625,0.9384765625
446,2.24,IMU0,-0.426829268292683,0.0,0.12195121951219513,-0.0634765625,0.0517578125,0.9111328125
447,2.24,IMU1,0.5487804878048781,-1.402439024390244,0.1829268292682927,-0.0859375,0.068359375,0.9384765625
448,2.25,IMU0,-0.48780487804878053,-0.06097560975609757,0.06097560975609757,-0.0634765625,0.0517578125,0.91015625
449,2.25,IMU1,0.5487804878048781,-1.402439024390244,0.1829268292682927,-0.0869140625,0.0673828125,0.9384765625
450,2.26,IMU0,-0.48780487804878053,-0.06097560975609757,0.12195121951219513,-0.0625,0.05078125,0.9091796875
451,2.26,IMU1,0.48780487804878053,-1.402439024390244,0.1829268292682927,-0.0869140625,0.0673828125,0.9375
452,2.27,IMU0,-0.48780487804878053,0.0,0.12195121951219513,-0.0634765625,0.0517578125,0.9072265625
453,2.27,IMU1,0.48780487804878053,-1.3414634146341464,0.1829268292682927,-0.0869140625,0.0673828125,0.9384765625
454,2.28,IMU0,-0.426829268292683,-0.06097560975609757,0.12195121951219513,-0.0634765625,0.052734375,0.908203125
455,2.28,IMU1,0.5487804878048781,-1.402439024390244,0.1829268292682927,-0.0859375,0.0673828125,0.9384765625
456,2.29,IMU0,-0.48780487804878053,0.0,0.12195121951219513,-0.0634765625,0.0517578125,0.91015625
457,2.29,IMU1,0.48780487804878053,-1.3414634146341464,0.24390243902439027,-0.0859375,0.0673828125,0.9384765625
458,2.3,IMU0,-0.48780487804878053,0.06097560975609757,0.12195121951219513,-0.0634765625,0.0517578125,0.9111328125
459,2.3,IMU1,0.5487804878048781,-1.3414634146341464,0.24390243902439027,-0.0849609375,0.0673828125,0.94140625
460,2.31,IMU0,-0.48780487804878053,0.0,0.1829268292682927,-0.064453125,0.0517578125,0.91015625
461,2.31,IMU1,0.48780487804878053,-1.402439024390244,0.1829268292682927,-0.0849609375,0.0673828125,0.9404296875
462,2.32,IMU0,-0.48780487804878053,-0.06097560975609757,0.1829268292682927,-0.064453125,0.05078125,0.908203125
463,2.32,IMU1,0.48780487804878053,-1.402439024390244,0.1829268292682927,-0.0859375,0.0673828125,0.939453125
464,2.33,IMU0,-0.48780487804878053,-0.06097560975609757,0.12195121951219513,-0.0634765625,0.05078125,0.908203125
465,2.33,IMU1,0.48780487804878053,-1.3414634146341464,0.1829268292682927,-0.0859375,0.0673828125,0.9384765625
466,2.34,IMU0,-0.48780487804878053,0.0,0.12195121951219513,-0.0654296875,0.05078125,0.9072265625
467,2.34,IMU1,0.48780487804878053,-1.3414634146341464,0.1829268292682927,-0.0869140625,0.06640625,0.9375
468,2.35,IMU0,-0.426829268292683,0.0,0.1829268292682927,-0.064453125,0.05078125,0.9072265625
469,2.35,IMU1,0.48780487804878053,-1.3414634146341464,0.1829268292682927,-0.0869140625,0.0673828125,0.9384765625
470,2.36,IMU0,-0.426829268292683,-0.06097560975609757,0.12195121951219513,-0.06640625,0.0498046875,0.91015625
471,2.36,IMU1,0.5487804878048781,-1.3414634146341464,0.1829268292682927,-0.087890625,0.0673828125,0.939453125
472,2.37,IMU0,-0.426829268292683,-0.06097560975609757,0.12195121951219513,-0.064453125,0.05078125,0.9111328125
473,2.37,IMU1,0.5487804878048781,-1.402439024390244,0.24390243902439027,-0.0869140625,0.06640625,0.9404296875
474,2.38,IMU0,-0.48780487804878053,-0.06097560975609757,0.12195121951219513,-0.0654296875,0.05078125,0.912109375
475,2.38,IMU1,0.48780487804878053,-1.3414634146341464,0.24390243902439027,-0.0859375,0.0673828125,0.939453125
476,2.39,IMU0,-0.48780487804878053,-0.12195121951219513,0.12195121951219513,-0.064453125,0.0498046875,0.9111328125
477,2.39,IMU1,0.48780487804878053,-1.402439024390244,0.1829268292682927,-0.0869140625,0.068359375,0.939453125
478,2.4,IMU0,-0.426829268292683,-0.12195121951219513,0.1829268292682927,-0.064453125,0.0498046875,0.9091796875
479,2.4,IMU1,0.426829268292683,-1.402439024390244,0.1829268292682927,-0.0859375,0.0673828125,0.9384765625
480,2.41,IMU0,-0.426829268292683,-0.06097560975609757,0.1829268292682927,-0.064453125,0.05078125,0.9091796875
481,2.41,IMU1,0.5487804878048781,-1.3414634146341464,0.24390243902439027,-0.0859375,0.0673828125,0.9375
482,2.42,IMU0,-0.426829268292683,-0.06097560975609757,0.12195121951219513,-0.0634765625,0.05078125,0.9111328125
483,2.42,IMU1,0.5487804878048781,-1.402439024390244,0.24390243902439027,-0.0869140625,0.068359375,0.9384765625
484,2.43,IMU0,-0.426829268292683,-0.06097560975609757,0.06097560975609757,-0.0634765625,0.05078125,0.9111328125
485,2.43,IMU1,0.48780487804878053,-1.402439024390244,0.1829268292682927,-0.0859375,0.068359375,0.9375
486,2.44,IMU0,-0.48780487804878053,0.0,0.12195121951219513,-0.0654296875,0.05078125,0.91015625
487,2.44,IMU1,0.48780487804878053,-1.402439024390244,0.24390243902439027,-0.0859375,0.068359375,0.939453125
488,2.45,IMU0,-0.5487804878048781,-0.06097560975609757,0.12195121951219513,-0.0654296875,0.0517578125,0.9091796875
489,2.45,IMU1,0.48780487804878053,-1.402439024390244,0.24390243902439027,-0.0859375,0.0673828125,0.9375
490,2.46,IMU0,-0.5487804878048781,-0.06097560975609757,0.12195121951219513,-0.064453125,0.0517578125,0.908203125
491,2.46,IMU1,0.48780487804878053,-1.402439024390244,0.24390243902439027,-0.0849609375,0.0673828125,0.935546875
492,2.47,IMU0,-0.5487804878048781,0.0,0.12195121951219513,-0.064453125,0.0517578125,0.9091796875
493,2.47,IMU1,0.426829268292683,-1.3414634146341464,0.24390243902439027,-0.0849609375,0.0673828125,0.9345703125
494,2.48,IMU0,-0.426829268292683,0.06097560975609757,0.12195121951219513,-0.064453125,0.0517578125,0.9140625
495,2.48,IMU1,0.5487804878048781,-1.3414634146341464,0.24390243902439027,-0.0859375,0.0673828125,0.939453125
496,2.49,IMU0,-0.3658536585365854,0.0,0.12195121951219513,-0.0634765625,0.0498046875,0.9130859375
497,2.49,IMU1,0.6707317073170732,-1.402439024390244,0.30487804878048785,-0.0849609375,0.0673828125,0.939453125
498,2.5,IMU0,-0.3658536585365854,0.0,0.12195121951219513,-0.0634765625,0.05078125,0.9150390625
499,2.5,IMU1,0.6097560975609757,-1.3414634146341464,0.1829268292682927,-0.0849609375,0.0673828125,0.943359375
500,2.51,IMU0,-0.48780487804878053,-0.1829268292682927,0.1829268292682927,-0.0634765625,0.0517578125,0.91015625
501,2.51,IMU1,0.5487804878048781,-1.4634146341463417,0.1829268292682927,-0.0849609375,0.0673828125,0.9375
502,2.52,IMU0,-0.5487804878048781,-0.06097560975609757,0.12195121951219513,-0.064453125,0.05078125,0.9111328125
503,2.52,IMU1,0.48780487804878053,-1.3414634146341464,0.24390243902439027,-0.0859375,0.0673828125,0.9375
504,2.53,IMU0,-0.48780487804878053,-0.1829268292682927,0.12195121951219513,-0.0634765625,0.0517578125,0.90625
505,2.53,IMU1,0.48780487804878053,-1.4634146341463417,0.24390243902439027,-0.0859375,0.0673828125,0.93359375
506,2.54,IMU0,-0.3658536585365854,0.0,0.12195121951219513,-0.0634765625,0.05078125,0.9091796875
507,2.54,IMU1,0.6097560975609757,-1.3414634146341464,0.24390243902439027,-0.0859375,0.0673828125,0.9375
508,2.55,IMU0,-0.3658536585365854,-0.12195121951219513,0.1829268292682927,-0.0625,0.05078125,0.9111328125
509,2.55,IMU1,0.6707317073170732,-1.3414634146341464,0.24390243902439027,-0.0859375,0.06640625,0.9365234375
510,2.56,IMU0,-0.3658536585365854,0.0,0.1829268292682927,-0.0634765625,0.0498046875,0.912109375
511,2.56,IMU1,0.6097560975609757,-1.3414634146341464,0.24390243902439027,-0.0859375,0.06640625,0.939453125
512,2.57,IMU0,-0.48780487804878053,-0.06097560975609757,0.12195121951219513,-0.0625,0.05078125,0.9130859375
513,2.57,IMU1,0.48780487804878053,-1.402439024390244,0.1829268292682927,-0.0849609375,0.06640625,0.9384765625
514,2.58,IMU0,-0.48780487804878053,-0.06097560975609757,0.12195121951219513,-0.0634765625,0.05078125,0.9111328125
515,2.58,IMU1,0.426829268292683,-1.402439024390244,0.1829268292682927,-0.0849609375,0.06640625,0.939453125
516,2.59,IMU0,-0.5487804878048781,-0.06097560975609757,0.12195121951219513,-0.0634765625,0.0517578125,0.91015625
517,2.59,IMU1,0.48780487804878053,-1.4634146341463417,0.24390243902439027,-0.0859375,0.06640625,0.9384765625
518,2.6,IMU0,-0.426829268292683,-0.06097560975609757,0.12195121951219513,-0.064453125,0.05078125,0.9091796875
519,2.6,IMU1,0.5487804878048781,-1.402439024390244,0.24390243902439027,-0.0859375,0.0673828125,0.9365234375
520,2.61,IMU0,-0.48780487804878053,-0.06097560975609757,0.12195121951219513,-0.064453125,0.05078125,0.908203125
521,2.61,IMU1,0.5487804878048781,-1.402439024390244,0.1829268292682927,-0.0859375,0.068359375,0.9365234375
522,2.62,IMU0,-0.426829268292683,0.0,0.12195121951219513,-0.064453125,0.0517578125,0.9111328125
523,2.62,IMU1,0.5487804878048781,-1.402439024390244,0.24390243902439027,-0.0859375,0.068359375,0.9384765625
524,2.63,IMU0,-0.3658536585365854,-0.06097560975609757,0.1829268292682927,-0.064453125,0.05078125,0.9130859375
525,2.63,IMU1,0.5487804878048781,-1.402439024390244,0.24390243902439027,-0.0849609375,0.0673828125,0.939453125
526,2.64,IMU0,-0.426829268292683,-0.06097560975609757,0.12195121951219513,-0.0634765625,0.05078125,0.912109375
527,2.64,IMU1,0.48780487804878053,-1.402439024390244,0.1829268292682927,-0.0859375,0.0673828125,0.9404296875
528,2.65,IMU0,-0.48780487804878053,-0.06097560975609757,0.12195121951219513,-0.064453125,0.05078125,0.9091796875
529,2.65,IMU1,0.48780487804878053,-1.4634146341463417,0.24390243902439027,-0.0849609375,0.068359375,0.9375
530,2.66,IMU0,-0.48780487804878053,0.0,0.12195121951219513,-0.064453125,0.0517578125,0.91015625
531,2.66,IMU1,0.48780487804878053,-1.3414634146341464,0.24390243902439027,-0.0849609375,0.068359375,0.9375
532,2.67,IMU0,-0.48780487804878053,-0.06097560975609757,0.12195121951219513,-0.064453125,0.0517578125,0.9091796875
533,2.67,IMU1,0.48780487804878053,-1.3414634146341464,0.1829268292682927,-0.0859375,0.0673828125,0.9375
534,2.68,IMU0,-0.426829268292683,-0.06097560975609757,0.12195121951219513,-0.064453125,0.052734375,0.912109375
535,2.68,IMU1,0.5487804878048781,-1.3414634146341464,0.1829268292682927,-0.0859375,0.0673828125,0.939453125
536,2.69,IMU0,-0.426829268292683,0.0,0.12195121951219513,-0.064453125,0.0517578125,0.9130859375
537,2.69,IMU1,0.5487804878048781,-1.3414634146341464,0.1829268292682927,-0.0859375,0.06640625,0.9384765625
538,2.7,IMU0,-0.48780487804878053,-0.06097560975609757,0.12195121951219513,-0.0634765625,0.0517578125,0.9130859375
539,2.7,IMU1,0.5487804878048781,-1.3414634146341464,0.24390243902439027,-0.0869140625,0.0673828125,0.939453125
540,2.71,IMU0,-0.48780487804878053,-0.12195121951219513,0.12195121951219513,-0.064453125,0.0517578125,0.91015625
541,2.71,IMU1,0.48780487804878053,-1.3414634146341464,0.24390243902439027,-0.0869140625,0.068359375,0.939453125
542,2.72,IMU0,-0.48780487804878053,-0.06097560975609757,0.1829268292682927,-0.064453125,0.05078125,0.9091796875
543,2.72,IMU1,0.48780487804878053,-1.3414634146341464,0.24390243902439027,-0.0859375,0.068359375,0.939453125
544,2.73,IMU0,-0.48780487804878053,-0.06097560975609757,0.1829268292682927,-0.064453125,0.05078125,0.9091796875
545,2.73,IMU1,0.5487804878048781,-1.402439024390244,0.24390243902439027,-0.0859375,0.068359375,0.9375
546,2.74,IMU0,-0.426829268292683,-0.06097560975609757,0.1829268292682927,-0.0634765625,0.05078125,0.9091796875
547,2.74,IMU1,0.5487804878048781,-1.3414634146341464,0.24390243902439027,-0.0859375,0.0673828125,0.9384765625
548,2.75,IMU0,-0.426829268292683,-0.06097560975609757,0.1829268292682927,-0.0634765625,0.0517578125,0.9111328125
549,2.75,IMU1,0.5487804878048781,-1.402439024390244,0.24390243902439027,-0.083984375,0.0673828125,0.9384765625
550,2.76,IMU0,-0.426829268292683,-0.06097560975609757,0.12195121951219513,-0.0634765625,0.05078125,0.91015625
551,2.76,IMU1,0.6097560975609757,-1.402439024390244,0.1829268292682927,-0.0849609375,0.0673828125,0.9384765625
552,2.77,IMU0,-0.6097560975609757,-0.12195121951219513,0.1829268292682927,-0.0634765625,0.05078125,0.9052734375
553,2.77,IMU1,0.48780487804878053,-1.402439024390244,0.1829268292682927,-0.0849609375,0.0673828125,0.9365234375
554,2.78,IMU0,-0.6097560975609757,0.0,0.1829268292682927,-0.064453125,0.05078125,0.9072265625
555,2.78,IMU1,0.426829268292683,-1.3414634146341464,0.12195121951219513,-0.0859375,0.0673828125,0.9375
556,2.79,IMU0,-0.48780487804878053,-0.12195121951219513,0.1829268292682927,-0.064453125,0.0517578125,0.9052734375
557,2.79,IMU1,0.48780487804878053,-1.4634146341463417,0.1829268292682927,-0.0869140625,0.0673828125,0.9365234375
558,2.8,IMU0,-0.3658536585365854,0.0,0.12195121951219513,-0.064453125,0.052734375,0.9111328125
559,2.8,IMU1,0.6097560975609757,-1.2804878048780488,0.1829268292682927,-0.0869140625,0.0673828125,0.943359375
560,2.81,IMU0,-0.3658536585365854,-0.12195121951219513,0.1829268292682927,-0.064453125,0.0537109375,0.908203125
561,2.81,IMU1,0.5487804878048781,-1.402439024390244,0.1829268292682927,-0.0869140625,0.0673828125,0.9384765625
562,2.82,IMU0,-0.426829268292683,-0.06097560975609757,0.12195121951219513,-0.06640625,0.052734375,0.9130859375
563,2.82,IMU1,0.5487804878048781,-1.3414634146341464,0.1829268292682927,-0.0869140625,0.0673828125,0.9404296875
564,2.83,IMU0,-0.5487804878048781,-0.06097560975609757,0.12195121951219513,-0.064453125,0.0517578125,0.908203125
565,2.83,IMU1,0.426829268292683,-1.3414634146341464,0.1829268292682927,-0.0859375,0.06640625,0.9365234375
566,2.84,IMU0,-0.5487804878048781,0.0,0.12195121951219513,-0.0634765625,0.05078125,0.9091796875
567,2.84,IMU1,0.48780487804878053,-1.402439024390244,0.1829268292682927,-0.0859375,0.0673828125,0.9375
568,2.85,IMU0,-0.48780487804878053,0.0,0.12195121951219513,-0.0634765625,0.0498046875,0.9072265625
569,2.85,IMU1,0.5487804878048781,-1.2804878048780488,0.1829268292682927,-0.0849609375,0.06640625,0.935546875
570,2.86,IMU0,-0.426829268292683,-0.06097560975609757,0.12195121951219513,-0.0634765625,0.05078125,0.9111328125
571,2.86,IMU1,0.6097560975609757,-1.402439024390244,0.1829268292682927,-0.0849609375,0.0673828125,0.9375
572,2.87,IMU0,-0.48780487804878053,0.06097560975609757,0.12195121951219513,-0.0634765625,0.05078125,0.91015625
573,2.87,IMU1,0.5487804878048781,-1.3414634146341464,0.1829268292682927,-0.0849609375,0.06640625,0.9384765625
574,2.88,IMU0,-0.426829268292683,0.0,0.06097560975609757,-0.0634765625,0.0517578125,0.9130859375
575,2.88,IMU1,0.48780487804878053,-1.402439024390244,0.24390243902439027,-0.0869140625,0.068359375,0.939453125
576,2.89,IMU0,-0.48780487804878053,0.0,0.06097560975609757,-0.064453125,0.0517578125,0.912109375
577,2.89,IMU1,0.48780487804878053,-1.3414634146341464,0.1829268292682927,-0.087890625,0.06640625,0.9384765625
578,2.9,IMU0,-0.48780487804878053,-0.06097560975609757,0.12195121951219513,-0.064453125,0.052734375,0.91015625
579,2.9,IMU1,0.48780487804878053,-1.402439024390244,0.24390243902439027,-0.0869140625,0.0673828125,0.9375
580,2.91,IMU0,-0.48780487804878053,-0.06097560975609757,0.06097560975609757,-0.064453125,0.0517578125,0.908203125
581,2.91,IMU1,0.426829268292683,-1.402439024390244,0.24390243902439027,-0.0869140625,0.0673828125,0.9365234375
582,2.92,IMU0,-0.426829268292683,-0.06097560975609757,0.06097560975609757,-0.0634765625,0.0517578125,0.9111328125
583,2.92,IMU1,0.48780487804878053,-1.3414634146341464,0.1829268292682927,-0.0859375,0.06640625,0.9375
584,2.93,IMU0,-0.426829268292683,-0.06097560975609757,0.12195121951219513,-0.064453125,0.0517578125,0.9130859375
585,2.93,IMU1,0.5487804878048781,-1.3414634146341464,0.24390243902439027,-0.0869140625,0.0673828125,0.9384765625
586,2.94,IMU0,-0.426829268292683,-0.06097560975609757,0.12195121951219513,-0.0634765625,0.0517578125,0.9111328125
587,2.94,IMU1,0.5487804878048781,-1.3414634146341464,0.24390243902439027,-0.0859375,0.06640625,0.9404296875
588,2.95,IMU0,-0.48780487804878053,-0.12195121951219513,0.12195121951219513,-0.0634765625,0.05078125,0.9111328125
589,2.95,IMU1,0.48780487804878053,-1.402439024390244,0.24390243902439027,-0.0859375,0.0673828125,0.9404296875
590,2.96,IMU0,-0.48780487804878053,-0.06097560975609757,0.1829268292682927,-0.064453125,0.0498046875,0.9130859375
591,2.96,IMU1,0.5487804878048781,-1.402439024390244,0.1829268292682927,-0.0859375,0.0673828125,0.9404296875
592,2.97,IMU0,-0.426829268292683,-0.06097560975609757,0.12195121951219513,-0.0634765625,0.0498046875,0.9111328125
593,2.97,IMU1,0.48780487804878053,-1.402439024390244,0.24390243902439027,-0.0849609375,0.0673828125,0.9384765625
594,2.98,IMU0,-0.3658536585365854,-0.06097560975609757,0.1829268292682927,-0.0634765625,0.05078125,0.9111328125
595,2.98,IMU1,0.5487804878048781,-1.3414634146341464,0.1829268292682927,-0.0849609375,0.068359375,0.9375
596,2.99,IMU0,-0.48780487804878053,-0.06097560975609757,0.1829268292682927,-0.0625,0.0517578125,0.908203125
597,2.99,IMU1,0.5487804878048781,-1.402439024390244,0.24390243902439027,-0.0849609375,0.0673828125,0.935546875
598,3.0,IMU0,-0.426829268292683,0.0,0.12195121951219513,-0.064453125,0.05078125,0.9091796875
599,3.0,IMU1,0.48780487804878053,-1.2804878048780488,0.1829268292682927,-0.0849609375,0.06640625,0.9365234375
600,3.01,IMU0,-0.426829268292683,0.0,0.1829268292682927,-0.064453125,0.0498046875,0.9091796875
601,3.01,IMU1,0.5487804878048781,-1.3414634146341464,0.24390243902439027,-0.0859375,0.06640625,0.9365234375
602,3.02,IMU0,-0.426829268292683,0.0,0.12195121951219513,-0.0654296875,0.0517578125,0.912109375
603,3.02,IMU1,0.5487804878048781,-1.3414634146341464,0.24390243902439027,-0.0869140625,0.06640625,0.9375
604,3.03,IMU0,-0.426829268292683,0.0,0.12195121951219513,-0.06640625,0.0517578125,0.9140625
605,3.03,IMU1,0.5487804878048781,-1.3414634146341464,0.24390243902439027,-0.0859375,0.0654296875,0.9384765625
606,3.04,IMU0,-0.48780487804878053,-0.06097560975609757,0.1829268292682927,-0.0654296875,0.052734375,0.9130859375
607,3.04,IMU1,0.48780487804878053,-1.3414634146341464,0.24390243902439027,-0.0869140625,0.06640625,0.939453125
608,3.05,IMU0,-0.5487804878048781,-0.06097560975609757,0.1829268292682927,-0.064453125,0.052734375,0.9111328125
609,3.05,IMU1,0.426829268292683,-1.3414634146341464,0.24390243902439027,-0.0869140625,0.06640625,0.9375
610,3.06,IMU0,-0.5487804878048781,-0.12195121951219513,0.12195121951219513,-0.064453125,0.0517578125,0.9091796875
611,3.06,IMU1,0.426829268292683,-1.3414634146341464,0.1829268292682927,-0.0859375,0.0673828125,0.9365234375
612,3.07,IMU0,-0.48780487804878053,-0.06097560975609757,0.12195121951219513,-0.064453125,0.05078125,0.9091796875
613,3.07,IMU1,0.48780487804878053,-1.3414634146341464,0.1829268292682927,-0.0859375,0.0673828125,0.9384765625
614,3.08,IMU0,-0.426829268292683,-0.06097560975609757,0.12195121951219513,-0.0654296875,0.0498046875,0.9111328125
615,3.08,IMU1,0.48780487804878053,-1.3414634146341464,0.1829268292682927,-0.0859375,0.0673828125,0.9384765625
616,3.09,IMU0,-0.426829268292683,-0.06097560975609757,0.12195121951219513,-0.0654296875,0.0498046875,0.912109375
617,3.09,IMU1,0.48780487804878053,-1.3414634146341464,0.1829268292682927,-0.0859375,0.0673828125,0.939453125
618,3.1,IMU0,-0.426829268292683,0.0,0.1829268292682927,-0.0654296875,0.0517578125,0.912109375
619,3.1,IMU1,0.5487804878048781,-1.3414634146341464,0.1829268292682927,-0.0859375,0.0673828125,0.9384765625
620,3.11,IMU0,-0.48780487804878053,-0.06097560975609757,0.12195121951219513,-0.0654296875,0.05078125,0.912109375
621,3.11,IMU1,0.5487804878048781,-1.402439024390244,0.1829268292682927,-0.0859375,0.0673828125,0.9375
622,3.12,IMU0,-0.426829268292683,-0.06097560975609757,0.06097560975609757,-0.064453125,0.05078125,0.91015625
623,3.12,IMU1,0.5487804878048781,-1.402439024390244,0.1829268292682927,-0.0869140625,0.0693359375,0.9375
624,3.13,IMU0,-0.426829268292683,-0.12195121951219513,0.12195121951219513,-0.064453125,0.0517578125,0.91015625
625,3.13,IMU1,0.48780487804878053,-1.4634146341463417,0.24390243902439027,-0.0859375,0.068359375,0.9384765625
626,3.14,IMU0,-0.426829268292683,-0.06097560975609757,0.12195121951219513,-0.064453125,0.05078125,0.9091796875
627,3.14,IMU1,0.5487804878048781,-1.402439024390244,0.24390243902439027,-0.0849609375,0.0673828125,0.9384765625
628,3.15,IMU0,-0.426829268292683,-0.12195121951219513,0.12195121951219513,-0.064453125,0.05078125,0.9091796875
629,3.15,IMU1,0.5487804878048781,-1.402439024390244,0.1829268292682927,-0.0849609375,0.068359375,0.9384765625
630,3.16,IMU0,-0.426829268292683,-0.12195121951219513,0.12195121951219513,-0.0654296875,0.05078125,0.9091796875
631,3.16,IMU1,0.5487804878048781,-1.402439024390244,0.1829268292682927,-0.0849609375,0.0673828125,0.939453125
632,3.17,IMU0,-0.426829268292683,-0.06097560975609757,0.12195121951219513,-0.0654296875,0.0498046875,0.9111328125
633,3.17,IMU1,0.48780487804878053,-1.402439024390244,0.1829268292682927,-0.0849609375,0.0673828125,0.939453125
634,3.18,IMU0,-0.426829268292683,-0.06097560975609757,0.1829268292682927,-0.064453125,0.0498046875,0.91015625
635,3.18,IMU1,0.48780487804878053,-1.402439024390244,0.1829268292682927,-0.0849609375,0.068359375,0.9384765625
636,3.19,IMU0,-0.426829268292683,-0.06097560975609757,0.1829268292682927,-0.064453125,0.05078125,0.9091796875
637,3.19,IMU1,0.48780487804878053,-1.402439024390244,0.1829268292682927,-0.0859375,0.0673828125,0.9365234375
638,3.2,IMU0,-0.426829268292683,-0.12195121951219513,0.1829268292682927,-0.064453125,0.052734375,0.9091796875
639,3.2,IMU1,0.48780487804878053,-1.402439024390244,0.1829268292682927,-0.0849609375,0.0673828125,0.9384765625
640,3.21,IMU0,-0.426829268292683,-0.12195121951219513,0.1829268292682927,-0.0654296875,0.05078125,0.9091796875
641,3.21,IMU1,0.48780487804878053,-1.402439024390244,0.24390243902439027,-0.0849609375,0.068359375,0.9384765625
642,3.22,IMU0,-0.426829268292683,-0.06097560975609757,0.12195121951219513,-0.064453125,0.05078125,0.9091796875
643,3.22,IMU1,0.48780487804878053,-1.402439024390244,0.24390243902439027,-0.0849609375,0.068359375,0.939453125
644,3.23,IMU0,-0.426829268292683,0.0,0.12195121951219513,-0.0654296875,0.05078125,0.91015625
645,3.23,IMU1,0.48780487804878053,-1.402439024390244,0.24390243902439027,-0.0859375,0.068359375,0.9375
646,3.24,IMU0,-0.426829268292683,0.06097560975609757,0.1829268292682927,-0.064453125,0.05078125,0.91015625
647,3.24,IMU1,0.5487804878048781,-1.3414634146341464,0.1829268292682927,-0.0849609375,0.068359375,0.939453125
648,3.25,IMU0,-0.48780487804878053,-0.06097560975609757,0.1829268292682927,-0.064453125,0.05078125,0.912109375
649,3.25,IMU1,0.5487804878048781,-1.402439024390244,0.1829268292682927,-0.0859375,0.0673828125,0.9384765625
650,3.26,IMU0,-0.48780487804878053,-0.06097560975609757,0.1829268292682927,-0.064453125,0.05078125,0.912109375
651,3.26,IMU1,0.48780487804878053,-1.402439024390244,0.1829268292682927,-0.0859375,0.06640625,0.9375
652,3.27,IMU0,-0.48780487804878053,-0.06097560975609757,0.12195121951219513,-0.0654296875,0.05078125,0.91015625
653,3.27,IMU1,0.48780487804878053,-1.402439024390244,0.1829268292682927,-0.0849609375,0.0673828125,0.9365234375
654,3.28,IMU0,-0.48780487804878053,-0.06097560975609757,0.12195121951219513,-0.064453125,0.05078125,0.9091796875
655,3.28,IMU1,0.5487804878048781,-1.402439024390244,0.24390243902439027,-0.0859375,0.0673828125,0.9375
656,3.29,IMU0,-0.426829268292683,0.0,0.1829268292682927,-0.064453125,0.05078125,0.9091796875
657,3.29,IMU1,0.5487804878048781,-1.3414634146341464,0.24390243902439027,-0.0859375,0.06640625,0.9384765625
658,3.3,IMU0,-0.426829268292683,-0.06097560975609757,0.12195121951219513,-0.0634765625,0.05078125,0.9091796875
659,3.3,IMU1,0.5487804878048781,-1.3414634146341464,0.24390243902439027,-0.0849609375,0.06640625,0.9375
660,3.31,IMU0,-0.48780487804878053,-0.06097560975609757,0.12195121951219513,-0.064453125,0.0517578125,0.9111328125
661,3.31,IMU1,0.48780487804878053,-1.402439024390244,0.24390243902439027,-0.0849609375,0.0673828125,0.9375
662,3.32,IMU0,-0.426829268292683,-0.06097560975609757,0.12195121951219513,-0.0625,0.05078125,0.9111328125
663,3.32,IMU1,0.48780487804878053,-1.402439024390244,0.24390243902439027,-0.0859375,0.06640625,0.9384765625
664,3.33,IMU0,-0.426829268292683,-0.12195121951219513,0.12195121951219513,-0.0634765625,0.0517578125,0.9111328125
665,3.33,IMU1,0.48780487804878053,-1.402439024390244,0.1829268292682927,-0.0859375,0.06640625,0.9375
666,3.34,IMU0,-0.48780487804878053,-0.06097560975609757,0.12195121951219513,-0.0625,0.0517578125,0.91015625
667,3.34,IMU1,0.48780487804878053,-1.402439024390244,0.1829268292682927,-0.0859375,0.0673828125,0.9384765625
668,3.35,IMU0,-0.48780487804878053,-0.06097560975609757,0.12195121951219513,-0.0634765625,0.0517578125,0.91015625
669,3.35,IMU1,0.5487804878048781,-1.3414634146341464,0.24390243902439027,-0.0849609375,0.06640625,0.9375
670,3.36,IMU0,-0.48780487804878053,-0.06097560975609757,0.12195121951219513,-0.064453125,0.0517578125,0.9091796875
671,3.36,IMU1,0.48780487804878053,-1.3414634146341464,0.24390243902439027,-0.0859375,0.0673828125,0.9365234375
672,3.37,IMU0,-0.426829268292683,-0.12195121951219513,0.12195121951219513,-0.0634765625,0.05078125,0.91015625
673,3.37,IMU1,0.5487804878048781,-1.3414634146341464,0.1829268292682927,-0.0859375,0.06640625,0.9375
674,3.38,IMU0,-0.426829268292683,-0.06097560975609757,0.12195121951219513,-0.064453125,0.0517578125,0.91015625
675,3.38,IMU1,0.5487804878048781,-1.3414634146341464,0.1829268292682927,-0.0849609375,0.06640625,0.9384765625
676,3.39,IMU0,-0.426829268292683,-0.06097560975609757,0.12195121951219513,-0.064453125,0.05078125,0.9091796875
677,3.39,IMU1,0.5487804878048781,-1.3414634146341464,0.24390243902439027,-0.0869140625,0.0673828125,0.9375
678,3.4,IMU0,-0.426829268292683,-0.06097560975609757,0.12195121951219513,-0.064453125,0.0517578125,0.9091796875
679,3.4,IMU1,0.5487804878048781,-1.3414634146341464,0.24390243902439027,-0.0859375,0.06640625,0.9404296875
680,3.41,IMU0,-0.426829268292683,-0.12195121951219513,0.12195121951219513,-0.064453125,0.0517578125,0.9091796875
681,3.41,IMU1,0.5487804878048781,-1.3414634146341464,0.1829268292682927,-0.0849609375,0.0673828125,0.9375
682,3.42,IMU0,-0.426829268292683,-0.06097560975609757,0.12195121951219513,-0.064453125,0.05078125,0.9091796875
683,3.42,IMU1,0.5487804878048781,-1.402439024390244,0.1829268292682927,-0.0859375,0.0673828125,0.9375
684,3.43,IMU0,-0.426829268292683,-0.06097560975609757,0.12195121951219513,-0.064453125,0.05078125,0.9091796875
685,3.43,IMU1,0.5487804878048781,-1.402439024390244,0.1829268292682927,-0.0859375,0.0673828125,0.9384765625
686,3.44,IMU0,-0.426829268292683,-0.06097560975609757,0.1829268292682927,-0.0654296875,0.05078125,0.908203125
687,3.44,IMU1,0.5487804878048781,-1.3414634146341464,0.1829268292682927,-0.0849609375,0.068359375,0.9375
688,3.45,IMU0,-0.426829268292683,-0.06097560975609757,0.1829268292682927,-0.0654296875,0.0498046875,0.9111328125
689,3.45,IMU1,0.6097560975609757,-1.402439024390244,0.1829268292682927,-0.0859375,0.0673828125,0.9365234375
690,3.46,IMU0,-0.48780487804878053,-0.06097560975609757,0.1829268292682927,-0.064453125,0.05078125,0.9111328125
691,3.46,IMU1,0.5487804878048781,-1.402439024390244,0.1829268292682927,-0.0859375,0.0673828125,0.9375
692,3.47,IMU0,-0.48780487804878053,-0.06097560975609757,0.1829268292682927,-0.064453125,0.05078125,0.9130859375
693,3.47,IMU1,0.5487804878048781,-1.402439024390244,0.24390243902439027,-0.0849609375,0.0673828125,0.9375
694,3.48,IMU0,-0.426829268292683,-0.06097560975609757,0.1829268292682927,-0.064453125,0.0517578125,0.91015625
695,3.48,IMU1,0.5487804878048781,-1.402439024390244,0.1829268292682927,-0.0849609375,0.0673828125,0.9384765625
696,3.49,IMU0,-0.426829268292683,-0.06097560975609757,0.1829268292682927,-0.064453125,0.0517578125,0.91015625
697,3.49,IMU1,0.48780487804878053,-1.3414634146341464,0.1829268292682927,-0.0859375,0.068359375,0.9384765625
698,3.5,IMU0,-0.426829268292683,-0.06097560975609757,0.1829268292682927,-0.0634765625,0.05078125,0.9091796875
699,3.5,IMU1,0.48780487804878053,-1.402439024390244,0.1829268292682927,-0.0859375,0.068359375,0.9375
700,3.51,IMU0,-0.426829268292683,-0.06097560975609757,0.1829268292682927,-0.0634765625,0.0517578125,0.908203125
701,3.51,IMU1,0.5487804878048781,-1.402439024390244,0.24390243902439027,-0.0849609375,0.068359375,0.9384765625
702,3.52,IMU0,-0.426829268292683,-0.06097560975609757,0.12195121951219513,-0.0634765625,0.05078125,0.9091796875
703,3.52,IMU1,0.5487804878048781,-1.3414634146341464,0.24390243902439027,-0.0849609375,0.0673828125,0.939453125
704,3.53,IMU0,-0.426829268292683,-0.06097560975609757,0.12195121951219513,-0.0634765625,0.05078125,0.9111328125
705,3.53,IMU1,0.5487804878048781,-1.3414634146341464,0.24390243902439027,-0.0859375,0.0673828125,0.9384765625
706,3.54,IMU0,-0.426829268292683,-0.06097560975609757,0.12195121951219513,-0.064453125,0.0517578125,0.91015625
707,3.54,IMU1,0.48780487804878053,-1.3414634146341464,0.1829268292682927,-0.0859375,0.0673828125,0.9384765625
708,3.55,IMU0,-0.426829268292683,-0.06097560975609757,0.12195121951219513,-0.064453125,0.0517578125,0.9111328125
709,3.55,IMU1,0.48780487804878053,-1.3414634146341464,0.24390243902439027,-0.0849609375,0.06640625,0.9365234375
710,3.56,IMU0,-0.426829268292683,0.0,0.12195121951219513,-0.064453125,0.05078125,0.9091796875
711,3.56,IMU1,0.5487804878048781,-1.3414634146341464,0.24390243902439027,-0.0859375,0.06640625,0.939453125
712,3.57,IMU0,-0.426829268292683,0.0,0.1829268292682927,-0.0634765625,0.05078125,0.91015625
713,3.57,IMU1,0.48780487804878053,-1.3414634146341464,0.24390243902439027,-0.0869140625,0.0673828125,0.9384765625
714,3.58,IMU0,-0.426829268292683,0.0,0.1829268292682927,-0.0634765625,0.0498046875,0.91015625
715,3.58,IMU1,0.48780487804878053,-1.3414634146341464,0.24390243902439027,-0.0859375,0.0673828125,0.939453125
716,3.59,IMU0,-0.426829268292683,-0.06097560975609757,0.12195121951219513,-0.064453125,0.05078125,0.908203125
717,3.59,IMU1,0.48780487804878053,-1.402439024390244,0.24390243902439027,-0.0859375,0.0673828125,0.939453125
718,3.6,IMU0,-0.48780487804878053,-0.06097560975609757,0.06097560975609757,-0.064453125,0.05078125,0.9091796875
719,3.6,IMU1,0.5487804878048781,-1.402439024390244,0.24390243902439027,-0.0859375,0.0673828125,0.939453125
720,3.61,IMU0,-0.48780487804878053,0.0,0.12195121951219513,-0.0634765625,0.0517578125,0.9111328125
721,3.61,IMU1,0.5487804878048781,-1.402439024390244,0.30487804878048785,-0.0859375,0.06640625,0.939453125
722,3.62,IMU0,-0.48780487804878053,0.0,0.12195121951219513,-0.0625,0.05078125,0.9091796875
723,3.62,IMU1,0.48780487804878053,-1.402439024390244,0.30487804878048785,-0.0849609375,0.06640625,0.9384765625
724,3.63,IMU0,-0.48780487804878053,0.0,0.12195121951219513,-0.0634765625,0.05078125,0.91015625
725,3.63,IMU1,0.48780487804878053,-1.402439024390244,0.30487804878048785,-0.0859375,0.0673828125,0.9384765625
726,3.64,IMU0,-0.48780487804878053,-0.06097560975609757,0.12195121951219513,-0.0634765625,0.0498046875,0.91015625
727,3.64,IMU1,0.48780487804878053,-1.402439024390244,0.24390243902439027,-0.0859375,0.0673828125,0.9384765625
728,3.65,IMU0,-0.48780487804878053,-0.06097560975609757,0.1829268292682927,-0.064453125,0.0498046875,0.9111328125
729,3.65,IMU1,0.48780487804878053,-1.402439024390244,0.24390243902439027,-0.0859375,0.06640625,0.9375
730,3.66,IMU0,-0.426829268292683,-0.06097560975609757,0.1829268292682927,-0.064453125,0.0498046875,0.91015625
731,3.66,IMU1,0.5487804878048781,-1.402439024390244,0.24390243902439027,-0.0859375,0.06640625,0.9375
732,3.67,IMU0,-0.426829268292683,-0.06097560975609757,0.12195121951219513,-0.064453125,0.05078125,0.9111328125
733,3.67,IMU1,0.48780487804878053,-1.402439024390244,0.1829268292682927,-0.0859375,0.0673828125,0.9375
734,3.68,IMU0,-0.48780487804878053,-0.06097560975609757,0.12195121951219513,-0.064453125,0.0517578125,0.9111328125
735,3.68,IMU1,0.48780487804878053,-1.3414634146341464,0.24390243902439027,-0.0849609375,0.06640625,0.9384765625
736,3.69,IMU0,-0.48780487804878053,-0.06097560975609757,0.12195121951219513,-0.0634765625,0.0517578125,0.9111328125
737,3.69,IMU1,0.48780487804878053,-1.3414634146341464,0.24390243902439027,-0.0859375,0.0673828125,0.939453125
738,3.7,IMU0,-0.48780487804878053,-0.06097560975609757,0.12195121951219513,-0.0634765625,0.0517578125,0.912109375
739,3.7,IMU1,0.48780487804878053,-1.3414634146341464,0.1829268292682927,-0.0859375,0.0673828125,0.9365234375
740,3.71,IMU0,-0.48780487804878053,-0.06097560975609757,0.12195121951219513,-0.064453125,0.052734375,0.9130859375
741,3.71,IMU1,0.5487804878048781,-1.402439024390244,0.1829268292682927,-0.0859375,0.0673828125,0.9365234375
742,3.72,IMU0,-0.48780487804878053,-0.06097560975609757,0.1829268292682927,-0.0634765625,0.0517578125,0.912109375
743,3.72,IMU1,0.5487804878048781,-1.402439024390244,0.24390243902439027,-0.0859375,0.0673828125,0.9365234375
744,3.73,IMU0,-0.48780487804878053,0.0,0.1829268292682927,-0.0634765625,0.0517578125,0.9111328125
745,3.73,IMU1,0.5487804878048781,-1.402439024390244,0.24390243902439027,-0.0859375,0.068359375,0.9375
746,3.74,IMU0,-0.48780487804878053,0.0,0.12195121951219513,-0.0634765625,0.0517578125,0.9111328125
747,3.74,IMU1,0.5487804878048781,-1.402439024390244,0.24390243902439027,-0.0859375,0.0673828125,0.9375
748,3.75,IMU0,-0.426829268292683,0.0,0.12195121951219513,-0.064453125,0.0517578125,0.9111328125
749,3.75,IMU1,0.5487804878048781,-1.402439024390244,0.1829268292682927,-0.0859375,0.0673828125,0.9375
750,3.76,IMU0,-0.48780487804878053,0.0,0.12195121951219513,-0.064453125,0.05078125,0.9091796875
751,3.76,IMU1,0.5487804878048781,-1.402439024390244,0.1829268292682927,-0.0869140625,0.0673828125,0.9375
752,3.77,IMU0,-0.48780487804878053,-0.06097560975609757,0.06097560975609757,-0.064453125,0.05078125,0.908203125
753,3.77,IMU1,0.48780487804878053,-1.402439024390244,0.1829268292682927,-0.0869140625,0.068359375,0.9375
754,3.78,IMU0,-0.48780487804878053,-0.06097560975609757,0.12195121951219513,-0.0634765625,0.0517578125,0.9091796875
755,3.78,IMU1,0.5487804878048781,-1.402439024390244,0.1829268292682927,-0.0859375,0.068359375,0.9384765625
756,3.79,IMU0,-0.48780487804878053,-0.06097560975609757,0.12195121951219513,-0.0634765625,0.0517578125,0.908203125
757,3.79,IMU1,0.5487804878048781,-1.402439024390244,0.1829268292682927,-0.0859375,0.06640625,0.939453125
758,3.8,IMU0,-0.426829268292683,-0.06097560975609757,0.1829268292682927,-0.064453125,0.05078125,0.908203125
759,3.8,IMU1,0.5487804878048781,-1.402439024390244,0.24390243902439027,-0.0859375,0.06640625,0.9384765625
760,3.81,IMU0,-0.48780487804878053,-0.06097560975609757,0.1829268292682927,-0.064453125,0.05078125,0.9091796875
761,3.81,IMU1,0.48780487804878053,-1.402439024390244,0.24390243902439027,-0.0859375,0.06640625,0.9404296875
762,3.82,IMU0,-0.48780487804878053,0.0,0.1829268292682927,-0.0634765625,0.05078125,0.9091796875
763,3.82,IMU1,0.48780487804878053,-1.402439024390244,0.24390243902439027,-0.0849609375,0.06640625,0.9384765625
764,3.83,IMU0,-0.48780487804878053,0.0,0.1829268292682927,-0.064453125,0.05078125,0.91015625
765,3.83,IMU1,0.5487804878048781,-1.402439024390244,0.24390243902439027,-0.0859375,0.0673828125,0.9375
766,3.84,IMU0,-0.48780487804878053,-0.06097560975609757,0.12195121951219513,-0.064453125,0.0517578125,0.91015625
767,3.84,IMU1,0.5487804878048781,-1.402439024390244,0.24390243902439027,-0.0859375,0.068359375,0.9365234375
768,3.85,IMU0,-0.48780487804878053,-0.06097560975609757,0.12195121951219513,-0.064453125,0.0517578125,0.91015625
769,3.85,IMU1,0.48780487804878053,-1.402439024390244,0.30487804878048785,-0.0849609375,0.0673828125,0.935546875
770,3.86,IMU0,-0.48780487804878053,-0.06097560975609757,0.12195121951219513,-0.0634765625,0.0517578125,0.9111328125
771,3.86,IMU1,0.48780487804878053,-1.402439024390244,0.24390243902439027,-0.0849609375,0.0673828125,0.9375
772,3.87,IMU0,-0.48780487804878053,-0.06097560975609757,0.12195121951219513,-0.064453125,0.05078125,0.9111328125
773,3.87,IMU1,0.48780487804878053,-1.402439024390244,0.24390243902439027,-0.0859375,0.0673828125,0.9365234375
774,3.88,IMU0,-0.426829268292683,-0.06097560975609757,0.06097560975609757,-0.064453125,0.0498046875,0.912109375
775,3.88,IMU1,0.48780487804878053,-1.402439024390244,0.1829268292682927,-0.0859375,0.0693359375,0.9365234375
776,3.89,IMU0,-0.426829268292683,-0.06097560975609757,0.1829268292682927,-0.0634765625,0.05078125,0.912109375
777,3.89,IMU1,0.48780487804878053,-1.402439024390244,0.1829268292682927,-0.0859375,0.0673828125,0.9375
778,3.9,IMU0,-0.426829268292683,-0.12195121951219513,0.1829268292682927,-0.0634765625,0.05078125,0.9111328125
779,3.9,IMU1,0.48780487804878053,-1.402439024390244,0.24390243902439027,-0.0869140625,0.06640625,0.9365234375
780,3.91,IMU0,-0.3658536585365854,-0.06097560975609757,0.1829268292682927,-0.0634765625,0.0517578125,0.9111328125
781,3.91,IMU1,0.48780487804878053,-1.402439024390244,0.24390243902439027,-0.0859375,0.0673828125,0.9375
782,3.92,IMU0,-0.3658536585365854,-0.06097560975609757,0.1829268292682927,-0.0634765625,0.05078125,0.912109375
783,3.92,IMU1,0.48780487804878053,-1.3414634146341464,0.24390243902439027,-0.0859375,0.0673828125,0.9384765625
784,3.93,IMU0,-0.48780487804878053,-0.06097560975609757,0.12195121951219513,-0.064453125,0.0517578125,0.91015625
785,3.93,IMU1,0.48780487804878053,-1.402439024390244,0.30487804878048785,-0.0859375,0.0673828125,0.9384765625
786,3.94,IMU0,-0.426829268292683,-0.06097560975609757,0.12195121951219513,-0.064453125,0.0517578125,0.9111328125
787,3.94,IMU1,0.48780487804878053,-1.402439024390244,0.30487804878048785,-0.0859375,0.068359375,0.939453125
788,3.95,IMU0,-0.426829268292683,0.0,0.1829268292682927,-0.064453125,0.05078125,0.9111328125
789,3.95,IMU1,0.5487804878048781,-1.402439024390244,0.30487804878048785,-0.0859375,0.068359375,0.9384765625
790,3.96,IMU0,-0.426829268292683,0.0,0.12195121951219513,-0.064453125,0.0498046875,0.912109375
791,3.96,IMU1,0.5487804878048781,-1.402439024390244,0.24390243902439027,-0.0859375,0.0673828125,0.9375
792,3.97,IMU0,-0.426829268292683,0.0,0.1829268292682927,-0.0634765625,0.05078125,0.9111328125
793,3.97,IMU1,0.5487804878048781,-1.402439024390244,0.24390243902439027,-0.0859375,0.0673828125,0.9375
794,3.98,IMU0,-0.426829268292683,-0.06097560975609757,0.12195121951219513,-0.0654296875,0.05078125,0.9111328125
795,3.98,IMU1,0.5487804878048781,-1.3414634146341464,0.30487804878048785,-0.0869140625,0.068359375,0.9375
796,3.99,IMU0,-0.426829268292683,-0.06097560975609757,0.1829268292682927,-0.064453125,0.0517578125,0.9111328125
797,3.99,IMU1,0.5487804878048781,-1.3414634146341464,0.24390243902439027,-0.0859375,0.068359375,0.939453125
798,4.0,IMU0,-0.426829268292683,-0.06097560975609757,0.1829268292682927,-0.064453125,0.0517578125,0.9091796875
799,4.0,IMU1,0.5487804878048781,-1.3414634146341464,0.30487804878048785,-0.0849609375,0.068359375,0.9384765625
800,4.01,IMU0,-0.426829268292683,-0.06097560975609757,0.1829268292682927,-0.0654296875,0.0517578125,0.91015625
801,4.01,IMU1,0.5487804878048781,-1.3414634146341464,0.24390243902439027,-0.0849609375,0.068359375,0.9384765625
802,4.02,IMU0,-0.426829268292683,-0.06097560975609757,0.1829268292682927,-0.064453125,0.0537109375,0.9111328125
803,4.02,IMU1,0.48780487804878053,-1.3414634146341464,0.24390243902439027,-0.0859375,0.0673828125,0.9384765625
804,4.03,IMU0,-0.48780487804878053,-0.06097560975609757,0.1829268292682927,-0.064453125,0.052734375,0.912109375
805,4.03,IMU1,0.5487804878048781,-1.3414634146341464,0.24390243902439027,-0.0859375,0.0673828125,0.9384765625
806,4.04,IMU0,-0.48780487804878053,-0.06097560975609757,0.1829268292682927,-0.064453125,0.0517578125,0.912109375
807,4.04,IMU1,0.5487804878048781,-1.3414634146341464,0.24390243902439027,-0.0859375,0.06640625,0.939453125
808,4.05,IMU0,-0.426829268292683,-0.06097560975609757,0.1829268292682927,-0.064453125,0.05078125,0.9111328125
809,4.05,IMU1,0.5487804878048781,-1.3414634146341464,0.24390243902439027,-0.0849609375,0.06640625,0.939453125
810,4.06,IMU0,-0.426829268292683,0.0,0.12195121951219513,-0.064453125,0.05078125,0.9111328125
811,4.06,IMU1,0.48780487804878053,-1.402439024390244,0.24390243902439027,-0.0849609375,0.06640625,0.939453125
812,4.07,IMU0,-0.48780487804878053,0.0,0.1829268292682927,-0.064453125,0.05078125,0.9111328125
813,4.07,IMU1,0.48780487804878053,-1.3414634146341464,0.24390243902439027,-0.0849609375,0.0673828125,0.9384765625
814,4.08,IMU0,-0.48780487804878053,0.0,0.12195121951219513,-0.064453125,0.05078125,0.9111328125
815,4.08,IMU1,0.48780487804878053,-1.3414634146341464,0.1829268292682927,-0.0849609375,0.0673828125,0.939453125
816,4.09,IMU0,-0.48780487804878053,-0.12195121951219513,0.12195121951219513,-0.0634765625,0.05078125,0.91015625
817,4.09,IMU1,0.5487804878048781,-1.3414634146341464,0.1829268292682927,-0.0859375,0.068359375,0.9375
818,4.1,IMU0,-0.48780487804878053,-0.06097560975609757,0.12195121951219513,-0.0634765625,0.0517578125,0.9091796875
819,4.1,IMU1,0.5487804878048781,-1.3414634146341464,0.1829268292682927,-0.0869140625,0.068359375,0.9384765625
820,4.11,IMU0,-0.48780487804878053,0.0,0.12195121951219513,-0.0634765625,0.05078125,0.91015625
821,4.11,IMU1,0.48780487804878053,-1.3414634146341464,0.1829268292682927,-0.0869140625,0.068359375,0.9384765625
822,4.12,IMU0,-0.426829268292683,-0.06097560975609757,0.06097560975609757,-0.064453125,0.0517578125,0.9111328125
823,4.12,IMU1,0.48780487804878053,-1.3414634146341464,0.1829268292682927,-0.0859375,0.068359375,0.939453125
824,4.13,IMU0,-0.426829268292683,0.0,0.12195121951219513,-0.0654296875,0.0517578125,0.912109375
825,4.13,IMU1,0.5487804878048781,-1.402439024390244,0.1829268292682927,-0.0859375,0.0673828125,0.939453125
826,4.14,IMU0,-0.426829268292683,-0.06097560975609757,0.06097560975609757,-0.0634765625,0.0517578125,0.912109375
827,4.14,IMU1,0.5487804878048781,-1.402439024390244,0.1829268292682927,-0.0859375,0.0673828125,0.939453125
828,4.15,IMU0,-0.426829268292683,-0.06097560975609757,0.12195121951219513,-0.0634765625,0.05078125,0.91015625
829,4.15,IMU1,0.5487804878048781,-1.402439024390244,0.1829268292682927,-0.0859375,0.0673828125,0.9384765625
830,4.16,IMU0,-0.426829268292683,-0.06097560975609757,0.12195121951219513,-0.0634765625,0.0517578125,0.91015625
831,4.16,IMU1,0.48780487804878053,-1.402439024390244,0.1829268292682927,-0.0849609375,0.06640625,0.9375
832,4.17,IMU0,-0.48780487804878053,-0.06097560975609757,0.12195121951219513,-0.064453125,0.05078125,0.9091796875
833,4.17,IMU1,0.48780487804878053,-1.402439024390244,0.1829268292682927,-0.0849609375,0.0673828125,0.9375
834,4.18,IMU0,-0.48780487804878053,-0.06097560975609757,0.12195121951219513,-0.06640625,0.0517578125,0.91015625
835,4.18,IMU1,0.48780487804878053,-1.3414634146341464,0.24390243902439027,-0.0859375,0.06640625,0.9384765625
836,4.19,IMU0,-0.48780487804878053,-0.06097560975609757,0.1829268292682927,-0.0654296875,0.052734375,0.91015625
837,4.19,IMU1,0.48780487804878053,-1.402439024390244,0.24390243902439027,-0.0859375,0.0673828125,0.939453125
838,4.2,IMU0,-0.426829268292683,-0.06097560975609757,0.1829268292682927,-0.064453125,0.0517578125,0.91015625
839,4.2,IMU1,0.48780487804878053,-1.402439024390244,0.30487804878048785,-0.0869140625,0.0673828125,0.9404296875
840,4.21,IMU0,-0.48780487804878053,-0.06097560975609757,0.12195121951219513,-0.064453125,0.0517578125,0.91015625
841,4.21,IMU1,0.5487804878048781,-1.402439024390244,0.24390243902439027,-0.0859375,0.06640625,0.9384765625
842,4.22,IMU0,-0.426829268292683,-0.06097560975609757,0.12195121951219513,-0.064453125,0.0517578125,0.91015625
843,4.22,IMU1,0.48780487804878053,-1.402439024390244,0.24390243902439027,-0.0859375,0.0673828125,0.939453125
844,4.23,IMU0,-0.426829268292683,-0.06097560975609757,0.12195121951219513,-0.0634765625,0.0517578125,0.9111328125
845,4.23,IMU1,0.5487804878048781,-1.3414634146341464,0.24390243902439027,-0.0869140625,0.0673828125,0.939453125
846,4.24,IMU0,-0.426829268292683,-0.06097560975609757,0.12195121951219513,-0.0634765625,0.05078125,0.9111328125
847,4.24,IMU1,0.5487804878048781,-1.3414634146341464,0.24390243902439027,-0.0869140625,0.0673828125,0.939453125
848,4.25,IMU0,-0.426829268292683,-0.06097560975609757,0.12195121951219513,-0.064453125,0.0498046875,0.912109375
849,4.25,IMU1,0.5487804878048781,-1.3414634146341464,0.24390243902439027,-0.0859375,0.0673828125,0.939453125
850,4.26,IMU0,-0.48780487804878053,-0.06097560975609757,0.1829268292682927,-0.064453125,0.05078125,0.9091796875
851,4.26,IMU1,0.5487804878048781,-1.402439024390244,0.24390243902439027,-0.0849609375,0.06640625,0.939453125
852,4.27,IMU0,-0.48780487804878053,-0.06097560975609757,0.12195121951219513,-0.064453125,0.0517578125,0.91015625
853,4.27,IMU1,0.48780487804878053,-1.402439024390244,0.24390243902439027,-0.0849609375,0.0673828125,0.9404296875
854,4.28,IMU0,-0.48780487804878053,-0.06097560975609757,0.12195121951219513,-0.064453125,0.05078125,0.91015625
855,4.28,IMU1,0.48780487804878053,-1.3414634146341464,0.24390243902439027,-0.0849609375,0.0673828125,0.9375
856,4.29,IMU0,-0.48780487804878053,-0.06097560975609757,0.12195121951219513,-0.064453125,0.05078125,0.9091796875
857,4.29,IMU1,0.5487804878048781,-1.402439024390244,0.1829268292682927,-0.0849609375,0.0673828125,0.9375
858,4.3,IMU0,-0.48780487804878053,-0.06097560975609757,0.12195121951219513,-0.064453125,0.05078125,0.9091796875
859,4.3,IMU1,0.48780487804878053,-1.402439024390244,0.1829268292682927,-0.0849609375,0.06640625,0.9375
860,4.31,IMU0,-0.426829268292683,-0.06097560975609757,0.12195121951219513,-0.0654296875,0.05078125,0.908203125
861,4.31,IMU1,0.48780487804878053,-1.402439024390244,0.24390243902439027,-0.0859375,0.06640625,0.9375
862,4.32,IMU0,-0.426829268292683,-0.06097560975609757,0.12195121951219513,-0.0654296875,0.05078125,0.908203125
863,4.32,IMU1,0.48780487804878053,-1.402439024390244,0.24390243902439027,-0.0859375,0.0654296875,0.9365234375
864,4.33,IMU0,-0.426829268292683,-0.06097560975609757,0.12195121951219513,-0.0654296875,0.05078125,0.9091796875
865,4.33,IMU1,0.48780487804878053,-1.3414634146341464,0.24390243902439027,-0.0869140625,0.0673828125,0.9375
866,4.34,IMU0,-0.426829268292683,-0.12195121951219513,0.12195121951219513,-0.0654296875,0.05078125,0.91015625
867,4.34,IMU1,0.5487804878048781,-1.402439024390244,0.24390243902439027,-0.0859375,0.068359375,0.9375
868,4.35,IMU0,-0.426829268292683,-0.06097560975609757,0.1829268292682927,-0.0654296875,0.05078125,0.908203125
869,4.35,IMU1,0.5487804878048781,-1.402439024390244,0.1829268292682927,-0.0869140625,0.0673828125,0.9375
870,4.36,IMU0,-0.426829268292683,0.0,0.1829268292682927,-0.0654296875,0.0517578125,0.91015625
871,4.36,IMU1,0.5487804878048781,-1.402439024390244,0.24390243902439027,-0.0859375,0.0673828125,0.9384765625
872,4.37,IMU0,-0.426829268292683,-0.06097560975609757,0.1829268292682927,-0.064453125,0.05078125,0.9091796875
873,4.37,IMU1,0.48780487804878053,-1.402439024390244,0.24390243902439027,-0.0859375,0.06640625,0.939453125
874,4.38,IMU0,-0.48780487804878053,-0.06097560975609757,0.1829268292682927,-0.0654296875,0.05078125,0.91015625
875,4.38,IMU1,0.48780487804878053,-1.4634146341463417,0.1829268292682927,-0.0859375,0.0673828125,0.9384765625
876,4.39,IMU0,-0.48780487804878053,-0.06097560975609757,0.1829268292682927,-0.064453125,0.0517578125,0.91015625
877,4.39,IMU1,0.48780487804878053,-1.402439024390244,0.24390243902439027,-0.0859375,0.0673828125,0.9384765625
878,4.4,IMU0,-0.426829268292683,-0.06097560975609757,0.1829268292682927,-0.064453125,0.0517578125,0.9111328125
879,4.4,IMU1,0.5487804878048781,-1.402439024390244,0.1829268292682927,-0.0859375,0.0673828125,0.9384765625
880,4.41,IMU0,-0.426829268292683,-0.06097560975609757,0.12195121951219513,-0.0634765625,0.0517578125,0.9111328125
881,4.41,IMU1,0.5487804878048781,-1.402439024390244,0.24390243902439027,-0.0849609375,0.0673828125,0.939453125
882,4.42,IMU0,-0.426829268292683,0.0,0.12195121951219513,-0.064453125,0.05078125,0.912109375
883,4.42,IMU1,0.5487804878048781,-1.402439024390244,0.24390243902439027,-0.0869140625,0.0673828125,0.939453125
884,4.43,IMU0,-0.426829268292683,0.0,0.12195121951219513,-0.064453125,0.05078125,0.91015625
885,4.43,IMU1,0.48780487804878053,-1.3414634146341464,0.24390243902439027,-0.0849609375,0.06640625,0.9384765625
886,4.44,IMU0,-0.426829268292683,-0.06097560975609757,0.12195121951219513,-0.0654296875,0.05078125,0.9111328125
887,4.44,IMU1,0.5487804878048781,-1.402439024390244,0.24390243902439027,-0.0859375,0.0673828125,0.9375
888,4.45,IMU0,-0.426829268292683,-0.06097560975609757,0.12195121951219513,-0.064453125,0.05078125,0.912109375
889,4.45,IMU1,0.5487804878048781,-1.3414634146341464,0.24390243902439027,-0.0849609375,0.0673828125,0.9384765625
890,4.46,IMU0,-0.426829268292683,-0.06097560975609757,0.12195121951219513,-0.064453125,0.05078125,0.91015625
891,4.46,IMU1,0.5487804878048781,-1.3414634146341464,0.24390243902439027,-0.0859375,0.0673828125,0.9384765625
892,4.47,IMU0,-0.426829268292683,-0.06097560975609757,0.12195121951219513,-0.064453125,0.05078125,0.9111328125
893,4.47,IMU1,0.5487804878048781,-1.402439024390244,0.1829268292682927,-0.0869140625,0.0673828125,0.939453125
894,4.48,IMU0,-0.426829268292683,-0.06097560975609757,0.1829268292682927,-0.0654296875,0.05078125,0.9111328125
895,4.48,IMU1,0.48780487804878053,-1.402439024390244,0.1829268292682927,-0.0869140625,0.0673828125,0.9404296875
896,4.49,IMU0,-0.426829268292683,-0.12195121951219513,0.1829268292682927,-0.064453125,0.05078125,0.91015625
897,4.49,IMU1,0.48780487804878053,-1.402439024390244,0.1829268292682927,-0.0859375,0.0673828125,0.9404296875
898,4.5,IMU0,-0.426829268292683,-0.06097560975609757,0.1829268292682927,-0.064453125,0.0517578125,0.912109375
899,4.5,IMU1,0.5487804878048781,-1.402439024390244,0.12195121951219513,-0.0869140625,0.0673828125,0.9384765625
900,4.51,IMU0,-0.426829268292683,-0.06097560975609757,0.1829268292682927,-0.064453125,0.05078125,0.912109375
901,4.51,IMU1,0.5487804878048781,-1.3414634146341464,0.24390243902439027,-0.0859375,0.0673828125,0.9375
902,4.52,IMU0,-0.48780487804878053,-0.06097560975609757,0.1829268292682927,-0.064453125,0.0517578125,0.912109375
903,4.52,IMU1,0.48780487804878053,-1.402439024390244,0.24390243902439027,-0.0869140625,0.0673828125,0.939453125
904,4.53,IMU0,-0.48780487804878053,-0.06097560975609757,0.12195121951219513,-0.0634765625,0.0517578125,0.91015625
905,4.53,IMU1,0.5487804878048781,-1.402439024390244,0.24390243902439027,-0.0869140625,0.0673828125,0.939453125
906,4.54,IMU0,-0.48780487804878053,-0.06097560975609757,0.12195121951219513,-0.064453125,0.0517578125,0.91015625
907,4.54,IMU1,0.5487804878048781,-1.4634146341463417,0.24390243902439027,-0.0859375,0.0673828125,0.9384765625
908,4.55,IMU0,-0.48780487804878053,-0.12195121951219513,0.12195121951219513,-0.064453125,0.05078125,0.908203125
909,4.55,IMU1,0.48780487804878053,-1.402439024390244,0.24390243902439027,-0.0859375,0.0673828125,0.9384765625
910,4.56,IMU0,-0.48780487804878053,-0.06097560975609757,0.12195121951219513,-0.064453125,0.05078125,0.908203125
911,4.56,IMU1,0.5487804878048781,-1.402439024390244,0.1829268292682927,-0.0859375,0.0673828125,0.939453125
912,4.57,IMU0,-0.48780487804878053,-0.06097560975609757,0.12195121951219513,-0.064453125,0.0517578125,0.91015625
913,4.57,IMU1,0.6097560975609757,-1.402439024390244,0.24390243902439027,-0.0859375,0.06640625,0.939453125
914,4.58,IMU0,-0.426829268292683,-0.06097560975609757,0.12195121951219513,-0.0634765625,0.0517578125,0.91015625
915,4.58,IMU1,0.5487804878048781,-1.402439024390244,0.1829268292682927,-0.0849609375,0.06640625,0.9375
916,4.59,IMU0,-0.426829268292683,0.0,0.1829268292682927,-0.064453125,0.0517578125,0.91015625
917,4.59,IMU1,0.48780487804878053,-1.402439024390244,0.1829268292682927,-0.0869140625,0.0654296875,0.9384765625
918,4.6,IMU0,-0.426829268292683,-0.06097560975609757,0.1829268292682927,-0.0634765625,0.0517578125,0.91015625
919,4.6,IMU1,0.48780487804878053,-1.402439024390244,0.24390243902439027,-0.0859375,0.06640625,0.9365234375
920,4.61,IMU0,-0.48780487804878053,-0.12195121951219513,0.1829268292682927,-0.0634765625,0.05078125,0.9111328125
921,4.61,IMU1,0.48780487804878053,-1.402439024390244,0.24390243902439027,-0.0859375,0.06640625,0.9384765625
922,4.62,IMU0,-0.426829268292683,-0.06097560975609757,0.12195121951219513,-0.0634765625,0.0517578125,0.9091796875
923,4.62,IMU1,0.5487804878048781,-1.402439024390244,0.1829268292682927,-0.0869140625,0.06640625,0.9384765625
924,4.63,IMU0,-0.426829268292683,-0.06097560975609757,0.1829268292682927,-0.064453125,0.0517578125,0.91015625
925,4.63,IMU1,0.5487804878048781,-1.402439024390244,0.1829268292682927,-0.0869140625,0.06640625,0.9384765625
926,4.64,IMU0,-0.426829268292683,-0.06097560975609757,0.12195121951219513,-0.064453125,0.052734375,0.91015625
927,4.64,IMU1,0.5487804878048781,-1.3414634146341464,0.1829268292682927,-0.0859375,0.0673828125,0.9375
928,4.65,IMU0,-0.426829268292683,-0.12195121951219513,0.1829268292682927,-0.064453125,0.0517578125,0.91015625
929,4.65,IMU1,0.48780487804878053,-1.402439024390244,0.24390243902439027,-0.0859375,0.0673828125,0.9375
930,4.66,IMU0,-0.48780487804878053,-0.06097560975609757,0.1829268292682927,-0.0634765625,0.05078125,0.91015625
931,4.66,IMU1,0.48780487804878053,-1.402439024390244,0.1829268292682927,-0.0859375,0.0673828125,0.9365234375
932,4.67,IMU0,-0.48780487804878053,-0.06097560975609757,0.12195121951219513,-0.064453125,0.05078125,0.9091796875
933,4.67,IMU1,0.48780487804878053,-1.402439024390244,0.24390243902439027,-0.0869140625,0.06640625,0.9384765625
934,4.68,IMU0,-0.48780487804878053,-0.12195121951219513,0.12195121951219513,-0.064453125,0.0517578125,0.91015625
935,4.68,IMU1,0.48780487804878053,-1.402439024390244,0.1829268292682927,-0.0849609375,0.0673828125,0.9384765625
936,4.69,IMU0,-0.48780487804878053,-0.06097560975609757,0.12195121951219513,-0.064453125,0.0517578125,0.91015625
937,4.69,IMU1,0.5487804878048781,-1.402439024390244,0.24390243902439027,-0.0859375,0.0673828125,0.939453125
938,4.7,IMU0,-0.48780487804878053,0.0,0.1829268292682927,-0.0634765625,0.052734375,0.9091796875
939,4.7,IMU1,0.5487804878048781,-1.3414634146341464,0.24390243902439027,-0.0859375,0.0673828125,0.9384765625
940,4.71,IMU0,-0.426829268292683,0.0,0.1829268292682927,-0.064453125,0.0517578125,0.91015625
941,4.71,IMU1,0.5487804878048781,-1.3414634146341464,0.1829268292682927,-0.0849609375,0.0673828125,0.939453125
942,4.72,IMU0,-0.426829268292683,0.0,0.12195121951219513,-0.064453125,0.05078125,0.9111328125
943,4.72,IMU1,0.48780487804878053,-1.402439024390244,0.1829268292682927,-0.0859375,0.06640625,0.9384765625
944,4.73,IMU0,-0.426829268292683,-0.06097560975609757,0.12195121951219513,-0.064453125,0.0517578125,0.9111328125
945,4.73,IMU1,0.48780487804878053,-1.402439024390244,0.24390243902439027,-0.0859375,0.068359375,0.9384765625
946,4.74,IMU0,-0.426829268292683,-0.06097560975609757,0.1829268292682927,-0.064453125,0.052734375,0.9111328125
947,4.74,IMU1,0.5487804878048781,-1.402439024390244,0.1829268292682927,-0.0859375,0.0673828125,0.939453125
948,4.75,IMU0,-0.426829268292683,-0.06097560975609757,0.1829268292682927,-0.064453125,0.0517578125,0.9111328125
949,4.75,IMU1,0.5487804878048781,-1.3414634146341464,0.1829268292682927,-0.0859375,0.068359375,0.9375
950,4.76,IMU0,-0.426829268292683,-0.06097560975609757,0.1829268292682927,-0.064453125,0.052734375,0.9111328125
951,4.76,IMU1,0.5487804878048781,-1.402439024390244,0.1829268292682927,-0.0869140625,0.0673828125,0.9375
952,4.77,IMU0,-0.426829268292683,-0.06097560975609757,0.12195121951219513,-0.064453125,0.052734375,0.912109375
953,4.77,IMU1,0.5487804878048781,-1.402439024390244,0.1829268292682927,-0.0859375,0.0673828125,0.9375
954,4.78,IMU0,-0.426829268292683,-0.06097560975609757,0.12195121951219513,-0.0634765625,0.0517578125,0.908203125
955,4.78,IMU1,0.48780487804878053,-1.402439024390244,0.1829268292682927,-0.0859375,0.06640625,0.939453125
956,4.79,IMU0,-0.426829268292683,-0.06097560975609757,0.12195121951219513,-0.0634765625,0.0517578125,0.9091796875
957,4.79,IMU1,0.5487804878048781,-1.4634146341463417,0.1829268292682927,-0.0859375,0.0673828125,0.939453125
958,4.8,IMU0,-0.426829268292683,-0.06097560975609757,0.12195121951219513,-0.064453125,0.0517578125,0.91015625
959,4.8,IMU1,0.5487804878048781,-1.3414634146341464,0.1829268292682927,-0.0859375,0.0673828125,0.9384765625
960,4.81,IMU0,-0.426829268292683,-0.06097560975609757,0.12195121951219513,-0.0634765625,0.0517578125,0.9111328125
961,4.81,IMU1,0.5487804878048781,-1.3414634146341464,0.24390243902439027,-0.0869140625,0.0673828125,0.9404296875
962,4.82,IMU0,-0.426829268292683,-0.12195121951219513,0.12195121951219513,-0.0654296875,0.0517578125,0.91015625
963,4.82,IMU1,0.5487804878048781,-1.402439024390244,0.1829268292682927,-0.0859375,0.06640625,0.9384765625
964,4.83,IMU0,-0.426829268292683,-0.06097560975609757,0.06097560975609757,-0.064453125,0.0517578125,0.9091796875
965,4.83,IMU1,0.5487804878048781,-1.402439024390244,0.24390243902439027,-0.0859375,0.0673828125,0.9375
966,4.84,IMU0,-0.426829268292683,-0.06097560975609757,0.12195121951219513,-0.0654296875,0.0517578125,0.91015625
967,4.84,IMU1,0.48780487804878053,-1.3414634146341464,0.24390243902439027,-0.0869140625,0.0673828125,0.9365234375
968,4.85,IMU0,-0.426829268292683,-0.06097560975609757,0.12195121951219513,-0.0634765625,0.0517578125,0.91015625
969,4.85,IMU1,0.48780487804878053,-1.3414634146341464,0.24390243902439027,-0.0859375,0.0673828125,0.9365234375
970,4.86,IMU0,-0.48780487804878053,-0.06097560975609757,0.12195121951219513,-0.0634765625,0.0517578125,0.91015625
971,4.86,IMU1,0.5487804878048781,-1.3414634146341464,0.1829268292682927,-0.0849609375,0.06640625,0.9384765625
972,4.87,IMU0,-0.48780487804878053,0.0,0.12195121951219513,-0.064453125,0.0498046875,0.91015625
973,4.87,IMU1,0.48780487804878053,-1.3414634146341464,0.1829268292682927,-0.0859375,0.0673828125,0.9384765625
974,4.88,IMU0,-0.48780487804878053,0.0,0.12195121951219513,-0.0654296875,0.0498046875,0.9111328125
975,4.88,IMU1,0.5487804878048781,-1.3414634146341464,0.12195121951219513,-0.0859375,0.06640625,0.9404296875
976,4.89,IMU0,-0.426829268292683,-0.06097560975609757,0.12195121951219513,-0.064453125,0.0517578125,0.91015625
977,4.89,IMU1,0.5487804878048781,-1.402439024390244,0.1829268292682927,-0.0869140625,0.06640625,0.9404296875
978,4.9,IMU0,-0.48780487804878053,-0.06097560975609757,0.12195121951219513,-0.064453125,0.0517578125,0.908203125
979,4.9,IMU1,0.5487804878048781,-1.402439024390244,0.1829268292682927,-0.0859375,0.0673828125,0.9404296875
980,4.91,IMU0,-0.48780487804878053,-0.06097560975609757,0.12195121951219513,-0.0634765625,0.05078125,0.9091796875
981,4.91,IMU1,0.5487804878048781,-1.402439024390244,0.1829268292682927,-0.0859375,0.0673828125,0.939453125
982,4.92,IMU0,-0.48780487804878053,0.0,0.12195121951219513,-0.064453125,0.0517578125,0.9091796875
983,4.92,IMU1,0.48780487804878053,-1.402439024390244,0.1829268292682927,-0.0869140625,0.0673828125,0.9375
984,4.93,IMU0,-0.48780487804878053,0.0,0.1829268292682927,-0.064453125,0.0517578125,0.912109375
985,4.93,IMU1,0.48780487804878053,-1.402439024390244,0.24390243902439027,-0.0869140625,0.0673828125,0.9375
986,4.94,IMU0,-0.48780487804878053,0.0,0.1829268292682927,-0.0634765625,0.0517578125,0.9130859375
987,4.94,IMU1,0.48780487804878053,-1.402439024390244,0.1829268292682927,-0.0869140625,0.0673828125,0.9375
988,4.95,IMU0,-0.426829268292683,-0.06097560975609757,0.12195121951219513,-0.064453125,0.05078125,0.912109375
989,4.95,IMU1,0.48780487804878053,-1.402439024390244,0.24390243902439027,-0.0869140625,0.0673828125,0.9375
990,4.96,IMU0,-0.426829268292683,-0.06097560975609757,0.1829268292682927,-0.0654296875,0.05078125,0.912109375
991,4.96,IMU1,0.48780487804878053,-1.402439024390244,0.24390243902439027,-0.0859375,0.0673828125,0.9375
992,4.97,IMU0,-0.426829268292683,-0.06097560975609757,0.12195121951219513,-0.064453125,0.05078125,0.91015625
993,4.97,IMU1,0.5487804878048781,-1.3414634146341464,0.24390243902439027,-0.0859375,0.0673828125,0.9384765625
994,4.98,IMU0,-0.426829268292683,0.0,0.12195121951219513,-0.064453125,0.05078125,0.9091796875
995,4.98,IMU1,0.5487804878048781,-1.3414634146341464,0.30487804878048785,-0.0859375,0.0673828125,0.939453125
996,4.99,IMU0,-0.426829268292683,-0.06097560975609757,0.12195121951219513,-0.064453125,0.05078125,0.9091796875
997,4.99,IMU1,0.48780487804878053,-1.3414634146341464,0.30487804878048785,-0.0869140625,0.068359375,0.9404296875
998,5.0,IMU0,-0.426829268292683,-0.06097560975609757,0.12195121951219513,-0.0634765625,0.0517578125,0.908203125
999,5.0,IMU1,0.5487804878048781,-1.3414634146341464,0.24390243902439027,-0.0869140625,0.0673828125,0.939453125
1000,5.01,IMU0,-0.426829268292683,-0.06097560975609757,0.12195121951219513,-0.064453125,0.0517578125,0.908203125
1001,5.01,IMU1,0.48780487804878053,-1.3414634146341464,0.24390243902439027,-0.0859375,0.068359375,0.939453125
1002,5.02,IMU0,-0.426829268292683,0.0,0.12195121951219513,-0.064453125,0.05078125,0.9091796875
1003,5.02,IMU1,0.5487804878048781,-1.3414634146341464,0.1829268292682927,-0.0869140625,0.068359375,0.939453125
1004,5.03,IMU0,-0.426829268292683,-0.06097560975609757,0.12195121951219513,-0.064453125,0.05078125,0.91015625
1005,5.03,IMU1,0.48780487804878053,-1.3414634146341464,0.1829268292682927,-0.0869140625,0.06640625,0.9384765625
1006,5.04,IMU0,-0.426829268292683,-0.06097560975609757,0.1829268292682927,-0.064453125,0.05078125,0.9091796875
1007,5.04,IMU1,0.5487804878048781,-1.402439024390244,0.1829268292682927,-0.0869140625,0.0673828125,0.9384765625
1008,5.05,IMU0,-0.3658536585365854,-0.06097560975609757,0.1829268292682927,-0.064453125,0.05078125,0.9091796875
1009,5.05,IMU1,0.48780487804878053,-1.402439024390244,0.24390243902439027,-0.0859375,0.0673828125,0.9384765625
1010,5.06,IMU0,-0.426829268292683,-0.06097560975609757,0.12195121951219513,-0.0654296875,0.05078125,0.908203125
1011,5.06,IMU1,0.5487804878048781,-1.402439024390244,0.24390243902439027,-0.0849609375,0.068359375,0.9404296875
1012,5.07,IMU0,-0.48780487804878053,-0.06097560975609757,0.12195121951219513,-0.0634765625,0.05078125,0.9072265625
1013,5.07,IMU1,0.5487804878048781,-1.402439024390244,0.1829268292682927,-0.0849609375,0.0673828125,0.939453125
1014,5.08,IMU0,-0.48780487804878053,-0.12195121951219513,0.12195121951219513,-0.0634765625,0.0517578125,0.90625
1015,5.08,IMU1,0.5487804878048781,-1.402439024390244,0.1829268292682927,-0.0849609375,0.06640625,0.939453125
1016,5.09,IMU0,-0.48780487804878053,-0.06097560975609757,0.12195121951219513,-0.064453125,0.0517578125,0.9072265625
1017,5.09,IMU1,0.5487804878048781,-1.402439024390244,0.24390243902439027,-0.0849609375,0.06640625,0.9384765625
1018,5.1,IMU0,-0.48780487804878053,-0.06097560975609757,0.12195121951219513,-0.0634765625,0.052734375,0.9091796875
1019,5.1,IMU1,0.426829268292683,-1.402439024390244,0.1829268292682927,-0.0859375,0.0673828125,0.9375
1020,5.11,IMU0,-0.48780487804878053,0.0,0.12195121951219513,-0.0634765625,0.0517578125,0.9111328125
1021,5.11,IMU1,0.48780487804878053,-1.402439024390244,0.24390243902439027,-0.0869140625,0.06640625,0.9384765625
1022,5.12,IMU0,-0.48780487804878053,-0.06097560975609757,0.12195121951219513,-0.064453125,0.0517578125,0.9111328125
1023,5.12,IMU1,0.48780487804878053,-1.3414634146341464,0.1829268292682927,-0.0869140625,0.0673828125,0.9384765625
1024,5.13,IMU0,-0.48780487804878053,-0.06097560975609757,0.12195121951219513,-0.064453125,0.05078125,0.9111328125
1025,5.13,IMU1,0.48780487804878053,-1.402439024390244,0.1829268292682927,-0.0859375,0.0673828125,0.9384765625
1026,5.14,IMU0,-0.426829268292683,-0.06097560975609757,0.12195121951219513,-0.064453125,0.05078125,0.9111328125
1027,5.14,IMU1,0.48780487804878053,-1.402439024390244,0.1829268292682927,-0.0859375,0.0673828125,0.9384765625
1028,5.15,IMU0,-0.426829268292683,-0.06097560975609757,0.12195121951219513,-0.064453125,0.052734375,0.91015625
1029,5.15,IMU1,0.5487804878048781,-1.402439024390244,0.1829268292682927,-0.0859375,0.06640625,0.939453125
1030,5.16,IMU0,-0.426829268292683,-0.06097560975609757,0.12195121951219513,-0.064453125,0.052734375,0.908203125
1031,5.16,IMU1,0.48780487804878053,-1.402439024390244,0.1829268292682927,-0.0869140625,0.0673828125,0.9384765625
1032,5.17,IMU0,-0.426829268292683,-0.06097560975609757,0.12195121951219513,-0.064453125,0.052734375,0.908203125
1033,5.17,IMU1,0.5487804878048781,-1.402439024390244,0.24390243902439027,-0.0859375,0.0673828125,0.939453125
1034,5.18,IMU0,-0.48780487804878053,-0.06097560975609757,0.12195121951219513,-0.0654296875,0.05078125,0.9091796875
1035,5.18,IMU1,0.48780487804878053,-1.402439024390244,0.24390243902439027,-0.0859375,0.068359375,0.9384765625
1036,5.19,IMU0,-0.48780487804878053,-0.06097560975609757,0.12195121951219513,-0.064453125,0.05078125,0.91015625
1037,5.19,IMU1,0.48780487804878053,-1.3414634146341464,0.24390243902439027,-0.0859375,0.0673828125,0.9365234375
1038,5.2,IMU0,-0.426829268292683,-0.06097560975609757,0.12195121951219513,-0.064453125,0.05078125,0.9091796875
1039,5.2,IMU1,0.5487804878048781,-1.3414634146341464,0.24390243902439027,-0.0859375,0.06640625,0.9375
1040,5.21,IMU0,-0.426829268292683,-0.06097560975609757,0.1829268292682927,-0.0634765625,0.05078125,0.91015625
1041,5.21,IMU1,0.5487804878048781,-1.3414634146341464,0.30487804878048785,-0.0869140625,0.0673828125,0.9384765625
1042,5.22,IMU0,-0.426829268292683,-0.06097560975609757,0.1829268292682927,-0.064453125,0.05078125,0.912109375
1043,5.22,IMU1,0.48780487804878053,-1.3414634146341464,0.24390243902439027,-0.0859375,0.0673828125,0.9384765625
1044,5.23,IMU0,-0.426829268292683,-0.12195121951219513,0.1829268292682927,-0.064453125,0.0517578125,0.9111328125
1045,5.23,IMU1,0.48780487804878053,-1.402439024390244,0.24390243902439027,-0.0849609375,0.06640625,0.9404296875
1046,5.24,IMU0,-0.426829268292683,-0.12195121951219513,0.12195121951219513,-0.064453125,0.0517578125,0.91015625
1047,5.24,IMU1,0.48780487804878053,-1.4634146341463417,0.24390243902439027,-0.0859375,0.06640625,0.939453125
1048,5.25,IMU0,-0.48780487804878053,-0.06097560975609757,0.12195121951219513,-0.064453125,0.05078125,0.9091796875
1049,5.25,IMU1,0.5487804878048781,-1.402439024390244,0.24390243902439027,-0.0859375,0.0673828125,0.939453125
1050,5.26,IMU0,-0.426829268292683,-0.06097560975609757,0.12195121951219513,-0.0654296875,0.0498046875,0.9111328125
1051,5.26,IMU1,0.5487804878048781,-1.402439024390244,0.24390243902439027,-0.0859375,0.0673828125,0.9404296875
1052,5.27,IMU0,-0.48780487804878053,-0.06097560975609757,0.12195121951219513,-0.064453125,0.05078125,0.9111328125
1053,5.27,IMU1,0.5487804878048781,-1.402439024390244,0.24390243902439027,-0.0849609375,0.068359375,0.939453125
1054,5.28,IMU0,-0.426829268292683,-0.06097560975609757,0.12195121951219513,-0.064453125,0.0517578125,0.9111328125
1055,5.28,IMU1,0.5487804878048781,-1.402439024390244,0.24390243902439027,-0.0849609375,0.0673828125,0.9404296875
1056,5.29,IMU0,-0.426829268292683,-0.12195121951219513,0.12195121951219513,-0.064453125,0.052734375,0.91015625
1057,5.29,IMU1,0.5487804878048781,-1.402439024390244,0.24390243902439027,-0.0869140625,0.068359375,0.9384765625
1058,5.3,IMU0,-0.426829268292683,-0.12195121951219513,0.12195121951219513,-0.064453125,0.0517578125,0.91015625
1059,5.3,IMU1,0.48780487804878053,-1.402439024390244,0.24390243902439027,-0.0859375,0.0673828125,0.9384765625
1060,5.31,IMU0,-0.426829268292683,-0.12195121951219513,0.12195121951219513,-0.0654296875,0.0517578125,0.91015625
1061,5.31,IMU1,0.5487804878048781,-1.3414634146341464,0.24390243902439027,-0.0859375,0.06640625,0.939453125
1062,5.32,IMU0,-0.426829268292683,-0.06097560975609757,0.12195121951219513,-0.064453125,0.0517578125,0.9111328125
1063,5.32,IMU1,0.5487804878048781,-1.3414634146341464,0.24390243902439027,-0.0859375,0.06640625,0.939453125
1064,5.33,IMU0,-0.48780487804878053,-0.06097560975609757,0.06097560975609757,-0.064453125,0.0517578125,0.912109375
1065,5.33,IMU1,0.5487804878048781,-1.402439024390244,0.1829268292682927,-0.0849609375,0.06640625,0.9384765625
1066,5.34,IMU0,-0.48780487804878053,-0.06097560975609757,0.12195121951219513,-0.064453125,0.05078125,0.9111328125
1067,5.34,IMU1,0.5487804878048781,-1.402439024390244,0.24390243902439027,-0.0859375,0.0673828125,0.9404296875
1068,5.35,IMU0,-0.48780487804878053,-0.06097560975609757,0.1829268292682927,-0.064453125,0.0498046875,0.91015625
1069,5.35,IMU1,0.5487804878048781,-1.402439024390244,0.1829268292682927,-0.0859375,0.068359375,0.9404296875
1070,5.36,IMU0,-0.48780487804878053,0.0,0.1829268292682927,-0.0634765625,0.05078125,0.9111328125
1071,5.36,IMU1,0.5487804878048781,-1.402439024390244,0.1829268292682927,-0.0849609375,0.068359375,0.9384765625
1072,5.37,IMU0,-0.426829268292683,-0.06097560975609757,0.1829268292682927,-0.064453125,0.0517578125,0.9091796875
1073,5.37,IMU1,0.48780487804878053,-1.4634146341463417,0.24390243902439027,-0.0869140625,0.0673828125,0.9375
1074,5.38,IMU0,-0.426829268292683,-0.06097560975609757,0.12195121951219513,-0.0634765625,0.05078125,0.908203125
1075,5.38,IMU1,0.5487804878048781,-1.402439024390244,0.24390243902439027,-0.0869140625,0.0673828125,0.9384765625
1076,5.39,IMU0,-0.3658536585365854,0.0,0.12195121951219513,-0.0634765625,0.0517578125,0.91015625
1077,5.39,IMU1,0.5487804878048781,-1.402439024390244,0.30487804878048785,-0.0869140625,0.0673828125,0.9375
1078,5.4,IMU0,-0.3658536585365854,0.0,0.12195121951219513,-0.0634765625,0.05078125,0.9111328125
1079,5.4,IMU1,0.5487804878048781,-1.3414634146341464,0.30487804878048785,-0.0869140625,0.0673828125,0.9365234375
1080,5.41,IMU0,-0.426829268292683,-0.06097560975609757,0.12195121951219513,-0.0634765625,0.05078125,0.9091796875
1081,5.41,IMU1,0.48780487804878053,-1.4634146341463417,0.30487804878048785,-0.0869140625,0.06640625,0.9365234375
1082,5.42,IMU0,-0.426829268292683,-0.06097560975609757,0.12195121951219513,-0.064453125,0.05078125,0.9091796875
1083,5.42,IMU1,0.48780487804878053,-1.402439024390244,0.24390243902439027,-0.0869140625,0.0673828125,0.9384765625
1084,5.43,IMU0,-0.48780487804878053,-0.06097560975609757,0.12195121951219513,-0.0634765625,0.0517578125,0.9091796875
1085,5.43,IMU1,0.5487804878048781,-1.402439024390244,0.1829268292682927,-0.0869140625,0.0673828125,0.9375
1086,5.44,IMU0,-0.48780487804878053,-0.06097560975609757,0.12195121951219513,-0.064453125,0.05078125,0.9111328125
1087,5.44,IMU1,0.48780487804878053,-1.402439024390244,0.30487804878048785,-0.0869140625,0.068359375,0.9384765625
1088,5.45,IMU0,-0.48780487804878053,-0.06097560975609757,0.12195121951219513,-0.0634765625,0.05078125,0.91015625
1089,5.45,IMU1,0.48780487804878053,-1.402439024390244,0.30487804878048785,-0.0869140625,0.068359375,0.9365234375
1090,5.46,IMU0,-0.48780487804878053,-0.06097560975609757,0.1829268292682927,-0.0634765625,0.0517578125,0.91015625
1091,5.46,IMU1,0.48780487804878053,-1.402439024390244,0.24390243902439027,-0.0859375,0.068359375,0.9384765625
1092,5.47,IMU0,-0.48780487804878053,-0.06097560975609757,0.1829268292682927,-0.0634765625,0.0517578125,0.912109375
1093,5.47,IMU1,0.5487804878048781,-1.402439024390244,0.24390243902439027,-0.0859375,0.0673828125,0.939453125
1094,5.48,IMU0,-0.5487804878048781,-0.06097560975609757,0.12195121951219513,-0.064453125,0.05078125,0.91015625
1095,5.48,IMU1,0.5487804878048781,-1.402439024390244,0.24390243902439027,-0.0859375,0.0673828125,0.9384765625
1096,5.49,IMU0,-0.48780487804878053,-0.12195121951219513,0.12195121951219513,-0.0634765625,0.05078125,0.9091796875
1097,5.49,IMU1,0.5487804878048781,-1.402439024390244,0.24390243902439027,-0.0859375,0.06640625,0.939453125
1098,5.5,IMU0,-0.426829268292683,-0.06097560975609757,0.12195121951219513,-0.0634765625,0.05078125,0.91015625
1099,5.5,IMU1,0.5487804878048781,-1.402439024390244,0.24390243902439027,-0.0859375,0.0673828125,0.9375
1100,5.51,IMU0,-0.426829268292683,-0.06097560975609757,0.12195121951219513,-0.064453125,0.0498046875,0.9111328125
1101,5.51,IMU1,0.48780487804878053,-1.402439024390244,0.1829268292682927,-0.0859375,0.068359375,0.9375
1102,5.52,IMU0,-0.426829268292683,-0.06097560975609757,0.12195121951219513,-0.064453125,0.05078125,0.912109375
1103,5.52,IMU1,0.48780487804878053,-1.3414634146341464,0.24390243902439027,-0.0859375,0.0673828125,0.9384765625
1104,5.53,IMU0,-0.3658536585365854,-0.06097560975609757,0.1829268292682927,-0.0654296875,0.05078125,0.9111328125
1105,5.53,IMU1,0.48780487804878053,-1.2804878048780488,0.24390243902439027,-0.0859375,0.0673828125,0.935546875
1106,5.54,IMU0,-0.426829268292683,-0.06097560975609757,0.1829268292682927,-0.0654296875,0.0498046875,0.9111328125
