,ts,id,Gx,Gy,Gz,Ax,Ay,Az
0,-0.371,IMU0,1.829268292682927,0.5487804878048781,-65.1219512195122,0.025390625,0.0185546875,0.0048828125
1,-0.371,IMU1,3.8414634146341466,1.0365853658536586,-66.40243902439025,0.0068359375,0.017578125,-0.001953125
2,-0.361,IMU0,2.439024390243903,0.6097560975609757,-65.0,0.0234375,0.0146484375,0.001953125
3,-0.361,IMU1,3.963414634146342,1.1585365853658538,-66.89024390243902,0.0029296875,0.0087890625,-0.001953125
4,-0.351,IMU0,1.8902439024390245,0.853658536585366,-65.0,0.0263671875,0.01953125,0.005859375
5,-0.351,IMU1,3.780487804878049,1.4634146341463417,-66.76829268292684,0.0068359375,0.015625,-0.0029296875
6,-0.341,IMU0,1.9512195121951221,0.12195121951219513,-65.0,0.0205078125,0.0087890625,0.0009765625
7,-0.341,IMU1,3.658536585365854,0.7317073170731708,-66.70731707317074,0.0009765625,0.0107421875,-0.0029296875
8,-0.331,IMU0,2.5609756097560976,1.2804878048780488,-64.57317073170732,0.029296875,0.0166015625,0.0029296875
9,-0.331,IMU1,4.329268292682928,1.829268292682927,-66.46341463414635,0.0068359375,0.013671875,-0.00390625
10,-0.321,IMU0,1.3414634146341464,0.1829268292682927,-65.54878048780489,0.0205078125,0.01171875,0.0048828125
11,-0.321,IMU1,3.1707317073170733,0.7317073170731708,-67.13414634146342,0.0,0.01171875,-0.0009765625
12,-0.311,IMU0,2.378048780487805,0.9146341463414634,-64.63414634146342,0.0244140625,0.0185546875,0.0029296875
13,-0.311,IMU1,3.658536585365854,0.9146341463414634,-67.07317073170732,0.001953125,0.0126953125,0.0
14,-0.301,IMU0,2.25609756097561,1.2195121951219514,-64.87804878048782,0.025390625,0.0126953125,0.001953125
15,-0.301,IMU1,4.085365853658537,2.1341463414634148,-66.70731707317074,0.0048828125,0.0146484375,-0.00390625
16,-0.291,IMU0,1.707317073170732,-0.5487804878048781,-65.0609756097561,0.0244140625,0.017578125,0.0009765625
17,-0.291,IMU1,3.414634146341464,-0.426829268292683,-67.25609756097562,0.0009765625,0.0126953125,-0.00390625
18,-0.281,IMU0,2.5609756097560976,2.0121951219512195,-64.75609756097562,0.025390625,0.013671875,0.005859375
19,-0.281,IMU1,4.024390243902439,2.5,-66.89024390243902,0.005859375,0.0146484375,0.0009765625
20,-0.271,IMU0,1.8902439024390245,-0.3658536585365854,-65.3658536585366,0.0244140625,0.017578125,0.0009765625
21,-0.271,IMU1,3.5975609756097566,0.12195121951219513,-67.13414634146342,0.001953125,0.015625,-0.0048828125
22,-0.261,IMU0,2.1341463414634148,1.402439024390244,-64.69512195121952,0.0234375,0.0166015625,0.00390625
23,-0.261,IMU1,3.780487804878049,1.402439024390244,-67.01219512195122,0.001953125,0.0146484375,-0.0009765625
24,-0.251,IMU0,2.439024390243903,0.48780487804878053,-65.0,0.02734375,0.015625,0.0048828125
25,-0.251,IMU1,4.146341463414634,1.2195121951219514,-66.76829268292684,0.0068359375,0.015625,-0.0009765625
26,-0.241,IMU0,1.7682926829268295,0.3658536585365854,-65.1219512195122,0.0205078125,0.0126953125,0.0
27,-0.241,IMU1,3.353658536585366,0.30487804878048785,-66.76829268292684,-0.0029296875,0.0126953125,-0.00390625
28,-0.231,IMU0,2.6219512195121952,1.2804878048780488,-65.0,0.0302734375,0.0146484375,0.005859375
29,-0.231,IMU1,4.085365853658537,1.829268292682927,-66.58536585365854,0.0068359375,0.0166015625,0.001953125
30,-0.221,IMU0,1.829268292682927,-0.3658536585365854,-64.9390243902439,0.021484375,0.0146484375,0.001953125
31,-0.221,IMU1,3.658536585365854,0.1829268292682927,-67.13414634146342,-0.0029296875,0.01171875,-0.00390625
32,-0.211,IMU0,2.6219512195121952,1.0365853658536586,-65.2439024390244,0.025390625,0.013671875,0.0048828125
33,-0.211,IMU1,4.146341463414634,1.707317073170732,-66.82926829268293,0.001953125,0.0107421875,0.0009765625
34,-0.201,IMU0,2.5609756097560976,0.12195121951219513,-65.0,0.0244140625,0.0087890625,0.001953125
35,-0.201,IMU1,4.085365853658537,0.6097560975609757,-67.07317073170732,0.0,0.0087890625,-0.00390625
36,-0.191,IMU0,2.073170731707317,0.6707317073170732,-64.87804878048782,0.017578125,0.009765625,0.0009765625
37,-0.191,IMU1,3.353658536585366,1.0365853658536586,-66.89024390243902,-0.005859375,0.005859375,-0.0029296875
38,-0.181,IMU0,2.8658536585365857,-0.3658536585365854,-65.73170731707317,0.015625,0.01953125,0.0068359375
39,-0.181,IMU1,4.146341463414634,0.1829268292682927,-67.92682926829269,-0.0087890625,0.0146484375,0.0009765625
40,-0.171,IMU0,1.7682926829268295,0.6097560975609757,-66.34146341463415,0.001953125,0.0390625,-0.001953125
41,-0.171,IMU1,3.4756097560975614,0.9756097560975611,-67.8658536585366,-0.0224609375,0.041015625,-0.0078125
42,-0.161,IMU0,0.1829268292682927,6.890243902439025,-70.97560975609757,0.0537109375,0.078125,0.0205078125
43,-0.161,IMU1,3.1097560975609757,6.7682926829268295,-72.25609756097562,0.0302734375,0.0791015625,0.009765625
44,-0.151,IMU0,0.12195121951219513,1.8902439024390245,-76.15853658536587,0.138671875,0.138671875,0.0341796875
45,-0.151,IMU1,1.0365853658536586,3.4756097560975614,-77.43902439024392,0.1064453125,0.1357421875,0.0341796875
46,-0.141,IMU0,2.3170731707317076,9.146341463414634,-79.14634146341464,0.2822265625,0.1376953125,0.0498046875
47,-0.141,IMU1,4.75609756097561,8.353658536585366,-82.01219512195122,0.255859375,0.1328125,0.0361328125
48,-0.131,IMU0,2.7439024390243905,-0.12195121951219513,-80.48780487804879,0.337890625,0.1064453125,0.0625
49,-0.131,IMU1,4.939024390243903,0.6707317073170732,-82.8658536585366,0.3095703125,0.1083984375,0.060546875
50,-0.121,IMU0,1.9512195121951221,1.402439024390244,-92.98780487804879,0.345703125,0.1044921875,0.0576171875
51,-0.121,IMU1,4.024390243902439,1.1585365853658538,-92.19512195121952,0.3212890625,0.109375,0.0546875
52,-0.111,IMU0,4.939024390243903,-7.378048780487806,-113.04878048780489,0.27734375,0.0927734375,0.0361328125
53,-0.111,IMU1,6.7682926829268295,-7.682926829268293,-112.98780487804879,0.251953125,0.1103515625,0.0361328125
54,-0.101,IMU0,4.939024390243903,-0.24390243902439027,-140.0,0.1748046875,0.0302734375,0.0224609375
55,-0.101,IMU1,7.073170731707318,-1.7682926829268295,-142.8658536585366,0.140625,0.0341796875,0.015625
56,-0.091,IMU0,6.707317073170732,-1.829268292682927,-155.3048780487805,0.0537109375,-0.021484375,0.0205078125
57,-0.091,IMU1,8.902439024390244,-0.3658536585365854,-156.28048780487805,0.0244140625,-0.0126953125,0.0126953125
58,-0.081,IMU0,2.804878048780488,1.7682926829268295,-171.15853658536588,-0.025390625,-0.0419921875,0.0244140625
59,-0.081,IMU1,4.695121951219512,0.6707317073170732,-172.50000000000003,-0.056640625,-0.0458984375,0.0166015625
60,-0.071,IMU0,5.426829268292684,6.646341463414635,-177.43902439024393,-0.072265625,-0.0322265625,-0.005859375
61,-0.071,IMU1,6.890243902439025,7.743902439024391,-177.50000000000003,-0.1083984375,-0.0361328125,-0.01171875
62,-0.061,IMU0,5.548780487804878,8.597560975609756,-188.2317073170732,-0.0439453125,-0.0078125,0.0146484375
63,-0.061,IMU1,5.975609756097562,10.060975609756099,-189.87804878048783,-0.0732421875,-0.0263671875,0.0048828125
64,-0.051,IMU0,4.878048780487806,5.3048780487804885,-196.82926829268294,0.03125,-0.015625,0.021484375
65,-0.051,IMU1,6.341463414634147,7.25609756097561,-197.9268292682927,0.0087890625,-0.0185546875,0.0146484375
66,-0.041,IMU0,7.317073170731708,9.939024390243903,-198.109756097561,0.1083984375,-0.056640625,0.0048828125
67,-0.041,IMU1,9.390243902439025,11.402439024390246,-200.06097560975613,0.0849609375,-0.0625,0.0009765625
68,-0.031,IMU0,6.646341463414635,5.3048780487804885,-201.34146341463418,0.1650390625,-0.064453125,-0.001953125
69,-0.031,IMU1,7.621951219512196,5.548780487804878,-201.34146341463418,0.1435546875,-0.0634765625,0.001953125
70,-0.021,IMU0,7.865853658536586,7.865853658536586,-197.9268292682927,0.146484375,-0.046875,-0.0224609375
71,-0.021,IMU1,9.207317073170733,7.987804878048781,-200.00000000000003,0.1220703125,-0.0478515625,-0.017578125
72,-0.011,IMU0,7.25609756097561,5.0,-197.07317073170734,0.1337890625,-0.0322265625,-0.037109375
73,-0.011,IMU1,7.682926829268293,5.609756097560976,-197.62195121951223,0.1064453125,-0.0224609375,-0.03125
74,-0.001,IMU0,7.560975609756098,5.487804878048781,-196.70731707317074,0.1328125,-0.0546875,-0.0478515625
75,-0.001,IMU1,10.426829268292684,6.585365853658537,-197.19512195121953,0.111328125,-0.0556640625,-0.05078125
76,0.009,IMU0,7.8048780487804885,7.987804878048781,-201.46341463414635,0.0849609375,-0.05078125,-0.037109375
77,0.009,IMU1,9.329268292682928,7.926829268292684,-201.82926829268294,0.0634765625,-0.046875,-0.037109375
78,0.019,IMU0,3.963414634146342,5.853658536585367,-206.21951219512198,0.048828125,-0.03515625,-0.0126953125
79,0.019,IMU1,5.2439024390243905,6.219512195121951,-206.70731707317074,0.02734375,-0.0390625,-0.0146484375
80,0.029,IMU0,5.853658536585367,8.170731707317074,-208.41463414634148,0.0283203125,0.0400390625,-0.0068359375
81,0.029,IMU1,7.682926829268293,8.719512195121952,-209.26829268292684,0.0068359375,0.0322265625,-0.01171875
82,0.039,IMU0,8.048780487804878,8.414634146341465,-209.75609756097563,0.0380859375,0.0576171875,-0.0009765625
83,0.039,IMU1,10.609756097560977,10.060975609756099,-211.52439024390245,0.0126953125,0.0458984375,-0.009765625
84,0.049,IMU0,9.817073170731708,9.207317073170733,-209.20731707317074,0.056640625,0.0478515625,0.001953125
85,0.049,IMU1,12.865853658536587,10.792682926829269,-211.58536585365854,0.0341796875,0.0439453125,-0.0078125
86,0.059,IMU0,8.658536585365855,7.865853658536586,-211.64634146341464,0.0595703125,0.0302734375,0.0078125
87,0.059,IMU1,11.76829268292683,9.207317073170733,-211.95121951219514,0.0341796875,0.0205078125,0.0009765625
88,0.069,IMU0,8.536585365853659,10.30487804878049,-217.01219512195124,0.056640625,0.04296875,0.001953125
89,0.069,IMU1,11.341463414634147,11.036585365853659,-217.50000000000003,0.0380859375,0.0419921875,-0.0029296875
90,0.079,IMU0,10.975609756097562,9.26829268292683,-218.0487804878049,0.052734375,0.068359375,-0.005859375
91,0.079,IMU1,12.317073170731708,9.51219512195122,-221.21951219512198,0.037109375,0.078125,-0.01171875
92,0.089,IMU0,10.487804878048781,9.329268292682928,-216.58536585365854,0.033203125,0.0400390625,-0.01171875
93,0.089,IMU1,12.317073170731708,10.365853658536587,-217.25609756097563,0.0126953125,0.04296875,-0.017578125
94,0.099,IMU0,8.658536585365855,8.536585365853659,-219.63414634146343,0.025390625,0.02734375,-0.0126953125
95,0.099,IMU1,12.439024390243903,10.0,-221.70731707317074,-0.0009765625,0.025390625,-0.021484375
96,0.109,IMU0,10.0,8.109756097560977,-222.50000000000003,0.017578125,0.0078125,-0.009765625
97,0.109,IMU1,13.658536585365855,9.878048780487806,-221.70731707317074,0.0048828125,0.0146484375,-0.0185546875
98,0.119,IMU0,8.292682926829269,8.78048780487805,-221.82926829268294,-0.009765625,0.013671875,-0.0009765625
99,0.119,IMU1,10.426829268292684,10.426829268292684,-221.58536585365854,-0.0205078125,0.0224609375,-0.0107421875
100,0.129,IMU0,7.317073170731708,8.353658536585366,-223.109756097561,0.001953125,0.0322265625,0.0185546875
101,0.129,IMU1,10.792682926829269,9.02439024390244,-225.4878048780488,-0.0224609375,0.0361328125,0.0107421875
102,0.139,IMU0,8.475609756097562,7.682926829268293,-224.87804878048783,-0.0029296875,0.0634765625,0.0390625
103,0.139,IMU1,11.951219512195124,8.902439024390244,-224.93902439024393,-0.0234375,0.07421875,0.033203125
104,0.149,IMU0,9.51219512195122,8.353658536585366,-220.609756097561,0.0126953125,0.09375,0.056640625
105,0.149,IMU1,11.52439024390244,9.573170731707318,-222.13414634146343,-0.01171875,0.0947265625,0.05078125
106,0.159,IMU0,7.926829268292684,8.841463414634147,-223.2317073170732,-0.0166015625,0.0703125,0.0654296875
107,0.159,IMU1,10.548780487804878,9.329268292682928,-225.4878048780488,-0.0458984375,0.0615234375,0.0576171875
108,0.169,IMU0,9.51219512195122,8.231707317073171,-223.59756097560978,-0.0107421875,0.0634765625,0.0703125
109,0.169,IMU1,11.52439024390244,8.536585365853659,-223.71951219512198,-0.0302734375,0.0634765625,0.06640625
110,0.179,IMU0,8.597560975609756,8.414634146341465,-218.53658536585368,-0.00390625,0.0791015625,0.0751953125
111,0.179,IMU1,9.756097560975611,9.329268292682928,-221.21951219512198,-0.029296875,0.0771484375,0.068359375
112,0.189,IMU0,9.451219512195122,8.353658536585366,-223.1707317073171,0.0087890625,0.056640625,0.0732421875
113,0.189,IMU1,11.76829268292683,9.085365853658537,-226.95121951219514,-0.0283203125,0.044921875,0.068359375
114,0.199,IMU0,8.963414634146343,8.109756097560977,-221.21951219512198,-0.00390625,0.048828125,0.0732421875
115,0.199,IMU1,9.878048780487806,9.146341463414634,-222.07317073170734,-0.033203125,0.046875,0.0712890625
116,0.209,IMU0,7.926829268292684,8.475609756097562,-220.7317073170732,0.0107421875,0.05078125,0.0791015625
117,0.209,IMU1,9.634146341463415,8.963414634146343,-224.87804878048783,-0.029296875,0.041015625,0.0771484375
118,0.219,IMU0,8.170731707317074,7.134146341463415,-222.68292682926833,-0.0048828125,0.0419921875,0.0771484375
119,0.219,IMU1,10.487804878048781,7.926829268292684,-223.71951219512198,-0.03125,0.046875,0.07421875
120,0.229,IMU0,7.743902439024391,6.646341463414635,-218.41463414634148,0.01171875,0.048828125,0.076171875
121,0.229,IMU1,9.02439024390244,7.743902439024391,-219.75609756097563,-0.0087890625,0.04296875,0.0703125
122,0.239,IMU0,5.975609756097562,7.439024390243903,-219.63414634146343,-0.0107421875,0.0458984375,0.0703125
123,0.239,IMU1,8.963414634146343,8.231707317073171,-221.09756097560978,-0.04296875,0.0439453125,0.0634765625
124,0.249,IMU0,8.414634146341465,7.439024390243903,-214.81707317073173,-0.0126953125,0.060546875,0.0673828125
125,0.249,IMU1,9.817073170731708,8.292682926829269,-214.14634146341464,-0.0458984375,0.0673828125,0.064453125
126,0.259,IMU0,5.7926829268292686,8.353658536585366,-213.71951219512198,-0.0263671875,0.064453125,0.0732421875
127,0.259,IMU1,7.987804878048781,9.146341463414634,-217.01219512195124,-0.068359375,0.0595703125,0.0673828125
128,0.269,IMU0,7.317073170731708,8.109756097560977,-217.13414634146343,-0.0068359375,0.0615234375,0.068359375
129,0.269,IMU1,9.634146341463415,8.414634146341465,-218.1707317073171,-0.03515625,0.056640625,0.0634765625
130,0.279,IMU0,6.097560975609756,7.865853658536586,-212.68292682926833,0.0107421875,0.0673828125,0.060546875
131,0.279,IMU1,7.25609756097561,8.231707317073171,-215.3658536585366,-0.015625,0.060546875,0.0556640625
132,0.289,IMU0,6.951219512195123,6.097560975609756,-217.62195121951223,0.033203125,0.0556640625,0.0556640625
133,0.289,IMU1,9.573170731707318,6.646341463414635,-220.91463414634148,0.0,0.0439453125,0.0498046875
134,0.299,IMU0,6.2804878048780495,6.341463414634147,-213.59756097560978,0.0517578125,0.0419921875,0.056640625
135,0.299,IMU1,8.048780487804878,7.378048780487806,-213.90243902439028,0.025390625,0.05078125,0.052734375
136,0.309,IMU0,6.036585365853659,6.341463414634147,-214.02439024390245,0.0361328125,0.025390625,0.03515625
137,0.309,IMU1,9.329268292682928,7.25609756097561,-216.03658536585368,0.0048828125,0.0146484375,0.029296875
138,0.319,IMU0,6.890243902439025,6.7682926829268295,-210.3658536585366,0.029296875,0.0302734375,0.03515625
139,0.319,IMU1,8.902439024390244,7.987804878048781,-209.51219512195124,0.0068359375,0.0390625,0.029296875
140,0.329,IMU0,6.341463414634147,6.707317073170732,-208.71951219512198,0.017578125,0.041015625,0.025390625
141,0.329,IMU1,9.146341463414634,7.682926829268293,-211.58536585365854,-0.0048828125,0.037109375,0.017578125
142,0.339,IMU0,7.01219512195122,6.402439024390245,-209.57317073170734,0.013671875,0.013671875,0.025390625
143,0.339,IMU1,9.207317073170733,7.439024390243903,-210.00000000000003,0.00390625,0.0205078125,0.01953125
144,0.349,IMU0,2.987804878048781,7.195121951219513,-207.37804878048783,-0.0078125,0.0283203125,0.02734375
145,0.349,IMU1,5.060975609756098,8.536585365853659,-210.3658536585366,-0.0302734375,0.02734375,0.021484375
146,0.359,IMU0,4.878048780487806,7.195121951219513,-211.76829268292684,-0.00390625,0.025390625,0.0234375
147,0.359,IMU1,7.743902439024391,8.475609756097562,-212.01219512195124,-0.0234375,0.0341796875,0.0166015625
148,0.369,IMU0,5.365853658536586,8.048780487804878,-202.37804878048783,0.0009765625,0.072265625,0.02734375
149,0.369,IMU1,7.134146341463415,9.329268292682928,-203.109756097561,-0.0146484375,0.0830078125,0.0205078125
150,0.379,IMU0,7.195121951219513,6.829268292682928,-205.1829268292683,0.02734375,0.0546875,0.0166015625
151,0.379,IMU1,9.939024390243903,7.560975609756098,-207.19512195121953,0.0048828125,0.0556640625,0.0087890625
152,0.389,IMU0,6.2804878048780495,6.341463414634147,-199.63414634146343,0.0380859375,0.033203125,0.0185546875
153,0.389,IMU1,7.682926829268293,7.317073170731708,-201.21951219512198,0.01171875,0.033203125,0.01171875
154,0.399,IMU0,5.121951219512195,5.975609756097562,-203.71951219512198,0.029296875,0.01953125,0.009765625
155,0.399,IMU1,7.682926829268293,6.7682926829268295,-207.07317073170734,-0.0009765625,0.013671875,0.0048828125
156,0.409,IMU0,5.3048780487804885,5.426829268292684,-199.93902439024393,0.017578125,0.0419921875,0.0166015625
157,0.409,IMU1,6.951219512195123,6.52439024390244,-200.4878048780488,-0.009765625,0.0458984375,0.01171875
158,0.419,IMU0,4.75609756097561,5.853658536585367,-201.15853658536588,-0.0185546875,0.0517578125,0.0146484375
159,0.419,IMU1,7.743902439024391,6.585365853658537,-203.59756097560978,-0.0458984375,0.048828125,0.0078125
160,0.429,IMU0,8.170731707317074,5.975609756097562,-195.91463414634148,-0.015625,0.029296875,0.005859375
161,0.429,IMU1,10.060975609756099,6.951219512195123,-195.7926829268293,-0.03125,0.0361328125,0.001953125
162,0.439,IMU0,4.329268292682928,6.402439024390245,-197.13414634146343,0.021484375,0.0341796875,0.0087890625
163,0.439,IMU1,6.951219512195123,7.560975609756098,-200.3658536585366,0.0029296875,0.0224609375,0.0029296875
164,0.449,IMU0,8.231707317073171,6.951219512195123,-197.50000000000003,0.03515625,0.00390625,0.0107421875
165,0.449,IMU1,10.365853658536587,8.292682926829269,-197.9268292682927,0.0234375,0.00390625,0.005859375
166,0.459,IMU0,5.3048780487804885,5.609756097560976,-193.35365853658539,0.0322265625,0.001953125,0.0283203125
167,0.459,IMU1,7.743902439024391,6.707317073170732,-195.1219512195122,0.015625,-0.0029296875,0.0224609375
168,0.469,IMU0,6.402439024390245,5.426829268292684,-191.09756097560978,0.0302734375,0.0146484375,0.0341796875
169,0.469,IMU1,8.353658536585366,6.463414634146342,-190.97560975609758,0.0078125,0.021484375,0.0302734375
170,0.479,IMU0,3.9024390243902443,7.134146341463415,-188.0487804878049,0.0185546875,0.0712890625,0.0546875
171,0.479,IMU1,6.2804878048780495,8.170731707317074,-190.85365853658539,-0.0107421875,0.064453125,0.048828125
172,0.489,IMU0,7.560975609756098,6.951219512195123,-189.75609756097563,0.03125,0.021484375,0.0615234375
173,0.489,IMU1,9.634146341463415,7.987804878048781,-190.4878048780488,0.0068359375,0.025390625,0.0576171875
174,0.499,IMU0,3.7195121951219514,6.52439024390244,-185.1219512195122,0.02734375,-0.00390625,0.0712890625
175,0.499,IMU1,5.853658536585367,7.378048780487806,-187.6829268292683,-0.0048828125,-0.005859375,0.0654296875
176,0.509,IMU0,5.060975609756098,6.219512195121951,-184.39024390243904,0.0390625,0.0029296875,0.0771484375
177,0.509,IMU1,7.134146341463415,7.073170731707318,-185.1829268292683,0.0009765625,0.0029296875,0.0732421875
178,0.519,IMU0,1.9512195121951221,5.975609756097562,-182.56097560975613,0.03515625,0.0498046875,0.0830078125
179,0.519,IMU1,4.329268292682928,6.829268292682928,-185.7317073170732,0.0068359375,0.0478515625,0.078125
180,0.529,IMU0,5.2439024390243905,6.463414634146342,-185.1829268292683,0.029296875,0.0595703125,0.080078125
181,0.529,IMU1,7.195121951219513,7.439024390243903,-186.34146341463415,0.0107421875,0.0595703125,0.0771484375
182,0.539,IMU0,3.2926829268292686,6.2804878048780495,-181.52439024390245,0.046875,0.0771484375,0.080078125
183,0.539,IMU1,5.670731707317073,7.195121951219513,-183.35365853658539,0.021484375,0.0830078125,0.07421875
184,0.549,IMU0,6.890243902439025,6.097560975609756,-178.47560975609758,0.041015625,0.0595703125,0.0732421875
185,0.549,IMU1,8.841463414634147,7.134146341463415,-178.59756097560978,0.021484375,0.0615234375,0.0673828125
186,0.559,IMU0,3.658536585365854,7.25609756097561,-179.26829268292684,0.00390625,0.052734375,0.072265625
187,0.559,IMU1,6.036585365853659,8.231707317073171,-181.89024390243904,-0.015625,0.041015625,0.064453125
188,0.569,IMU0,3.4756097560975614,8.414634146341465,-178.41463414634148,0.017578125,0.041015625,0.08984375
189,0.569,IMU1,5.2439024390243905,9.390243902439025,-178.96341463414635,-0.001953125,0.04296875,0.0849609375
190,0.579,IMU0,1.524390243902439,9.02439024390244,-175.7317073170732,0.01171875,0.0712890625,0.0966796875
191,0.579,IMU1,4.085365853658537,9.878048780487806,-178.109756097561,-0.01171875,0.078125,0.0908203125
192,0.589,IMU0,3.048780487804878,6.951219512195123,-170.7926829268293,0.0302734375,0.0908203125,0.1015625
193,0.589,IMU1,4.75609756097561,7.8048780487804885,-171.58536585365854,0.001953125,0.095703125,0.0966796875
194,0.599,IMU0,3.414634146341464,7.25609756097561,-176.82926829268294,0.017578125,0.029296875,0.109375
195,0.599,IMU1,5.853658536585367,7.987804878048781,-179.45121951219514,-0.017578125,0.0302734375,0.1064453125
196,0.609,IMU0,4.329268292682928,6.463414634146342,-169.14634146341464,0.017578125,0.005859375,0.1123046875
197,0.609,IMU1,6.219512195121951,7.317073170731708,-170.00000000000003,-0.0087890625,0.005859375,0.109375
198,0.619,IMU0,4.75609756097561,6.402439024390245,-170.97560975609758,0.01953125,-0.0185546875,0.1201171875
199,0.619,IMU1,7.25609756097561,7.25609756097561,-173.0487804878049,-0.0009765625,-0.021484375,0.1142578125
200,0.629,IMU0,3.1097560975609757,6.951219512195123,-166.58536585365854,0.017578125,0.0244140625,0.12109375
201,0.629,IMU1,5.121951219512195,7.926829268292684,-167.5609756097561,-0.009765625,0.021484375,0.1171875
202,0.639,IMU0,4.939024390243903,6.707317073170732,-170.85365853658539,0.0185546875,0.029296875,0.123046875
203,0.639,IMU1,7.500000000000001,7.621951219512196,-172.6219512195122,-0.001953125,0.021484375,0.1171875
204,0.649,IMU0,3.353658536585366,8.78048780487805,-162.6829268292683,0.0380859375,0.0556640625,0.126953125
205,0.649,IMU1,5.3048780487804885,9.756097560975611,-163.71951219512198,0.0068359375,0.0625,0.123046875
206,0.659,IMU0,4.2682926829268295,7.560975609756098,-167.19512195121953,0.03515625,0.046875,0.1220703125
207,0.659,IMU1,6.646341463414635,8.475609756097562,-169.45121951219514,0.00390625,0.0498046875,0.1171875
208,0.669,IMU0,1.829268292682927,7.317073170731708,-162.01219512195124,0.04296875,0.05859375,0.1171875
209,0.669,IMU1,3.658536585365854,8.231707317073171,-163.47560975609758,0.0166015625,0.060546875,0.1123046875
210,0.679,IMU0,5.060975609756098,5.975609756097562,-166.34146341463415,0.033203125,0.0458984375,0.1171875
211,0.679,IMU1,7.25609756097561,6.7682926829268295,-168.47560975609758,-0.0048828125,0.0419921875,0.11328125
212,0.689,IMU0,2.987804878048781,7.682926829268293,-158.1707317073171,0.029296875,0.044921875,0.14453125
213,0.689,IMU1,5.182926829268293,8.536585365853659,-159.69512195121953,-0.001953125,0.046875,0.1416015625
214,0.699,IMU0,4.817073170731708,7.073170731707318,-161.03658536585368,0.0107421875,0.048828125,0.1533203125
215,0.699,IMU1,7.073170731707318,7.926829268292684,-162.6219512195122,-0.0185546875,0.0458984375,0.1494140625
216,0.709,IMU0,2.439024390243903,7.682926829268293,-159.39024390243904,0.00390625,0.0322265625,0.1611328125
217,0.709,IMU1,4.695121951219512,8.475609756097562,-161.03658536585368,-0.0205078125,0.0341796875,0.1552734375
218,0.719,IMU0,2.987804878048781,7.25609756097561,-155.91463414634148,0.0029296875,0.0380859375,0.1611328125
219,0.719,IMU1,5.121951219512195,8.109756097560977,-157.5609756097561,-0.017578125,0.0361328125,0.15625
220,0.729,IMU0,0.06097560975609757,7.195121951219513,-157.01219512195124,0.0,0.080078125,0.1689453125
221,0.729,IMU1,2.1341463414634148,7.926829268292684,-158.71951219512198,-0.0185546875,0.05078125,0.1591796875
222,0.739,IMU0,4.329268292682928,6.341463414634147,-156.64634146341464,0.0205078125,0.0556640625,0.166015625
223,0.739,IMU1,6.219512195121951,7.134146341463415,-158.71951219512198,0.0126953125,0.0625,0.158203125
224,0.749,IMU0,1.707317073170732,5.731707317073171,-155.2439024390244,0.0078125,0.056640625,0.16015625
225,0.749,IMU1,3.8414634146341466,6.463414634146342,-157.5,-0.0009765625,0.0595703125,0.15234375
226,0.759,IMU0,1.2804878048780488,5.3048780487804885,-151.40243902439025,0.0322265625,0.0771484375,0.16015625
227,0.759,IMU1,1.2804878048780488,7.378048780487806,-156.82926829268294,0.005859375,0.0693359375,0.15625
228,0.769,IMU0,0.24390243902439027,5.914634146341464,-156.70731707317074,0.005859375,0.0830078125,0.1572265625
229,0.769,IMU1,2.9268292682926833,6.158536585365854,-154.51219512195124,-0.01953125,0.0888671875,0.1533203125
230,0.779,IMU0,1.707317073170732,6.52439024390244,-148.96341463414635,0.0087890625,0.0830078125,0.15234375
231,0.779,IMU1,4.085365853658537,6.707317073170732,-153.78048780487805,-0.021484375,0.0703125,0.1455078125
232,0.789,IMU0,2.6219512195121952,6.2804878048780495,-151.76829268292684,-0.0068359375,0.0224609375,0.1484375
233,0.789,IMU1,5.060975609756098,6.402439024390245,-150.3658536585366,-0.02734375,0.0341796875,0.14453125
234,0.799,IMU0,1.7682926829268295,6.036585365853659,-146.70731707317074,-0.0048828125,-0.00390625,0.1552734375
235,0.799,IMU1,4.939024390243903,7.621951219512196,-152.5,-0.037109375,-0.021484375,0.1484375
236,0.809,IMU0,2.8658536585365857,6.707317073170732,-150.97560975609758,0.0009765625,-0.0078125,0.1552734375
237,0.809,IMU1,3.7195121951219514,8.536585365853659,-144.26829268292684,-0.0166015625,0.015625,0.15625
238,0.819,IMU0,1.3414634146341464,7.987804878048781,-142.37804878048783,0.0126953125,0.015625,0.1630859375
239,0.819,IMU1,4.146341463414634,8.231707317073171,-151.09756097560978,-0.02734375,-0.009765625,0.162109375
240,0.829,IMU0,3.1097560975609757,6.463414634146342,-146.46341463414635,0.0087890625,0.005859375,0.16796875
241,0.829,IMU1,3.414634146341464,6.646341463414635,-144.51219512195124,-0.0146484375,0.0146484375,0.1708984375
242,0.839,IMU0,-2.0121951219512195,6.585365853658537,-144.20731707317074,-0.00390625,0.0244140625,0.17578125
243,0.839,IMU1,3.1097560975609757,6.219512195121951,-148.96341463414635,-0.0361328125,0.0205078125,0.16796875
244,0.849,IMU0,2.0121951219512195,5.2439024390243905,-143.0487804878049,0.005859375,0.0576171875,0.166015625
245,0.849,IMU1,2.439024390243903,6.219512195121951,-140.7317073170732,-0.01171875,0.078125,0.1611328125
246,0.859,IMU0,2.3170731707317076,6.646341463414635,-140.0609756097561,0.00390625,0.046875,0.1435546875
247,0.859,IMU1,6.52439024390244,7.8048780487804885,-145.4268292682927,-0.01953125,0.0263671875,0.1376953125
248,0.869,IMU0,3.231707317073171,5.975609756097562,-139.45121951219514,0.03125,0.0009765625,0.13671875
249,0.869,IMU1,3.231707317073171,7.25609756097561,-135.2439024390244,0.0146484375,0.01171875,0.1328125
250,0.879,IMU0,0.7317073170731708,5.853658536585367,-135.0,0.0146484375,-0.0107421875,0.1240234375
251,0.879,IMU1,3.536585365853659,5.487804878048781,-141.89024390243904,-0.0068359375,-0.02734375,0.1171875
252,0.889,IMU0,-0.12195121951219513,5.487804878048781,-135.609756097561,0.01171875,0.01953125,0.1201171875
253,0.889,IMU1,1.3414634146341464,6.219512195121951,-137.7439024390244,-0.005859375,0.021484375,0.1142578125
254,0.899,IMU0,2.1341463414634148,5.060975609756098,-136.89024390243904,0.01953125,0.0126953125,0.1064453125
255,0.899,IMU1,6.036585365853659,5.365853658536586,-135.0,0.0048828125,0.0078125,0.099609375
256,0.909,IMU0,1.829268292682927,4.51219512195122,-128.35365853658539,0.0087890625,0.0126953125,0.0947265625
257,0.909,IMU1,1.2195121951219514,6.585365853658537,-131.95121951219514,-0.009765625,0.0146484375,0.0888671875
258,0.919,IMU0,0.6707317073170732,4.939024390243903,-134.14634146341464,0.0068359375,0.0205078125,0.08203125
259,0.919,IMU1,3.536585365853659,5.7926829268292686,-136.15853658536585,-0.0166015625,0.0126953125,0.076171875
260,0.929,IMU0,0.426829268292683,5.365853658536586,-128.84146341463415,0.0224609375,0.041015625,0.0849609375
261,0.929,IMU1,1.0365853658536586,6.2804878048780495,-130.7926829268293,0.0,0.0439453125,0.0791015625
262,0.939,IMU0,0.7317073170731708,5.426829268292684,-131.89024390243904,0.03515625,0.0537109375,0.0791015625
263,0.939,IMU1,3.2926829268292686,5.670731707317073,-132.8658536585366,0.005859375,0.0517578125,0.0732421875
264,0.949,IMU0,0.7926829268292683,4.085365853658537,-127.6829268292683,0.0400390625,0.017578125,0.0732421875
265,0.949,IMU1,3.1707317073170733,5.487804878048781,-132.31707317073173,0.0126953125,0.021484375,0.0703125
266,0.959,IMU0,1.4634146341463417,4.878048780487806,-123.53658536585367,0.02734375,0.02734375,0.060546875
267,0.959,IMU1,3.658536585365854,5.548780487804878,-124.87804878048782,0.001953125,0.0244140625,0.056640625
268,0.969,IMU0,0.30487804878048785,5.3048780487804885,-130.3658536585366,0.0185546875,0.0068359375,0.046875
269,0.969,IMU1,2.0121951219512195,6.219512195121951,-131.70731707317074,-0.00390625,0.0068359375,0.0419921875
270,0.979,IMU0,0.853658536585366,5.060975609756098,-123.71951219512196,0.0458984375,0.0654296875,0.048828125
271,0.979,IMU1,2.439024390243903,5.731707317073171,-126.52439024390245,0.021484375,0.0615234375,0.0439453125
272,0.989,IMU0,2.5,4.75609756097561,-125.42682926829269,0.0361328125,0.044921875,0.0390625
273,0.989,IMU1,4.2682926829268295,5.670731707317073,-127.6829268292683,0.0263671875,0.0419921875,0.033203125
274,0.999,IMU0,-0.30487804878048785,4.51219512195122,-120.73170731707319,0.037109375,0.04296875,0.0419921875
275,0.999,IMU1,2.1341463414634148,5.182926829268293,-121.21951219512196,0.03125,0.0390625,0.0361328125
276,1.009,IMU0,0.9146341463414634,4.085365853658537,-127.6829268292683,0.013671875,0.0205078125,0.0341796875
277,1.009,IMU1,2.439024390243903,5.182926829268293,-131.09756097560978,0.00390625,0.0029296875,0.02734375
278,1.019,IMU0,-0.3658536585365854,4.2682926829268295,-119.87804878048782,0.0146484375,0.0615234375,0.029296875
279,1.019,IMU1,1.6463414634146343,5.060975609756098,-120.48780487804879,0.00390625,0.05078125,0.0234375
280,1.029,IMU0,1.5853658536585367,3.231707317073171,-127.07317073170732,-0.001953125,0.0400390625,0.0224609375
281,1.029,IMU1,3.353658536585366,3.8414634146341466,-129.26829268292684,0.001953125,0.0283203125,0.013671875
282,1.039,IMU0,-1.2195121951219514,5.060975609756098,-122.98780487804879,0.01953125,0.0341796875,0.0205078125
283,1.039,IMU1,0.6707317073170732,5.609756097560976,-124.14634146341464,0.0009765625,0.0322265625,0.015625
284,1.049,IMU0,0.30487804878048785,4.207317073170732,-121.09756097560977,0.017578125,0.0458984375,0.0107421875
285,1.049,IMU1,2.9268292682926833,4.878048780487806,-123.78048780487806,-0.0029296875,0.0380859375,0.0048828125
286,1.059,IMU0,-1.524390243902439,4.329268292682928,-122.50000000000001,0.03515625,0.005859375,0.0068359375
287,1.059,IMU1,-0.12195121951219513,5.121951219512195,-121.89024390243904,0.0185546875,0.017578125,0.0029296875
288,1.069,IMU0,1.1585365853658538,2.8658536585365857,-119.08536585365854,0.029296875,0.0087890625,0.0126953125
289,1.069,IMU1,3.2926829268292686,3.658536585365854,-123.84146341463416,0.009765625,0.0009765625,0.005859375
290,1.079,IMU0,0.06097560975609757,3.414634146341464,-113.59756097560977,0.01953125,0.02734375,0.0087890625
291,1.079,IMU1,1.5853658536585367,3.9024390243902443,-113.78048780487806,-0.0009765625,0.0263671875,0.0068359375
292,1.089,IMU0,1.0365853658536586,3.231707317073171,-112.8658536585366,0.017578125,0.0244140625,0.0068359375
293,1.089,IMU1,3.536585365853659,3.780487804878049,-115.73170731707319,-0.0185546875,0.0234375,0.0029296875
294,1.099,IMU0,-0.7926829268292683,4.2682926829268295,-110.2439024390244,0.017578125,0.046875,0.0078125
295,1.099,IMU1,0.853658536585366,5.060975609756098,-110.60975609756099,-0.01953125,0.048828125,0.0078125
296,1.109,IMU0,3.1707317073170733,2.987804878048781,-106.76829268292684,0.0029296875,0.048828125,0.0048828125
297,1.109,IMU1,4.817073170731708,3.780487804878049,-110.48780487804879,-0.037109375,0.037109375,0.0029296875
298,1.119,IMU0,0.426829268292683,2.5609756097560976,-102.07317073170732,0.0126953125,0.0419921875,0.0087890625
299,1.119,IMU1,2.378048780487805,3.231707317073171,-102.8658536585366,-0.02734375,0.041015625,0.0068359375
300,1.129,IMU0,1.524390243902439,2.987804878048781,-104.81707317073172,-0.0205078125,0.01171875,0.0029296875
301,1.129,IMU1,2.987804878048781,3.7195121951219514,-106.70731707317074,-0.04296875,0.0087890625,-0.001953125
302,1.139,IMU0,1.5853658536585367,3.353658536585366,-98.41463414634147,-0.00390625,0.0185546875,0.0107421875
303,1.139,IMU1,3.414634146341464,3.5975609756097566,-101.70731707317074,-0.0263671875,0.0107421875,0.0048828125
304,1.149,IMU0,1.0365853658536586,3.963414634146342,-97.50000000000001,-0.0029296875,0.0009765625,0.0126953125
305,1.149,IMU1,2.378048780487805,4.085365853658537,-98.59756097560977,-0.0126953125,0.005859375,0.0078125
306,1.159,IMU0,2.9268292682926833,3.536585365853659,-96.09756097560977,0.01171875,-0.0087890625,0.0048828125
307,1.159,IMU1,4.878048780487806,3.780487804878049,-98.84146341463415,-0.005859375,-0.009765625,0.0
308,1.169,IMU0,0.0,3.5975609756097566,-93.47560975609757,0.013671875,0.001953125,0.0087890625
309,1.169,IMU1,2.6219512195121952,4.146341463414634,-94.02439024390245,-0.00390625,0.0029296875,0.0029296875
310,1.179,IMU0,-0.1829268292682927,3.780487804878049,-98.53658536585367,0.0078125,0.0166015625,0.0078125
311,1.179,IMU1,1.402439024390244,4.451219512195122,-99.75609756097562,-0.00390625,0.01953125,-0.0009765625
312,1.189,IMU0,1.6463414634146343,3.353658536585366,-93.71951219512196,0.04296875,0.0400390625,0.009765625
313,1.189,IMU1,3.536585365853659,4.390243902439025,-97.5609756097561,0.02734375,0.03515625,0.0009765625
314,1.199,IMU0,-0.853658536585366,2.7439024390243905,-94.45121951219512,0.033203125,0.033203125,0.00390625
315,1.199,IMU1,1.0975609756097562,3.658536585365854,-94.93902439024392,0.0263671875,0.0419921875,-0.0029296875
316,1.209,IMU0,2.0121951219512195,2.1341463414634148,-96.76829268292684,0.0234375,0.02734375,0.001953125
317,1.209,IMU1,3.658536585365854,3.353658536585366,-98.78048780487806,0.0087890625,0.0205078125,-0.005859375
318,1.219,IMU0,0.48780487804878053,2.3170731707317076,-94.63414634146342,0.0146484375,0.013671875,0.0087890625
319,1.219,IMU1,2.439024390243903,3.048780487804878,-95.79268292682927,0.0029296875,0.0068359375,0.001953125
320,1.229,IMU0,0.48780487804878053,2.378048780487805,-98.84146341463415,0.01953125,-0.0029296875,0.00390625
321,1.229,IMU1,1.5853658536585367,2.9268292682926833,-101.28048780487806,0.0029296875,-0.0146484375,0.0
322,1.239,IMU0,2.073170731707317,2.682926829268293,-94.02439024390245,0.0234375,0.0146484375,0.0048828125
323,1.239,IMU1,4.2682926829268295,2.804878048780488,-99.14634146341464,0.001953125,-0.001953125,0.0
324,1.249,IMU0,-0.24390243902439027,3.658536585365854,-94.81707317073172,0.0302734375,0.0390625,0.0009765625
325,1.249,IMU1,1.9512195121951221,3.963414634146342,-94.39024390243904,0.0166015625,0.0390625,-0.0029296875
326,1.259,IMU0,1.402439024390244,3.231707317073171,-100.42682926829269,0.0263671875,0.0146484375,0.0
327,1.259,IMU1,3.2926829268292686,3.8414634146341466,-102.31707317073172,0.0029296875,0.013671875,-0.005859375
328,1.269,IMU0,-0.24390243902439027,4.329268292682928,-95.3048780487805,0.0185546875,0.0380859375,0.01171875
329,1.269,IMU1,1.7682926829268295,4.634146341463415,-97.7439024390244,0.0048828125,0.0322265625,0.0048828125
330,1.279,IMU0,0.9756097560975611,5.121951219512195,-97.50000000000001,0.0263671875,0.0263671875,0.0078125
331,1.279,IMU1,2.6219512195121952,6.097560975609756,-98.90243902439025,0.001953125,0.0234375,0.0029296875
332,1.289,IMU0,0.30487804878048785,4.2682926829268295,-95.42682926829269,0.0634765625,0.0283203125,0.0185546875
333,1.289,IMU1,2.987804878048781,5.182926829268293,-97.19512195121952,0.029296875,0.02734375,0.01171875
334,1.299,IMU0,0.7317073170731708,4.451219512195122,-99.63414634146342,0.0625,-0.00390625,0.0234375
335,1.299,IMU1,1.5853658536585367,4.939024390243903,-99.02439024390245,0.0498046875,0.00390625,0.01953125
336,1.309,IMU0,1.8902439024390245,3.414634146341464,-96.89024390243904,0.064453125,-0.0205078125,0.0302734375
337,1.309,IMU1,3.658536585365854,3.5975609756097566,-103.23170731707317,0.046875,-0.037109375,0.025390625
338,1.319,IMU0,0.12195121951219513,3.8414634146341466,-93.90243902439025,0.0595703125,0.0234375,0.0380859375
339,1.319,IMU1,1.9512195121951221,3.963414634146342,-93.96341463414635,0.048828125,0.021484375,0.03515625
340,1.329,IMU0,2.682926829268293,3.5975609756097566,-100.06097560975611,0.0390625,0.0234375,0.0380859375
341,1.329,IMU1,4.390243902439025,4.024390243902439,-101.89024390243904,0.021484375,0.0185546875,0.03125
342,1.339,IMU0,1.1585365853658538,4.146341463414634,-96.46341463414635,0.037109375,0.0458984375,0.0380859375
343,1.339,IMU1,3.1097560975609757,4.2682926829268295,-98.23170731707317,0.0185546875,0.048828125,0.033203125
344,1.349,IMU0,3.4756097560975614,4.329268292682928,-98.35365853658537,0.041015625,0.0263671875,0.0263671875
345,1.349,IMU1,4.939024390243903,5.609756097560976,-100.42682926829269,0.0126953125,0.0263671875,0.0224609375
346,1.359,IMU0,0.6707317073170732,3.780487804878049,-96.15853658536587,0.041015625,0.0322265625,0.0283203125
347,1.359,IMU1,3.353658536585366,4.573170731707317,-96.03658536585367,0.009765625,0.041015625,0.0244140625
348,1.369,IMU0,2.7439024390243905,3.4756097560975614,-101.40243902439025,0.0390625,0.025390625,0.0166015625
349,1.369,IMU1,3.048780487804878,4.146341463414634,-103.04878048780489,0.009765625,0.0380859375,0.013671875
350,1.379,IMU0,2.378048780487805,4.573170731707317,-91.82926829268294,0.0595703125,0.048828125,0.017578125
351,1.379,IMU1,4.75609756097561,4.634146341463415,-97.98780487804879,0.01953125,0.044921875,0.0126953125
352,1.389,IMU0,1.1585365853658538,5.121951219512195,-96.28048780487806,0.05859375,0.0498046875,0.0078125
353,1.389,IMU1,3.231707317073171,5.365853658536586,-94.32926829268294,0.0263671875,0.0703125,0.0048828125
354,1.399,IMU0,1.707317073170732,4.329268292682928,-95.54878048780489,0.0556640625,0.02734375,0.013671875
355,1.399,IMU1,4.085365853658537,5.426829268292684,-99.14634146341464,0.0341796875,0.029296875,0.009765625
356,1.409,IMU0,0.7317073170731708,4.51219512195122,-96.03658536585367,0.0390625,0.0048828125,0.005859375
357,1.409,IMU1,1.5853658536585367,5.548780487804878,-96.52439024390245,0.01171875,0.001953125,-0.0009765625
358,1.419,IMU0,0.12195121951219513,3.048780487804878,-95.2439024390244,0.0302734375,0.021484375,0.015625
359,1.419,IMU1,2.8658536585365857,3.963414634146342,-98.47560975609757,0.005859375,0.0224609375,0.0107421875
360,1.429,IMU0,0.7926829268292683,3.9024390243902443,-98.90243902439025,0.0126953125,0.046875,0.017578125
361,1.429,IMU1,1.402439024390244,4.329268292682928,-98.71951219512196,-0.013671875,0.0390625,0.0107421875
362,1.439,IMU0,1.7682926829268295,4.451219512195122,-92.50000000000001,0.0126953125,0.080078125,0.013671875
363,1.439,IMU1,1.9512195121951221,5.182926829268293,-92.8658536585366,-0.0087890625,0.0830078125,0.0087890625
364,1.449,IMU0,0.6707317073170732,5.182926829268293,-97.43902439024392,0.044921875,0.0576171875,0.0009765625
365,1.449,IMU1,3.8414634146341466,4.817073170731708,-103.71951219512196,0.005859375,0.0390625,-0.0048828125
366,1.459,IMU0,2.25609756097561,4.024390243902439,-96.70731707317074,0.0478515625,0.0322265625,-0.0048828125
367,1.459,IMU1,3.231707317073171,4.695121951219512,-95.48780487804879,0.029296875,0.0390625,-0.0087890625
368,1.469,IMU0,1.1585365853658538,3.353658536585366,-95.60975609756099,0.03125,0.025390625,0.0009765625
369,1.469,IMU1,4.024390243902439,4.2682926829268295,-98.41463414634147,0.0048828125,0.01953125,-0.005859375
370,1.479,IMU0,1.707317073170732,4.634146341463415,-93.90243902439025,0.048828125,0.0,0.0078125
371,1.479,IMU1,1.8902439024390245,5.609756097560976,-95.42682926829269,0.0146484375,0.0048828125,0.00390625
372,1.489,IMU0,-0.426829268292683,5.182926829268293,-97.01219512195122,0.044921875,0.0009765625,0.00390625
373,1.489,IMU1,2.25609756097561,5.365853658536586,-99.57317073170732,0.0166015625,-0.0009765625,-0.001953125
374,1.499,IMU0,-0.24390243902439027,4.939024390243903,-91.76829268292684,0.0498046875,0.0361328125,0.0
375,1.499,IMU1,0.853658536585366,5.121951219512195,-93.96341463414635,0.017578125,0.037109375,-0.00390625
376,1.509,IMU0,-0.24390243902439027,4.451219512195122,-97.25609756097562,0.0322265625,0.021484375,-0.00390625
377,1.509,IMU1,3.1707317073170733,4.75609756097561,-99.63414634146342,0.0146484375,0.0205078125,-0.0068359375
378,1.519,IMU0,0.853658536585366,4.573170731707317,-90.85365853658537,0.0400390625,0.05859375,0.005859375
379,1.519,IMU1,1.5853658536585367,6.097560975609756,-90.54878048780489,0.0205078125,0.068359375,0.0
380,1.529,IMU0,0.853658536585366,5.0,-93.35365853658537,0.048828125,0.048828125,0.00390625
381,1.529,IMU1,3.2926829268292686,5.487804878048781,-96.46341463414635,0.029296875,0.04296875,-0.0009765625
382,1.539,IMU0,0.7926829268292683,5.3048780487804885,-90.67073170731707,0.03515625,0.0390625,0.0078125
383,1.539,IMU1,1.524390243902439,5.853658536585367,-93.17073170731707,0.0205078125,0.0283203125,0.0029296875
384,1.549,IMU0,0.24390243902439027,4.573170731707317,-94.87804878048782,0.0341796875,-0.005859375,0.0107421875
385,1.549,IMU1,2.9268292682926833,4.878048780487806,-95.3658536585366,0.0185546875,0.001953125,0.005859375
386,1.559,IMU0,-0.6707317073170732,3.780487804878049,-86.70731707317074,0.04296875,0.021484375,0.013671875
387,1.559,IMU1,0.24390243902439027,4.878048780487806,-89.32926829268294,0.0283203125,0.0234375,0.0078125
388,1.569,IMU0,-0.426829268292683,4.390243902439025,-91.64634146341464,0.0322265625,0.0009765625,0.0205078125
389,1.569,IMU1,2.25609756097561,5.121951219512195,-92.19512195121952,0.015625,0.0078125,0.0166015625
390,1.579,IMU0,-1.9512195121951221,4.573170731707317,-82.25609756097562,0.037109375,0.037109375,0.025390625
391,1.579,IMU1,-0.7317073170731708,5.2439024390243905,-85.1829268292683,0.01171875,0.0361328125,0.0205078125
392,1.589,IMU0,-0.853658536585366,4.51219512195122,-89.08536585365854,0.0205078125,0.03125,0.021484375
393,1.589,IMU1,1.3414634146341464,4.390243902439025,-90.97560975609757,0.013671875,0.021484375,0.017578125
394,1.599,IMU0,-1.829268292682927,3.1097560975609757,-84.39024390243902,0.01953125,0.0654296875,0.015625
395,1.599,IMU1,-0.426829268292683,4.2682926829268295,-85.91463414634147,0.005859375,0.0595703125,0.009765625
396,1.609,IMU0,0.0,4.51219512195122,-86.52439024390245,0.013671875,0.0576171875,0.0107421875
397,1.609,IMU1,1.2195121951219514,5.548780487804878,-86.34146341463415,0.001953125,0.0517578125,0.0068359375
398,1.619,IMU0,-3.231707317073171,4.51219512195122,-82.37804878048782,0.0244140625,0.068359375,0.0126953125
399,1.619,IMU1,-1.7682926829268295,5.121951219512195,-87.6829268292683,-0.0078125,0.05078125,0.0087890625
400,1.629,IMU0,-0.426829268292683,4.024390243902439,-90.0609756097561,0.0322265625,0.0234375,0.009765625
401,1.629,IMU1,1.8902439024390245,4.390243902439025,-89.57317073170732,0.0048828125,0.03125,0.005859375
402,1.639,IMU0,-2.073170731707317,4.024390243902439,-82.25609756097562,0.03125,0.0224609375,0.013671875
403,1.639,IMU1,-0.48780487804878053,5.0,-86.82926829268294,0.0009765625,0.0166015625,0.0078125
404,1.649,IMU0,0.3658536585365854,4.878048780487806,-88.78048780487805,0.0556640625,-0.0029296875,-0.001953125
405,1.649,IMU1,1.3414634146341464,6.158536585365854,-87.8658536585366,0.02734375,-0.0009765625,-0.00390625
406,1.659,IMU0,-3.1097560975609757,4.939024390243903,-82.98780487804879,0.068359375,-0.001953125,-0.0029296875
407,1.659,IMU1,-1.0975609756097562,5.121951219512195,-86.70731707317074,0.029296875,-0.015625,-0.0068359375
408,1.669,IMU0,-0.9756097560975611,3.048780487804878,-86.82926829268294,0.037109375,0.01171875,-0.001953125
409,1.669,IMU1,-0.1829268292682927,3.4756097560975614,-87.92682926829269,0.009765625,0.0078125,-0.00390625
410,1.679,IMU0,-2.378048780487805,4.024390243902439,-87.07317073170732,0.0380859375,0.009765625,0.0048828125
411,1.679,IMU1,0.6097560975609757,4.878048780487806,-90.48780487804879,0.0068359375,0.0,-0.0009765625
412,1.689,IMU0,0.1829268292682927,4.024390243902439,-82.98780487804879,0.02734375,0.0263671875,0.0068359375
413,1.689,IMU1,0.30487804878048785,4.75609756097561,-81.40243902439025,0.0078125,0.03515625,0.00390625
414,1.699,IMU0,-3.5975609756097566,4.390243902439025,-83.10975609756099,0.0283203125,0.03515625,0.013671875
415,1.699,IMU1,-0.7317073170731708,4.573170731707317,-89.81707317073172,-0.001953125,0.0224609375,0.0078125
416,1.709,IMU0,-2.25609756097561,3.231707317073171,-85.1219512195122,0.017578125,0.041015625,0.013671875
417,1.709,IMU1,-1.2804878048780488,3.658536585365854,-83.10975609756099,-0.0009765625,0.0439453125,0.009765625
418,1.719,IMU0,-0.7317073170731708,2.8658536585365857,-82.31707317073172,0.0166015625,0.0439453125,0.009765625
419,1.719,IMU1,2.1341463414634148,3.4756097560975614,-86.76829268292684,0.0048828125,0.0341796875,0.001953125
420,1.729,IMU0,-0.426829268292683,3.231707317073171,-82.6219512195122,0.0322265625,0.0068359375,0.013671875
421,1.729,IMU1,0.853658536585366,4.207317073170732,-83.53658536585367,0.0185546875,0.009765625,0.009765625
422,1.739,IMU0,0.30487804878048785,3.963414634146342,-84.93902439024392,0.03515625,-0.013671875,0.0048828125
423,1.739,IMU1,2.5609756097560976,4.085365853658537,-87.07317073170732,0.0205078125,-0.017578125,0.0
424,1.749,IMU0,-1.0975609756097562,2.9268292682926833,-82.37804878048782,0.0517578125,-0.0048828125,0.0009765625
425,1.749,IMU1,0.1829268292682927,3.5975609756097566,-85.3658536585366,0.0341796875,0.0,-0.0029296875
426,1.759,IMU0,1.402439024390244,2.804878048780488,-89.02439024390245,0.052734375,-0.0009765625,-0.001953125
427,1.759,IMU1,4.51219512195122,3.658536585365854,-89.93902439024392,0.037109375,0.0048828125,-0.0068359375
428,1.769,IMU0,0.1829268292682927,3.4756097560975614,-81.03658536585367,0.0615234375,0.00390625,-0.0029296875
429,1.769,IMU1,0.853658536585366,4.451219512195122,-82.31707317073172,0.037109375,0.0107421875,-0.0068359375
430,1.779,IMU0,0.5487804878048781,4.024390243902439,-91.03658536585367,0.0361328125,-0.0126953125,-0.009765625
431,1.779,IMU1,3.1707317073170733,4.207317073170732,-93.23170731707317,0.009765625,-0.01171875,-0.01171875
432,1.789,IMU0,0.48780487804878053,4.146341463414634,-84.63414634146342,0.029296875,0.01953125,-0.0107421875
433,1.789,IMU1,2.073170731707317,5.0,-87.13414634146342,0.009765625,0.0234375,-0.017578125
434,1.799,IMU0,2.9268292682926833,3.414634146341464,-87.8658536585366,0.0400390625,0.0166015625,-0.0068359375
435,1.799,IMU1,4.207317073170732,4.2682926829268295,-87.92682926829269,0.017578125,0.0283203125,-0.0107421875
436,1.809,IMU0,-0.5487804878048781,5.0,-86.76829268292684,0.037109375,0.0205078125,-0.0009765625
437,1.809,IMU1,2.0121951219512195,5.548780487804878,-90.0609756097561,0.0,0.0263671875,-0.005859375
438,1.819,IMU0,0.7317073170731708,4.329268292682928,-84.39024390243902,0.0546875,0.064453125,0.009765625
439,1.819,IMU1,1.2804878048780488,4.817073170731708,-85.0609756097561,0.025390625,0.0654296875,0.005859375
440,1.829,IMU0,1.3414634146341464,5.0,-91.46341463414635,0.0126953125,0.033203125,0.0048828125
441,1.829,IMU1,4.085365853658537,5.426829268292684,-94.57317073170732,-0.0185546875,0.0283203125,0.0029296875
442,1.839,IMU0,0.9146341463414634,5.0,-85.1219512195122,0.0283203125,0.03125,0.013671875
443,1.839,IMU1,1.829268292682927,6.036585365853659,-85.60975609756099,0.0029296875,0.03515625,0.0087890625
444,1.849,IMU0,-0.24390243902439027,4.939024390243903,-93.53658536585367,0.001953125,0.0,0.013671875
445,1.849,IMU1,1.829268292682927,5.365853658536586,-96.95121951219512,-0.013671875,-0.0078125,0.009765625
446,1.859,IMU0,-0.9756097560975611,4.939024390243903,-88.41463414634147,0.0263671875,0.05078125,0.01953125
447,1.859,IMU1,0.426829268292683,5.731707317073171,-90.67073170731707,-0.005859375,0.04296875,0.0146484375
448,1.869,IMU0,1.2804878048780488,4.451219512195122,-91.70731707317074,0.05078125,0.0361328125,0.0166015625
449,1.869,IMU1,2.9268292682926833,5.3048780487804885,-92.25609756097562,0.021484375,0.0341796875,0.0146484375
450,1.879,IMU0,-1.707317073170732,5.487804878048781,-88.65853658536587,0.0478515625,0.0634765625,0.021484375
451,1.879,IMU1,0.30487804878048785,6.158536585365854,-92.13414634146342,0.029296875,0.0546875,0.013671875
452,1.889,IMU0,0.6097560975609757,4.2682926829268295,-86.28048780487805,0.0517578125,0.0390625,0.015625
453,1.889,IMU1,1.3414634146341464,4.878048780487806,-86.28048780487805,0.033203125,0.0380859375,0.0107421875
454,1.899,IMU0,-0.6097560975609757,3.963414634146342,-91.52439024390245,0.04296875,0.0048828125,0.0205078125
455,1.899,IMU1,2.0121951219512195,4.451219512195122,-95.00000000000001,0.0224609375,-0.00390625,0.015625
456,1.909,IMU0,0.6707317073170732,5.2439024390243905,-85.48780487804879,0.017578125,0.0263671875,0.021484375
457,1.909,IMU1,1.8902439024390245,6.158536585365854,-85.73170731707317,0.0068359375,0.0302734375,0.017578125
458,1.919,IMU0,0.30487804878048785,5.426829268292684,-90.3658536585366,0.033203125,0.0107421875,0.017578125
459,1.919,IMU1,2.439024390243903,5.670731707317073,-93.53658536585367,0.0,0.013671875,0.013671875
460,1.929,IMU0,-0.9756097560975611,3.9024390243902443,-86.82926829268294,0.04296875,0.048828125,0.0234375
461,1.929,IMU1,0.5487804878048781,4.695121951219512,-88.90243902439025,0.0205078125,0.048828125,0.0185546875
462,1.939,IMU0,0.7926829268292683,3.658536585365854,-88.84146341463415,0.01953125,0.0322265625,0.0146484375
463,1.939,IMU1,2.9268292682926833,4.451219512195122,-89.02439024390245,0.0,0.033203125,0.009765625
464,1.949,IMU0,-3.1707317073170733,5.2439024390243905,-84.20731707317074,0.0205078125,0.068359375,0.017578125
465,1.949,IMU1,-1.5853658536585367,6.158536585365854,-87.8048780487805,0.001953125,0.0546875,0.0107421875
466,1.959,IMU0,0.3658536585365854,4.75609756097561,-88.23170731707317,0.0361328125,0.03515625,0.0146484375
467,1.959,IMU1,1.524390243902439,5.487804878048781,-88.53658536585367,0.017578125,0.02734375,0.0087890625
468,1.969,IMU0,-1.9512195121951221,4.2682926829268295,-84.20731707317074,0.0302734375,0.03515625,0.0126953125
469,1.969,IMU1,0.426829268292683,4.939024390243903,-87.6829268292683,0.0029296875,0.0166015625,0.0068359375
470,1.979,IMU0,-1.1585365853658538,4.75609756097561,-84.39024390243902,0.017578125,0.05078125,0.015625
471,1.979,IMU1,-0.30487804878048785,5.487804878048781,-84.81707317073172,0.0087890625,0.046875,0.009765625
472,1.989,IMU0,-0.7926829268292683,4.817073170731708,-84.51219512195122,0.021484375,0.0263671875,0.005859375
473,1.989,IMU1,1.4634146341463417,5.2439024390243905,-87.6219512195122,0.00390625,0.01953125,0.0
474,1.999,IMU0,-1.7682926829268295,4.390243902439025,-82.8658536585366,0.0458984375,0.0380859375,0.005859375
475,1.999,IMU1,-0.30487804878048785,5.3048780487804885,-84.81707317073172,0.033203125,0.0390625,0.0
476,2.009,IMU0,0.9756097560975611,5.487804878048781,-84.51219512195122,0.0400390625,0.0380859375,-0.0029296875
477,2.009,IMU1,2.987804878048781,6.219512195121951,-85.85365853658537,0.0263671875,0.037109375,-0.0078125
478,2.019,IMU0,-2.073170731707317,5.731707317073171,-78.71951219512196,0.04296875,0.060546875,0.0029296875
479,2.019,IMU1,-0.7317073170731708,6.341463414634147,-81.76829268292684,0.0185546875,0.056640625,-0.001953125
480,2.029,IMU0,1.7682926829268295,4.390243902439025,-87.50000000000001,0.041015625,0.029296875,-0.005859375
481,2.029,IMU1,3.536585365853659,4.939024390243903,-88.53658536585367,0.009765625,0.02734375,-0.0107421875
482,2.039,IMU0,-1.6463414634146343,5.426829268292684,-79.69512195121952,0.0419921875,0.0634765625,-0.0078125
483,2.039,IMU1,0.3658536585365854,6.219512195121951,-81.95121951219512,0.0078125,0.05859375,-0.01171875
484,2.049,IMU0,0.3658536585365854,4.878048780487806,-82.19512195121952,0.041015625,0.0380859375,-0.0029296875
485,2.049,IMU1,1.707317073170732,5.548780487804878,-83.04878048780489,0.0107421875,0.0400390625,-0.005859375
486,2.059,IMU0,0.3658536585365854,5.914634146341464,-82.8658536585366,0.0185546875,-0.0166015625,-0.0048828125
487,2.059,IMU1,2.7439024390243905,6.097560975609756,-85.48780487804879,-0.015625,-0.015625,-0.0087890625
488,2.069,IMU0,-1.524390243902439,4.878048780487806,-79.75609756097562,0.0185546875,0.00390625,0.00390625
489,2.069,IMU1,-0.06097560975609757,5.548780487804878,-81.34146341463415,-0.00390625,0.01171875,0.0
490,2.079,IMU0,0.9756097560975611,5.2439024390243905,-82.6219512195122,0.013671875,-0.001953125,0.0009765625
491,2.079,IMU1,3.1707317073170733,5.731707317073171,-84.51219512195122,-0.0048828125,0.0302734375,0.0009765625
492,2.089,IMU0,-2.1951219512195124,4.51219512195122,-77.37804878048782,0.0400390625,0.0234375,0.0087890625
493,2.089,IMU1,-0.853658536585366,5.060975609756098,-79.51219512195122,-0.005859375,0.00390625,0.0009765625
494,2.099,IMU0,2.8658536585365857,4.939024390243903,-84.45121951219512,0.041015625,0.03125,0.005859375
495,2.099,IMU1,4.634146341463415,5.487804878048781,-86.34146341463415,0.0224609375,0.0380859375,0.001953125
496,2.109,IMU0,-0.06097560975609757,5.7926829268292686,-76.03658536585367,0.017578125,-0.0146484375,0.0029296875
497,2.109,IMU1,3.1097560975609757,5.365853658536586,-86.70731707317074,-0.0009765625,-0.01953125,-0.001953125
498,2.119,IMU0,1.1585365853658538,4.51219512195122,-80.2439024390244,0.02734375,-0.0107421875,0.005859375
499,2.119,IMU1,1.707317073170732,5.0,-79.39024390243902,0.0146484375,-0.0126953125,0.0
500,2.129,IMU0,1.0975609756097562,4.207317073170732,-79.63414634146342,0.0244140625,-0.0107421875,0.01171875
501,2.129,IMU1,2.5609756097560976,5.2439024390243905,-79.51219512195122,0.0048828125,-0.0078125,0.0068359375
502,2.139,IMU0,-0.30487804878048785,4.573170731707317,-76.70731707317074,0.0234375,-0.025390625,0.015625
503,2.139,IMU1,1.5853658536585367,5.975609756097562,-83.10975609756099,0.0048828125,-0.0224609375,0.009765625
504,2.149,IMU0,0.853658536585366,5.7926829268292686,-80.97560975609757,0.0205078125,-0.01171875,0.015625
505,2.149,IMU1,0.48780487804878053,5.3048780487804885,-77.37804878048782,0.0048828125,-0.0048828125,0.0107421875
506,2.159,IMU0,-0.12195121951219513,4.75609756097561,-83.17073170731707,0.01953125,-0.00390625,0.0107421875
507,2.159,IMU1,1.9512195121951221,5.3048780487804885,-85.73170731707317,0.0107421875,-0.0029296875,0.0048828125
508,2.169,IMU0,-1.0975609756097562,4.695121951219512,-73.84146341463415,0.0498046875,0.029296875,0.013671875
509,2.169,IMU1,0.1829268292682927,5.2439024390243905,-75.0,0.029296875,0.033203125,0.0087890625
510,2.179,IMU0,-0.24390243902439027,4.878048780487806,-83.04878048780489,0.0361328125,0.0107421875,0.0166015625
511,2.179,IMU1,1.5853658536585367,5.426829268292684,-85.48780487804879,0.01171875,0.0068359375,0.0126953125
512,2.189,IMU0,0.3658536585365854,4.878048780487806,-75.60975609756098,0.0361328125,0.0380859375,0.021484375
513,2.189,IMU1,1.829268292682927,5.426829268292684,-77.37804878048782,0.0166015625,0.0302734375,0.0166015625
514,2.199,IMU0,1.402439024390244,5.3048780487804885,-77.25609756097562,0.03515625,0.01953125,0.013671875
515,2.199,IMU1,2.9268292682926833,5.853658536585367,-78.71951219512196,0.0087890625,0.017578125,0.009765625
516,2.209,IMU0,0.0,4.817073170731708,-79.69512195121952,0.02734375,0.0048828125,0.015625
517,2.209,IMU1,1.707317073170732,5.3048780487804885,-82.25609756097562,0.0048828125,0.0009765625,0.01171875
518,2.219,IMU0,1.4634146341463417,4.024390243902439,-73.90243902439025,0.0390625,-0.0009765625,0.0126953125
519,2.219,IMU1,2.7439024390243905,4.695121951219512,-75.3048780487805,0.0009765625,0.005859375,0.01171875
520,2.229,IMU0,0.3658536585365854,4.817073170731708,-81.09756097560977,0.013671875,-0.015625,0.01171875
521,2.229,IMU1,2.378048780487805,5.365853658536586,-83.47560975609757,-0.017578125,-0.0224609375,0.009765625
522,2.239,IMU0,-0.30487804878048785,5.182926829268293,-73.41463414634147,0.0439453125,0.0068359375,0.015625
523,2.239,IMU1,1.1585365853658538,5.7926829268292686,-74.81707317073172,0.01171875,0.009765625,0.013671875
524,2.249,IMU0,1.524390243902439,4.146341463414634,-80.1219512195122,0.033203125,-0.01953125,0.0126953125
525,2.249,IMU1,3.2926829268292686,4.695121951219512,-82.8048780487805,0.0009765625,-0.029296875,0.0107421875
526,2.259,IMU0,-1.0975609756097562,5.060975609756098,-74.45121951219512,0.0498046875,0.025390625,0.013671875
527,2.259,IMU1,0.3658536585365854,5.609756097560976,-75.85365853658537,0.0263671875,0.017578125,0.0087890625
528,2.269,IMU0,1.1585365853658538,5.182926829268293,-76.76829268292684,0.041015625,0.029296875,0.009765625
529,2.269,IMU1,2.987804878048781,5.7926829268292686,-78.84146341463415,0.0283203125,0.0205078125,0.0029296875
530,2.279,IMU0,-0.30487804878048785,2.8658536585365857,-78.23170731707317,0.0205078125,0.017578125,0.0068359375
531,2.279,IMU1,1.3414634146341464,3.536585365853659,-80.54878048780489,0.0048828125,0.0126953125,0.0009765625
532,2.289,IMU0,2.1341463414634148,2.987804878048781,-71.46341463414635,-0.0224609375,0.03125,0.005859375
533,2.289,IMU1,3.780487804878049,3.7195121951219514,-72.5,-0.0341796875,0.025390625,0.0009765625
534,2.299,IMU0,-0.06097560975609757,4.817073170731708,-79.08536585365854,-0.05078125,-0.033203125,0.0048828125
535,2.299,IMU1,1.707317073170732,5.426829268292684,-81.52439024390245,-0.068359375,-0.02734375,0.0
536,2.309,IMU0,-0.426829268292683,4.878048780487806,-73.23170731707317,-0.0458984375,0.013671875,0.0107421875
537,2.309,IMU1,0.853658536585366,5.609756097560976,-74.87804878048782,-0.064453125,0.015625,0.00390625
538,2.319,IMU0,1.2195121951219514,3.7195121951219514,-78.90243902439025,-0.0205078125,0.0048828125,0.0029296875
539,2.319,IMU1,2.987804878048781,4.329268292682928,-81.21951219512196,-0.044921875,-0.0029296875,-0.0048828125
540,2.329,IMU0,-0.426829268292683,5.060975609756098,-73.84146341463415,-0.0244140625,0.044921875,0.001953125
541,2.329,IMU1,1.2195121951219514,5.609756097560976,-75.54878048780489,-0.0517578125,0.044921875,-0.00390625
542,2.339,IMU0,1.829268292682927,3.1097560975609757,-74.57317073170732,-0.03515625,0.0439453125,0.001953125
543,2.339,IMU1,3.5975609756097566,3.8414634146341466,-76.58536585365854,-0.0703125,0.0400390625,-0.0029296875
544,2.349,IMU0,0.9756097560975611,3.8414634146341466,-77.8658536585366,-0.0546875,0.029296875,-0.0029296875
545,2.349,IMU1,2.378048780487805,4.329268292682928,-80.0609756097561,-0.091796875,0.0322265625,-0.0078125
546,2.359,IMU0,1.8902439024390245,3.353658536585366,-70.0609756097561,-0.0634765625,0.052734375,-0.0087890625
547,2.359,IMU1,3.536585365853659,3.963414634146342,-71.95121951219512,-0.1025390625,0.0546875,-0.0126953125
548,2.369,IMU0,1.402439024390244,3.658536585365854,-79.14634146341464,-0.0830078125,0.0126953125,-0.0087890625
549,2.369,IMU1,2.9268292682926833,4.390243902439025,-80.85365853658537,-0.107421875,0.0078125,-0.015625
550,2.379,IMU0,0.30487804878048785,3.963414634146342,-71.52439024390245,-0.064453125,0.021484375,-0.001953125
551,2.379,IMU1,1.707317073170732,4.451219512195122,-74.02439024390245,-0.0986328125,0.009765625,-0.0087890625
552,2.389,IMU0,1.1585365853658538,3.963414634146342,-77.25609756097562,-0.0712890625,0.00390625,-0.00390625
553,2.389,IMU1,2.804878048780488,4.634146341463415,-79.08536585365854,-0.1103515625,0.00390625,-0.009765625
554,2.399,IMU0,-0.1829268292682927,3.9024390243902443,-72.98780487804879,-0.0576171875,0.0185546875,-0.001953125
555,2.399,IMU1,1.402439024390244,4.573170731707317,-74.75609756097562,-0.0849609375,0.0185546875,-0.0078125
556,2.409,IMU0,2.5609756097560976,0.7926829268292683,-73.71951219512195,-0.083984375,0.0263671875,-0.0078125
557,2.409,IMU1,4.451219512195122,1.402439024390244,-75.85365853658537,-0.1015625,0.021484375,-0.0146484375
558,2.419,IMU0,0.1829268292682927,2.5,-75.91463414634147,-0.1298828125,0.01953125,-0.00390625
559,2.419,IMU1,1.7682926829268295,2.9268292682926833,-77.5,-0.1513671875,0.013671875,-0.0087890625
560,2.429,IMU0,-0.5487804878048781,2.0121951219512195,-69.14634146341464,-0.17578125,0.0546875,0.0107421875
561,2.429,IMU1,1.524390243902439,2.682926829268293,-70.85365853658537,-0.1923828125,0.0517578125,0.0029296875
562,2.439,IMU0,1.4634146341463417,0.30487804878048785,-78.23170731707317,-0.2294921875,0.0361328125,0.017578125
563,2.439,IMU1,2.6219512195121952,1.0365853658536586,-80.1219512195122,-0.25,0.0361328125,0.009765625
564,2.449,IMU0,0.7926829268292683,2.3170731707317076,-69.08536585365854,-0.2509765625,0.0673828125,0.0263671875
565,2.449,IMU1,2.3170731707317076,2.682926829268293,-70.85365853658537,-0.2763671875,0.060546875,0.0185546875
566,2.459,IMU0,2.682926829268293,2.9268292682926833,-75.48780487804879,-0.2724609375,0.0498046875,0.013671875
567,2.459,IMU1,4.451219512195122,3.5975609756097566,-77.8658536585366,-0.3037109375,0.048828125,0.0068359375
568,2.469,IMU0,0.48780487804878053,2.378048780487805,-71.64634146341464,-0.271484375,0.0439453125,0.0126953125
569,2.469,IMU1,1.829268292682927,2.9268292682926833,-73.59756097560977,-0.3037109375,0.0400390625,0.0087890625
570,2.479,IMU0,2.378048780487805,1.4634146341463417,-71.46341463414635,-0.267578125,0.0625,0.0048828125
571,2.479,IMU1,4.573170731707317,1.8902439024390245,-74.14634146341464,-0.287109375,0.0458984375,-0.0009765625
572,2.489,IMU0,0.7317073170731708,2.1951219512195124,-74.63414634146342,-0.275390625,0.05078125,0.001953125
573,2.489,IMU1,2.073170731707317,2.8658536585365857,-75.3658536585366,-0.2939453125,0.0498046875,-0.00390625
574,2.499,IMU0,0.6097560975609757,0.5487804878048781,-68.47560975609757,-0.2744140625,0.0595703125,0.0009765625
575,2.499,IMU1,2.682926829268293,1.2195121951219514,-70.73170731707317,-0.2890625,0.0595703125,-0.0078125
576,2.509,IMU0,1.6463414634146343,1.524390243902439,-76.52439024390245,-0.3056640625,0.025390625,-0.0078125
577,2.509,IMU1,3.231707317073171,2.1951219512195124,-78.78048780487805,-0.3349609375,0.0205078125,-0.0146484375
578,2.519,IMU0,-0.06097560975609757,1.0365853658536586,-68.65853658536587,-0.296875,0.0458984375,-0.005859375
579,2.519,IMU1,1.4634146341463417,1.707317073170732,-70.1219512195122,-0.3203125,0.037109375,-0.01171875
580,2.529,IMU0,1.9512195121951221,-0.12195121951219513,-75.1829268292683,-0.3046875,0.0166015625,-0.0126953125
581,2.529,IMU1,3.658536585365854,0.9146341463414634,-77.6219512195122,-0.337890625,0.0166015625,-0.01953125
582,2.539,IMU0,0.30487804878048785,-0.12195121951219513,-70.73170731707317,-0.32421875,0.052734375,-0.0126953125
583,2.539,IMU1,1.707317073170732,0.12195121951219513,-72.43902439024392,-0.33984375,0.05078125,-0.021484375
584,2.549,IMU0,3.2926829268292686,0.1829268292682927,-70.48780487804879,-0.310546875,0.068359375,-0.0126953125
585,2.549,IMU1,5.426829268292684,0.853658536585366,-73.35365853658537,-0.3310546875,0.0615234375,-0.021484375
586,2.559,IMU0,1.3414634146341464,0.5487804878048781,-74.20731707317074,-0.3115234375,0.0361328125,-0.015625
587,2.559,IMU1,2.7439024390243905,1.402439024390244,-74.81707317073172,-0.3310546875,0.04296875,-0.025390625
588,2.569,IMU0,2.8658536585365857,-0.426829268292683,-68.53658536585367,-0.28125,0.0537109375,-0.0126953125
589,2.569,IMU1,5.2439024390243905,0.0,-72.01219512195122,-0.3056640625,0.048828125,-0.021484375
590,2.579,IMU0,2.5609756097560976,-0.06097560975609757,-74.87804878048782,-0.2626953125,0.021484375,-0.0068359375
591,2.579,IMU1,3.963414634146342,0.6097560975609757,-75.91463414634147,-0.2841796875,0.01953125,-0.013671875
592,2.589,IMU0,-0.12195121951219513,-0.3658536585365854,-68.04878048780489,-0.275390625,0.0263671875,-0.0029296875
593,2.589,IMU1,1.524390243902439,0.30487804878048785,-69.93902439024392,-0.30859375,0.0205078125,-0.0078125
594,2.599,IMU0,2.682926829268293,-1.5853658536585367,-75.97560975609757,-0.275390625,-0.001953125,-0.009765625
595,2.599,IMU1,3.8414634146341466,-0.853658536585366,-78.53658536585367,-0.3095703125,-0.0048828125,-0.0166015625
596,2.609,IMU0,0.48780487804878053,1.3414634146341464,-68.96341463414635,-0.234375,0.0322265625,-0.013671875
597,2.609,IMU1,2.1951219512195124,1.4634146341463417,-70.42682926829269,-0.2744140625,0.03515625,-0.0166015625
598,2.619,IMU0,1.9512195121951221,0.12195121951219513,-74.32926829268294,-0.154296875,0.0419921875,-0.009765625
599,2.619,IMU1,3.780487804878049,0.853658536585366,-77.01219512195122,-0.1923828125,0.033203125,-0.015625
600,2.629,IMU0,1.1585365853658538,-0.7317073170731708,-71.64634146341464,-0.0888671875,0.0458984375,0.0009765625
601,2.629,IMU1,2.378048780487805,-0.3658536585365854,-73.04878048780489,-0.1171875,0.0380859375,-0.0048828125
602,2.639,IMU0,2.5,-0.9756097560975611,-69.57317073170732,-0.0771484375,0.046875,0.005859375
603,2.639,IMU1,5.365853658536586,-0.5487804878048781,-73.17073170731707,-0.103515625,0.0390625,-0.0009765625
604,2.649,IMU0,2.682926829268293,-0.30487804878048785,-73.04878048780489,-0.0390625,0.0224609375,0.0048828125
605,2.649,IMU1,3.5975609756097566,0.5487804878048781,-74.08536585365854,-0.0546875,0.03125,0.0
606,2.659,IMU0,1.7682926829268295,-2.5609756097560976,-67.6219512195122,-0.00390625,0.0361328125,0.005859375
607,2.659,IMU1,3.4756097560975614,-1.829268292682927,-69.75609756097562,-0.0283203125,0.0302734375,0.0009765625
608,2.669,IMU0,3.8414634146341466,-1.707317073170732,-74.26829268292684,0.0,-0.005859375,-0.001953125
609,2.669,IMU1,5.121951219512195,-1.2195121951219514,-77.25609756097562,-0.0283203125,-0.0009765625,-0.005859375
610,2.679,IMU0,0.6097560975609757,-1.8902439024390245,-66.40243902439025,-0.0048828125,0.009765625,-0.0029296875
611,2.679,IMU1,2.7439024390243905,-1.524390243902439,-67.13414634146342,-0.0224609375,0.0087890625,-0.0068359375
612,2.689,IMU0,4.390243902439025,-1.9512195121951221,-75.2439024390244,0.0,-0.0087890625,-0.00390625
613,2.689,IMU1,5.121951219512195,-1.0365853658536586,-78.59756097560977,-0.029296875,-0.0107421875,-0.0107421875
614,2.699,IMU0,0.7317073170731708,-0.853658536585366,-68.17073170731707,0.0087890625,0.0302734375,0.0029296875
615,2.699,IMU1,2.9268292682926833,-0.9146341463414634,-69.20731707317074,-0.013671875,0.02734375,-0.0009765625
616,2.709,IMU0,2.0121951219512195,-2.073170731707317,-71.09756097560977,0.013671875,0.0361328125,0.005859375
617,2.709,IMU1,4.451219512195122,-1.3414634146341464,-74.20731707317074,0.0009765625,0.0322265625,-0.001953125
618,2.719,IMU0,1.9512195121951221,-1.707317073170732,-71.64634146341464,0.03125,0.033203125,0.0107421875
619,2.719,IMU1,2.987804878048781,-1.0365853658536586,-72.43902439024392,0.0126953125,0.03515625,0.0068359375
620,2.729,IMU0,3.048780487804878,-2.5,-67.98780487804879,0.025390625,0.046875,0.009765625
621,2.729,IMU1,5.426829268292684,-2.25609756097561,-70.54878048780489,0.0068359375,0.0419921875,0.001953125
622,2.739,IMU0,4.146341463414634,-1.5853658536585367,-71.28048780487805,0.0087890625,0.009765625,0.005859375
623,2.739,IMU1,5.670731707317073,-0.9756097560975611,-73.96341463414635,-0.009765625,0.0107421875,0.0029296875
624,2.749,IMU0,0.6097560975609757,-2.1951219512195124,-67.8658536585366,0.0205078125,0.0322265625,0.013671875
625,2.749,IMU1,2.1951219512195124,-1.3414634146341464,-67.5,-0.0185546875,0.0107421875,0.0048828125
626,2.759,IMU0,5.0,-2.3170731707317076,-73.84146341463415,0.02734375,0.0087890625,0.0107421875
627,2.759,IMU1,5.914634146341464,-1.7682926829268295,-78.17073170731707,0.0166015625,0.0263671875,0.0078125
628,2.769,IMU0,0.853658536585366,-1.2195121951219514,-66.46341463414635,0.025390625,0.01953125,0.0078125
629,2.769,IMU1,3.2926829268292686,-1.1585365853658538,-66.28048780487805,-0.00390625,-0.017578125,-0.001953125
630,2.779,IMU0,2.9268292682926833,-2.439024390243903,-72.43902439024392,0.005859375,-0.009765625,-0.001953125
631,2.779,IMU1,2.8658536585365857,-2.1951219512195124,-69.20731707317074,-0.0078125,0.0029296875,-0.0068359375
632,2.789,IMU0,1.0975609756097562,-2.378048780487805,-70.42682926829269,0.0244140625,0.0029296875,-0.0107421875
633,2.789,IMU1,4.146341463414634,-1.6463414634146343,-75.2439024390244,0.001953125,0.0009765625,-0.017578125
634,2.799,IMU0,1.1585365853658538,-2.1951219512195124,-68.23170731707317,0.0166015625,0.033203125,-0.009765625
635,2.799,IMU1,2.25609756097561,-1.2804878048780488,-69.39024390243902,-0.00390625,0.0322265625,-0.0166015625
636,2.809,IMU0,3.780487804878049,-2.073170731707317,-70.79268292682927,0.0078125,0.0068359375,-0.0126953125
637,2.809,IMU1,6.036585365853659,-2.073170731707317,-71.40243902439025,-0.0126953125,0.0009765625,-0.0185546875
638,2.819,IMU0,1.402439024390244,-2.6219512195121952,-68.29268292682927,0.017578125,-0.0029296875,-0.0048828125
639,2.819,IMU1,3.2926829268292686,-1.2804878048780488,-72.13414634146342,-0.0029296875,-0.0185546875,-0.01171875
640,2.829,IMU0,5.060975609756098,-1.0365853658536586,-69.81707317073172,0.0107421875,-0.0107421875,-0.0107421875
641,2.829,IMU1,4.329268292682928,-0.6097560975609757,-66.64634146341464,0.00390625,0.0048828125,-0.01171875
642,2.839,IMU0,0.3658536585365854,-0.30487804878048785,-67.6219512195122,0.0205078125,0.0078125,-0.0009765625
643,2.839,IMU1,4.695121951219512,-0.6707317073170732,-76.95121951219512,0.0,-0.009765625,-0.0087890625
644,2.849,IMU0,5.060975609756098,-2.073170731707317,-71.09756097560977,0.0400390625,0.00390625,-0.0009765625
645,2.849,IMU1,4.939024390243903,-1.3414634146341464,-65.60975609756098,0.0361328125,0.029296875,-0.0048828125
646,2.859,IMU0,2.25609756097561,-1.0975609756097562,-70.60975609756098,0.04296875,-0.005859375,-0.0078125
647,2.859,IMU1,6.036585365853659,-0.3658536585365854,-76.82926829268294,0.0234375,-0.01171875,-0.0146484375
648,2.869,IMU0,2.25609756097561,-1.829268292682927,-68.71951219512195,0.0498046875,0.01171875,0.0009765625
649,2.869,IMU1,3.231707317073171,-1.402439024390244,-69.14634146341464,0.0390625,0.0166015625,-0.0078125
650,2.879,IMU0,5.0,-1.707317073170732,-74.75609756097562,0.0166015625,0.0068359375,-0.0029296875
651,2.879,IMU1,7.134146341463415,-1.1585365853658538,-75.73170731707317,0.0068359375,0.01171875,-0.0078125
652,2.889,IMU0,2.3170731707317076,-1.402439024390244,-69.87804878048782,0.0048828125,0.0126953125,0.0029296875
653,2.889,IMU1,4.51219512195122,-0.7926829268292683,-73.10975609756098,-0.017578125,0.0078125,-0.00390625
654,2.899,IMU0,3.414634146341464,-1.402439024390244,-72.6219512195122,0.0224609375,0.025390625,0.001953125
655,2.899,IMU1,3.780487804878049,-1.1585365853658538,-73.71951219512195,0.0087890625,0.0263671875,-0.0009765625
656,2.909,IMU0,3.1097560975609757,-1.2804878048780488,-75.0,0.029296875,0.0146484375,-0.0048828125
657,2.909,IMU1,6.951219512195123,-0.6707317073170732,-76.09756097560977,-0.001953125,0.0185546875,-0.01171875
658,2.919,IMU0,1.829268292682927,-1.0975609756097562,-68.59756097560977,0.0654296875,0.0244140625,-0.00390625
659,2.919,IMU1,2.439024390243903,0.1829268292682927,-72.31707317073172,0.046875,0.0283203125,-0.0107421875
660,2.929,IMU0,3.353658536585366,-1.2195121951219514,-77.07317073170732,0.0380859375,0.0087890625,-0.009765625
661,2.929,IMU1,6.097560975609756,-1.5853658536585367,-76.40243902439025,0.0166015625,0.0146484375,-0.0126953125
662,2.939,IMU0,1.402439024390244,-2.25609756097561,-69.87804878048782,0.0439453125,0.0439453125,-0.00390625
663,2.939,IMU1,3.780487804878049,-1.2804878048780488,-76.46341463414635,0.009765625,0.037109375,-0.0087890625
664,2.949,IMU0,3.8414634146341466,-1.524390243902439,-74.45121951219512,0.0341796875,0.0322265625,0.0009765625
665,2.949,IMU1,3.4756097560975614,-1.0365853658536586,-69.51219512195122,0.0263671875,0.0458984375,-0.0029296875
666,2.959,IMU0,3.048780487804878,-0.9146341463414634,-71.70731707317074,0.0419921875,0.0390625,0.001953125
667,2.959,IMU1,6.707317073170732,-0.7926829268292683,-79.45121951219512,0.0087890625,0.0166015625,-0.001953125
668,2.969,IMU0,3.658536585365854,-1.524390243902439,-72.01219512195122,0.0390625,0.0283203125,0.017578125
669,2.969,IMU1,4.939024390243903,-0.426829268292683,-71.03658536585367,0.0166015625,0.0361328125,0.0126953125
670,2.979,IMU0,4.939024390243903,-1.402439024390244,-72.98780487804879,0.021484375,0.0517578125,0.0224609375
671,2.979,IMU1,5.731707317073171,-1.0365853658536586,-74.63414634146342,-0.001953125,0.0576171875,0.0205078125
672,2.989,IMU0,3.1097560975609757,-1.1585365853658538,-72.6829268292683,0.0185546875,0.0283203125,0.0224609375
673,2.989,IMU1,6.52439024390244,-1.1585365853658538,-76.40243902439025,-0.0126953125,0.015625,0.0146484375
674,2.999,IMU0,2.804878048780488,-2.0121951219512195,-69.39024390243902,0.02734375,0.0224609375,0.0234375
675,2.999,IMU1,2.987804878048781,-0.7317073170731708,-70.79268292682927,0.015625,0.03125,0.01953125
676,3.009,IMU0,3.9024390243902443,-0.5487804878048781,-75.91463414634147,0.0205078125,-0.005859375,0.0126953125
677,3.009,IMU1,6.890243902439025,-0.853658536585366,-76.34146341463415,-0.0009765625,-0.01171875,0.0078125
678,3.019,IMU0,2.073170731707317,-1.524390243902439,-68.35365853658537,0.0322265625,-0.00390625,0.0078125
679,3.019,IMU1,3.2926829268292686,-0.48780487804878053,-74.63414634146342,-0.00390625,-0.0166015625,0.0009765625
680,3.029,IMU0,5.182926829268293,-1.3414634146341464,-76.34146341463415,0.025390625,-0.01953125,0.0087890625
681,3.029,IMU1,5.3048780487804885,-0.12195121951219513,-71.40243902439025,0.0205078125,-0.0048828125,0.00390625
682,3.039,IMU0,0.853658536585366,-0.1829268292682927,-68.59756097560977,0.0478515625,0.0185546875,0.0087890625
683,3.039,IMU1,4.024390243902439,0.12195121951219513,-77.13414634146342,0.01953125,0.0068359375,0.001953125
684,3.049,IMU0,3.5975609756097566,-1.6463414634146343,-72.13414634146342,0.0556640625,0.0390625,0.005859375
685,3.049,IMU1,5.121951219512195,-1.1585365853658538,-69.75609756097562,0.03125,0.0498046875,0.001953125
686,3.059,IMU0,5.914634146341464,-1.7682926829268295,-71.89024390243902,0.0244140625,0.03515625,-0.0009765625
687,3.059,IMU1,7.500000000000001,-1.3414634146341464,-74.02439024390245,0.0166015625,0.02734375,-0.0048828125
688,3.069,IMU0,3.2926829268292686,-0.426829268292683,-70.2439024390244,0.029296875,0.0390625,0.00390625
689,3.069,IMU1,5.853658536585367,-0.48780487804878053,-74.39024390243902,0.0009765625,0.021484375,0.0
690,3.079,IMU0,5.670731707317073,-1.707317073170732,-70.2439024390244,0.0458984375,0.0322265625,0.0029296875
691,3.079,IMU1,5.121951219512195,-0.9146341463414634,-69.93902439024392,0.021484375,0.0380859375,0.0
692,3.089,IMU0,3.780487804878049,-0.5487804878048781,-73.29268292682927,0.0517578125,-0.0029296875,0.0048828125
693,3.089,IMU1,6.707317073170732,0.0,-75.3658536585366,0.0146484375,-0.0078125,0.0
694,3.099,IMU0,2.1951219512195124,-1.524390243902439,-65.97560975609757,0.068359375,-0.0048828125,0.0126953125
695,3.099,IMU1,2.804878048780488,-0.9756097560975611,-69.93902439024392,0.03125,-0.0048828125,0.0087890625
696,3.109,IMU0,5.2439024390243905,-1.2195121951219514,-76.40243902439025,0.0263671875,-0.021484375,0.0048828125
697,3.109,IMU1,7.25609756097561,-0.6097560975609757,-74.51219512195122,-0.00390625,-0.01171875,0.001953125
698,3.119,IMU0,2.804878048780488,-0.1829268292682927,-66.34146341463415,0.03515625,0.009765625,0.0009765625
699,3.119,IMU1,5.0,0.24390243902439027,-72.19512195121952,-0.0029296875,0.0048828125,-0.0029296875
700,3.129,IMU0,3.1097560975609757,-1.3414634146341464,-72.07317073170732,0.033203125,0.0146484375,0.0009765625
701,3.129,IMU1,4.207317073170732,-0.9146341463414634,-70.48780487804879,0.0126953125,0.025390625,-0.0009765625
702,3.139,IMU0,3.9024390243902443,-0.426829268292683,-71.64634146341464,0.017578125,0.0400390625,-0.00390625
703,3.139,IMU1,6.707317073170732,-0.30487804878048785,-75.3048780487805,0.0009765625,0.037109375,-0.0087890625
704,3.149,IMU0,3.231707317073171,-0.6707317073170732,-68.17073170731707,0.0361328125,0.0361328125,0.005859375
705,3.149,IMU1,4.878048780487806,0.12195121951219513,-70.0609756097561,0.0029296875,0.025390625,0.001953125
706,3.159,IMU0,5.731707317073171,-1.4634146341463417,-70.60975609756098,0.0390625,0.013671875,0.0068359375
707,3.159,IMU1,6.52439024390244,-1.402439024390244,-70.85365853658537,0.013671875,0.01953125,0.00390625
708,3.169,IMU0,3.5975609756097566,-0.30487804878048785,-71.58536585365854,0.013671875,-0.0068359375,0.0107421875
709,3.169,IMU1,6.951219512195123,0.5487804878048781,-74.63414634146342,0.00390625,-0.0185546875,0.0029296875
710,3.179,IMU0,1.8902439024390245,-1.1585365853658538,-65.2439024390244,0.0380859375,0.0068359375,0.0185546875
711,3.179,IMU1,2.439024390243903,-0.9146341463414634,-67.5609756097561,0.01953125,0.0078125,0.013671875
712,3.189,IMU0,3.963414634146342,-0.9146341463414634,-75.97560975609757,0.0078125,0.01953125,0.0185546875
713,3.189,IMU1,7.134146341463415,-0.6707317073170732,-77.13414634146342,0.001953125,0.0146484375,0.013671875
714,3.199,IMU0,3.353658536585366,-1.829268292682927,-64.45121951219512,0.0087890625,0.07421875,0.0234375
715,3.199,IMU1,4.451219512195122,-0.7317073170731708,-67.5609756097561,-0.005859375,0.068359375,0.017578125
716,3.209,IMU0,7.25609756097561,-0.6097560975609757,-71.76829268292684,0.013671875,0.037109375,0.0234375
717,3.209,IMU1,7.987804878048781,-0.06097560975609757,-70.1219512195122,0.0,0.0390625,0.017578125
718,3.219,IMU0,3.9024390243902443,-1.1585365853658538,-68.47560975609757,0.01171875,0.0107421875,0.021484375
719,3.219,IMU1,6.7682926829268295,-0.7317073170731708,-73.47560975609757,-0.0234375,0.0,0.0166015625
720,3.229,IMU0,4.329268292682928,-0.5487804878048781,-67.98780487804879,0.048828125,0.0,0.01953125
721,3.229,IMU1,5.0,0.24390243902439027,-68.17073170731707,0.0107421875,-0.0068359375,0.0166015625
722,3.239,IMU0,3.414634146341464,-0.9756097560975611,-71.34146341463415,0.0224609375,0.0087890625,0.0166015625
723,3.239,IMU1,5.548780487804878,-1.0975609756097562,-74.20731707317074,-0.0029296875,-0.0009765625,0.01171875
724,3.249,IMU0,2.8658536585365857,-1.3414634146341464,-69.02439024390245,0.048828125,0.060546875,0.0185546875
725,3.249,IMU1,4.817073170731708,-0.24390243902439027,-71.64634146341464,0.015625,0.052734375,0.0107421875
726,3.259,IMU0,4.024390243902439,-0.6097560975609757,-66.82926829268293,0.064453125,0.072265625,0.017578125
727,3.259,IMU1,4.390243902439025,-0.06097560975609757,-67.19512195121952,0.033203125,0.06640625,0.015625
728,3.269,IMU0,3.7195121951219514,-0.6097560975609757,-73.84146341463415,0.0654296875,0.048828125,0.01171875
729,3.269,IMU1,6.646341463414635,-0.6097560975609757,-76.95121951219512,0.0205078125,0.03515625,0.0078125
730,3.279,IMU0,3.658536585365854,-0.9146341463414634,-64.57317073170732,0.0546875,0.0478515625,0.0078125
731,3.279,IMU1,4.573170731707317,-0.1829268292682927,-66.52439024390245,0.015625,0.0595703125,0.0068359375
732,3.289,IMU0,5.121951219512195,-1.0975609756097562,-72.5609756097561,0.0546875,0.0390625,0.0087890625
733,3.289,IMU1,7.01219512195122,-0.7317073170731708,-72.5,0.001953125,0.0234375,0.00390625
734,3.299,IMU0,3.353658536585366,-0.9146341463414634,-66.28048780487805,0.037109375,-0.01953125,0.0146484375
735,3.299,IMU1,6.097560975609756,-0.426829268292683,-71.34146341463415,0.00390625,-0.01171875,0.0107421875
736,3.309,IMU0,2.7439024390243905,-0.5487804878048781,-69.08536585365854,0.0283203125,-0.005859375,0.0126953125
737,3.309,IMU1,3.2926829268292686,0.3658536585365854,-67.98780487804879,-0.0087890625,-0.0078125,0.0126953125
738,3.319,IMU0,3.1707317073170733,0.0,-71.03658536585367,0.0185546875,-0.0048828125,0.0146484375
739,3.319,IMU1,5.7926829268292686,-0.1829268292682927,-75.2439024390244,-0.0234375,-0.015625,0.0087890625
740,3.329,IMU0,2.6219512195121952,-1.2195121951219514,-69.75609756097562,0.0166015625,-0.0009765625,0.009765625
741,3.329,IMU1,4.146341463414634,-0.30487804878048785,-71.58536585365854,-0.0224609375,0.0,0.01171875
742,3.339,IMU0,3.963414634146342,-0.7317073170731708,-70.3658536585366,0.0400390625,0.0166015625,0.0087890625
743,3.339,IMU1,4.390243902439025,0.1829268292682927,-70.2439024390244,0.01171875,0.0146484375,0.0068359375
744,3.349,IMU0,5.914634146341464,-0.30487804878048785,-71.52439024390245,0.05078125,-0.0048828125,0.0087890625
745,3.349,IMU1,6.219512195121951,0.48780487804878053,-77.8048780487805,0.0068359375,-0.0205078125,0.005859375
746,3.359,IMU0,3.231707317073171,-0.30487804878048785,-73.10975609756098,0.046875,-0.017578125,0.0087890625
747,3.359,IMU1,4.390243902439025,0.0,-68.90243902439025,0.0224609375,-0.0068359375,0.0078125
748,3.369,IMU0,2.1951219512195124,-0.9146341463414634,-67.07317073170732,0.072265625,0.00390625,0.01171875
749,3.369,IMU1,5.853658536585367,0.24390243902439027,-74.45121951219512,0.029296875,-0.015625,0.0068359375
750,3.379,IMU0,5.548780487804878,-0.12195121951219513,-75.79268292682927,0.0703125,0.0,0.005859375
751,3.379,IMU1,5.060975609756098,-0.06097560975609757,-75.97560975609757,0.02734375,0.009765625,0.0048828125
752,3.389,IMU0,2.682926829268293,0.3658536585365854,-68.65853658536587,0.0654296875,0.0087890625,0.0126953125
753,3.389,IMU1,5.121951219512195,0.48780487804878053,-68.41463414634147,0.0322265625,0.01953125,0.0107421875
754,3.399,IMU0,3.963414634146342,-0.9756097560975611,-71.58536585365854,0.0517578125,-0.0009765625,0.017578125
755,3.399,IMU1,6.219512195121951,-0.30487804878048785,-77.13414634146342,0.0146484375,-0.0126953125,0.01171875
756,3.409,IMU0,4.634146341463415,-0.9756097560975611,-72.37804878048782,0.04296875,-0.0234375,0.0078125
757,3.409,IMU1,5.182926829268293,-0.24390243902439027,-72.5,0.015625,-0.0146484375,0.0029296875
758,3.419,IMU0,2.9268292682926833,-0.06097560975609757,-71.03658536585367,0.021484375,-0.0185546875,0.013671875
759,3.419,IMU1,4.634146341463415,-0.1829268292682927,-69.20731707317074,-0.0185546875,-0.0234375,0.009765625
760,3.429,IMU0,3.414634146341464,-0.12195121951219513,-68.65853658536587,0.0224609375,-0.009765625,0.0126953125
761,3.429,IMU1,6.463414634146342,-0.06097560975609757,-76.40243902439025,0.001953125,-0.0029296875,0.0087890625
762,3.439,IMU0,3.5975609756097566,0.7317073170731708,-74.08536585365854,0.02734375,-0.0009765625,0.0087890625
763,3.439,IMU1,6.158536585365854,1.0365853658536586,-76.76829268292684,-0.00390625,0.0,0.00390625
764,3.449,IMU0,3.048780487804878,-1.1585365853658538,-68.29268292682927,0.0390625,0.025390625,0.0087890625
765,3.449,IMU1,4.573170731707317,-0.5487804878048781,-71.34146341463415,0.013671875,0.0224609375,0.0029296875
766,3.459,IMU0,6.402439024390245,-0.5487804878048781,-71.28048780487805,0.0234375,0.03125,0.0048828125
767,3.459,IMU1,7.195121951219513,0.30487804878048785,-69.87804878048782,0.0185546875,0.04296875,-0.0009765625
768,3.469,IMU0,4.75609756097561,-0.12195121951219513,-71.15853658536587,0.0322265625,0.0263671875,-0.0029296875
769,3.469,IMU1,7.317073170731708,0.1829268292682927,-75.67073170731707,0.0,0.01953125,-0.009765625
770,3.479,IMU0,4.207317073170732,-0.853658536585366,-67.01219512195122,0.0263671875,0.03125,-0.0048828125
771,3.479,IMU1,5.426829268292684,0.0,-67.6219512195122,0.00390625,0.029296875,-0.0107421875
772,3.489,IMU0,5.731707317073171,0.12195121951219513,-71.03658536585367,0.01171875,0.0244140625,-0.01171875
773,3.489,IMU1,7.378048780487806,0.5487804878048781,-72.19512195121952,-0.00390625,0.0205078125,-0.017578125
774,3.499,IMU0,3.5975609756097566,0.1829268292682927,-66.03658536585367,0.0341796875,0.03125,-0.0029296875
775,3.499,IMU1,5.7926829268292686,0.48780487804878053,-69.14634146341464,0.0166015625,0.021484375,-0.0107421875
776,3.509,IMU0,5.487804878048781,-1.5853658536585367,-62.43902439024391,0.03125,0.0419921875,0.005859375
777,3.509,IMU1,6.52439024390244,-0.853658536585366,-63.17073170731708,0.0078125,0.04296875,0.001953125
778,3.519,IMU0,5.182926829268293,0.1829268292682927,-64.32926829268293,0.033203125,0.015625,0.013671875
779,3.519,IMU1,7.378048780487806,0.6097560975609757,-66.70731707317074,0.0205078125,0.013671875,0.0068359375
780,3.529,IMU0,4.146341463414634,-0.853658536585366,-58.29268292682927,0.0361328125,0.0498046875,0.0244140625
781,3.529,IMU1,5.121951219512195,-0.426829268292683,-60.54878048780488,0.0224609375,0.0478515625,0.017578125
782,3.539,IMU0,7.865853658536586,-0.9756097560975611,-64.26829268292684,0.0185546875,0.025390625,0.0263671875
783,3.539,IMU1,10.060975609756099,-0.426829268292683,-65.91463414634147,0.0107421875,0.0263671875,0.01953125
784,3.549,IMU0,5.121951219512195,-0.853658536585366,-54.87804878048781,0.0244140625,0.04296875,0.02734375
785,3.549,IMU1,6.341463414634147,-0.12195121951219513,-57.07317073170732,0.01171875,0.037109375,0.01953125
786,3.559,IMU0,7.25609756097561,-0.9756097560975611,-61.34146341463415,0.017578125,0.0185546875,0.021484375
787,3.559,IMU1,8.536585365853659,-0.426829268292683,-62.50000000000001,0.00390625,0.01171875,0.0146484375
788,3.569,IMU0,4.207317073170732,-0.48780487804878053,-53.71951219512196,0.0283203125,0.0087890625,0.017578125
789,3.569,IMU1,6.097560975609756,0.1829268292682927,-56.82926829268293,0.0078125,0.005859375,0.01171875
790,3.579,IMU0,5.7926829268292686,-0.9756097560975611,-57.19512195121952,0.0263671875,0.009765625,0.01953125
791,3.579,IMU1,6.707317073170732,-0.3658536585365854,-57.743902439024396,0.0126953125,0.0126953125,0.0146484375
792,3.589,IMU0,3.9024390243902443,-0.06097560975609757,-53.04878048780488,0.04296875,0.0263671875,0.01953125
793,3.589,IMU1,5.7926829268292686,0.426829268292683,-55.79268292682927,0.0107421875,0.0166015625,0.0146484375
794,3.599,IMU0,2.9268292682926833,-1.2804878048780488,-54.69512195121952,0.03515625,0.0283203125,0.0205078125
795,3.599,IMU1,4.207317073170732,-0.7317073170731708,-56.09756097560976,0.005859375,0.0205078125,0.0166015625
796,3.609,IMU0,4.51219512195122,-0.48780487804878053,-52.987804878048784,0.033203125,0.0458984375,0.0205078125
797,3.609,IMU1,6.52439024390244,0.12195121951219513,-55.487804878048784,0.0048828125,0.0390625,0.015625
798,3.619,IMU0,5.914634146341464,-0.48780487804878053,-49.75609756097561,0.0234375,0.0361328125,0.0126953125
799,3.619,IMU1,7.073170731707318,0.1829268292682927,-50.97560975609756,-0.0009765625,0.041015625,0.0087890625
800,3.629,IMU0,4.146341463414634,-0.30487804878048785,-53.90243902439025,0.0078125,0.029296875,0.0087890625
801,3.629,IMU1,6.036585365853659,0.1829268292682927,-56.951219512195124,-0.01171875,0.0185546875,0.0029296875
802,3.639,IMU0,5.182926829268293,-0.9756097560975611,-50.79268292682927,0.005859375,0.013671875,0.0078125
803,3.639,IMU1,6.402439024390245,-0.426829268292683,-51.768292682926834,-0.015625,0.009765625,0.001953125
804,3.649,IMU0,3.353658536585366,0.7926829268292683,-52.25609756097561,0.0224609375,0.0244140625,0.0078125
805,3.649,IMU1,5.3048780487804885,1.3414634146341464,-54.75609756097561,-0.0048828125,0.0224609375,0.0029296875
806,3.659,IMU0,5.914634146341464,0.426829268292683,-51.89024390243903,0.0341796875,0.0107421875,0.013671875
807,3.659,IMU1,7.195121951219513,0.853658536585366,-52.743902439024396,0.0185546875,0.009765625,0.009765625
808,3.669,IMU0,2.5,0.06097560975609757,-50.1219512195122,0.0400390625,0.0224609375,0.017578125
809,3.669,IMU1,4.2682926829268295,0.426829268292683,-52.743902439024396,0.0146484375,0.01953125,0.0107421875
810,3.679,IMU0,5.121951219512195,-0.9756097560975611,-54.146341463414636,0.0322265625,0.03125,0.0224609375
811,3.679,IMU1,6.585365853658537,-0.48780487804878053,-56.09756097560976,0.0126953125,0.025390625,0.015625
812,3.689,IMU0,3.7195121951219514,-0.06097560975609757,-46.951219512195124,0.0400390625,0.0595703125,0.01953125
813,3.689,IMU1,5.3048780487804885,0.48780487804878053,-49.085365853658544,0.00390625,0.0517578125,0.0146484375
814,3.699,IMU0,5.121951219512195,-0.5487804878048781,-48.963414634146346,0.0400390625,0.056640625,0.015625
815,3.699,IMU1,6.7682926829268295,0.0,-50.670731707317074,0.0107421875,0.0458984375,0.0107421875
816,3.709,IMU0,3.353658536585366,0.0,-45.91463414634147,0.025390625,0.0390625,0.0146484375
817,3.709,IMU1,4.573170731707317,0.48780487804878053,-47.804878048780495,-0.0029296875,0.03515625,0.009765625
818,3.719,IMU0,4.451219512195122,0.06097560975609757,-46.951219512195124,0.0361328125,0.0166015625,0.0107421875
819,3.719,IMU1,6.219512195121951,0.5487804878048781,-49.207317073170735,-0.0029296875,0.0166015625,0.0087890625
820,3.729,IMU0,4.573170731707317,-0.6097560975609757,-43.963414634146346,0.044921875,0.0439453125,0.015625
821,3.729,IMU1,5.914634146341464,-0.06097560975609757,-45.670731707317074,0.0126953125,0.044921875,0.0126953125
822,3.739,IMU0,5.060975609756098,0.12195121951219513,-48.170731707317074,0.0302734375,0.0263671875,0.0068359375
823,3.739,IMU1,7.073170731707318,0.5487804878048781,-50.79268292682927,0.0029296875,0.025390625,0.0029296875
824,3.749,IMU0,6.036585365853659,0.0,-42.5609756097561,0.0361328125,0.041015625,0.0048828125
825,3.749,IMU1,7.560975609756098,0.48780487804878053,-44.024390243902445,0.0166015625,0.0380859375,-0.001953125
826,3.759,IMU0,2.987804878048781,0.6707317073170732,-43.47560975609756,0.044921875,0.0166015625,-0.0078125
827,3.759,IMU1,4.51219512195122,1.0975609756097562,-45.60975609756098,0.021484375,0.01953125,-0.013671875
828,3.769,IMU0,3.8414634146341466,-0.853658536585366,-50.243902439024396,0.0390625,0.005859375,-0.0068359375
829,3.769,IMU1,5.487804878048781,-0.48780487804878053,-53.04878048780488,0.0244140625,0.009765625,-0.013671875
830,3.779,IMU0,4.146341463414634,-0.6097560975609757,-43.10975609756098,0.03125,0.0556640625,-0.0078125
831,3.779,IMU1,5.365853658536586,-0.1829268292682927,-44.81707317073171,0.0185546875,0.0556640625,-0.015625
832,3.789,IMU0,4.390243902439025,-0.7926829268292683,-46.34146341463415,0.03515625,0.0224609375,-0.025390625
833,3.789,IMU1,6.097560975609756,-0.426829268292683,-48.29268292682927,0.01953125,0.015625,-0.0341796875
834,3.799,IMU0,3.4756097560975614,0.426829268292683,-47.01219512195122,0.048828125,0.01953125,-0.0322265625
835,3.799,IMU1,4.878048780487806,0.853658536585366,-48.71951219512196,0.021484375,0.01953125,-0.0380859375
836,3.809,IMU0,2.7439024390243905,0.9756097560975611,-46.40243902439025,0.0185546875,0.029296875,-0.0419921875
837,3.809,IMU1,4.146341463414634,1.2804878048780488,-48.78048780487805,-0.00390625,0.025390625,-0.0478515625
838,3.819,IMU0,5.060975609756098,0.06097560975609757,-46.82926829268293,0.0322265625,0.03515625,-0.0576171875
839,3.819,IMU1,6.7682926829268295,0.426829268292683,-48.84146341463415,0.015625,0.02734375,-0.0634765625
840,3.829,IMU0,3.2926829268292686,-0.9146341463414634,-43.41463414634147,0.0478515625,0.0390625,-0.0693359375
841,3.829,IMU1,4.634146341463415,-0.6097560975609757,-45.243902439024396,0.0244140625,0.0322265625,-0.0732421875
842,3.839,IMU0,3.963414634146342,-0.6707317073170732,-43.04878048780488,0.017578125,0.029296875,-0.083984375
843,3.839,IMU1,5.426829268292684,-0.426829268292683,-45.36585365853659,-0.0048828125,0.0166015625,-0.0888671875
844,3.849,IMU0,5.548780487804878,-1.0975609756097562,-35.670731707317074,0.0068359375,0.0078125,-0.095703125
845,3.849,IMU1,7.01219512195122,-0.7926829268292683,-37.80487804878049,-0.0126953125,0.0,-0.1015625
846,3.859,IMU0,4.451219512195122,-0.30487804878048785,-27.31707317073171,-0.0078125,0.0048828125,-0.095703125
847,3.859,IMU1,6.036585365853659,0.12195121951219513,-28.84146341463415,-0.0322265625,0.0048828125,-0.099609375
848,3.869,IMU0,2.1951219512195124,-0.12195121951219513,-24.512195121951223,-0.0283203125,0.0263671875,-0.08984375
849,3.869,IMU1,3.9024390243902443,0.30487804878048785,-26.03658536585366,-0.037109375,0.0205078125,-0.095703125
850,3.879,IMU0,1.829268292682927,0.7317073170731708,-22.743902439024392,-0.0205078125,0.041015625,-0.0888671875
851,3.879,IMU1,3.5975609756097566,1.0975609756097562,-24.451219512195124,-0.025390625,0.0380859375,-0.095703125
852,3.889,IMU0,2.439024390243903,-0.1829268292682927,-21.402439024390247,-0.001953125,0.05078125,-0.087890625
853,3.889,IMU1,4.207317073170732,0.1829268292682927,-22.865853658536587,-0.01171875,0.0478515625,-0.0947265625
854,3.899,IMU0,3.8414634146341466,-0.12195121951219513,-20.48780487804878,0.0244140625,0.0380859375,-0.08984375
855,3.899,IMU1,5.487804878048781,0.1829268292682927,-22.073170731707318,0.0068359375,0.037109375,-0.0966796875
856,3.909,IMU0,4.329268292682928,-1.0365853658536586,-18.84146341463415,0.0185546875,0.0224609375,-0.109375
857,3.909,IMU1,5.670731707317073,-0.6707317073170732,-20.79268292682927,-0.005859375,0.0126953125,-0.1142578125
858,3.919,IMU0,3.048780487804878,-1.0365853658536586,-18.29268292682927,0.0166015625,0.0068359375,-0.146484375
859,3.919,IMU1,4.2682926829268295,-0.6707317073170732,-20.54878048780488,-0.0107421875,0.0048828125,-0.1513671875
860,3.929,IMU0,2.5,-1.0975609756097562,-17.926829268292686,0.0205078125,0.0263671875,-0.169921875
861,3.929,IMU1,3.536585365853659,-0.7926829268292683,-20.243902439024392,-0.013671875,0.025390625,-0.1748046875
862,3.939,IMU0,3.231707317073171,-1.4634146341463417,-17.5,0.0302734375,0.033203125,-0.18359375
863,3.939,IMU1,4.146341463414634,-1.1585365853658538,-19.75609756097561,-0.005859375,0.0302734375,-0.1875
864,3.949,IMU0,2.439024390243903,-1.7682926829268295,-17.012195121951223,0.041015625,0.02734375,-0.203125
865,3.949,IMU1,3.231707317073171,-1.3414634146341464,-19.451219512195124,0.00390625,0.0263671875,-0.20703125
866,3.959,IMU0,1.8902439024390245,-1.8902439024390245,-17.378048780487806,0.0302734375,0.02734375,-0.2333984375
867,3.959,IMU1,2.5609756097560976,-1.4634146341463417,-19.390243902439025,0.0,0.03125,-0.2392578125
868,3.969,IMU0,1.3414634146341464,-1.4634146341463417,-17.31707317073171,0.037109375,0.03515625,-0.267578125
869,3.969,IMU1,2.1341463414634148,-0.9756097560975611,-19.451219512195124,0.0146484375,0.0380859375,-0.2734375
870,3.979,IMU0,1.9512195121951221,-0.5487804878048781,-17.25609756097561,0.0400390625,0.0439453125,-0.2880859375
871,3.979,IMU1,3.048780487804878,-0.12195121951219513,-19.26829268292683,0.0205078125,0.044921875,-0.294921875
872,3.989,IMU0,2.5609756097560976,-1.0975609756097562,-16.158536585365855,0.0498046875,0.0224609375,-0.298828125
873,3.989,IMU1,3.9024390243902443,-0.48780487804878053,-17.865853658536587,0.029296875,0.0185546875,-0.3056640625
874,3.999,IMU0,2.6219512195121952,-0.48780487804878053,-16.158536585365855,0.03125,0.01171875,-0.2998046875
875,3.999,IMU1,4.207317073170732,0.0,-17.865853658536587,0.017578125,0.005859375,-0.3056640625
876,4.009,IMU0,2.7439024390243905,-0.853658536585366,-14.573170731707318,0.0263671875,0.0078125,-0.2890625
877,4.009,IMU1,4.390243902439025,-0.426829268292683,-15.914634146341465,0.005859375,0.0048828125,-0.294921875
878,4.019,IMU0,3.658536585365854,0.0,-13.597560975609758,0.0439453125,0.00390625,-0.26953125
879,4.019,IMU1,5.3048780487804885,0.3658536585365854,-14.878048780487806,0.0224609375,0.0009765625,-0.2763671875
880,4.029,IMU0,3.1097560975609757,-0.12195121951219513,-13.597560975609758,0.044921875,0.0107421875,-0.23828125
881,4.029,IMU1,4.634146341463415,0.30487804878048785,-15.426829268292684,0.01953125,0.0126953125,-0.2431640625
882,4.039,IMU0,2.5609756097560976,-0.06097560975609757,-13.29268292682927,0.0439453125,0.02734375,-0.2109375
883,4.039,IMU1,3.963414634146342,0.30487804878048785,-15.30487804878049,0.0185546875,0.0283203125,-0.216796875
884,4.049,IMU0,2.7439024390243905,-0.24390243902439027,-11.76829268292683,0.0478515625,0.033203125,-0.1923828125
885,4.049,IMU1,4.390243902439025,0.12195121951219513,-13.597560975609758,0.0263671875,0.0361328125,-0.1982421875
886,4.059,IMU0,3.963414634146342,0.30487804878048785,-11.097560975609756,0.041015625,0.033203125,-0.1826171875
887,4.059,IMU1,5.426829268292684,0.48780487804878053,-13.170731707317074,0.0302734375,0.03515625,-0.1875
888,4.069,IMU0,4.878048780487806,0.7926829268292683,-11.402439024390246,0.03515625,0.0234375,-0.1748046875
889,4.069,IMU1,6.402439024390245,0.7926829268292683,-13.78048780487805,0.0205078125,0.0244140625,-0.1796875
890,4.079,IMU0,4.2682926829268295,-0.3658536585365854,-12.74390243902439,0.0341796875,0.015625,-0.16015625
891,4.079,IMU1,5.182926829268293,-0.24390243902439027,-15.182926829268293,0.0244140625,0.0146484375,-0.1708984375
892,4.089,IMU0,2.9268292682926833,-0.853658536585366,-10.975609756097562,0.03515625,0.01171875,-0.1318359375
893,4.089,IMU1,3.4756097560975614,-0.426829268292683,-13.536585365853659,0.0205078125,0.0087890625,-0.1435546875
894,4.099,IMU0,2.804878048780488,0.24390243902439027,-11.341463414634147,0.0478515625,0.0029296875,-0.109375
895,4.099,IMU1,4.146341463414634,0.9756097560975611,-14.085365853658537,0.033203125,0.0087890625,-0.1142578125
896,4.109,IMU0,2.1951219512195124,0.3658536585365854,-10.609756097560977,0.044921875,0.0009765625,-0.080078125
897,4.109,IMU1,3.1097560975609757,0.6707317073170732,-11.341463414634147,0.029296875,0.0078125,-0.0771484375
898,4.119,IMU0,1.7682926829268295,0.0,-10.0,0.0458984375,0.0009765625,-0.046875
899,4.119,IMU1,2.9268292682926833,-0.3658536585365854,-12.195121951219512,0.0302734375,0.001953125,-0.046875
900,4.129,IMU0,3.231707317073171,0.3658536585365854,-6.829268292682928,0.0439453125,0.0068359375,-0.0283203125
901,4.129,IMU1,2.682926829268293,-0.6097560975609757,-10.0,0.015625,0.0078125,-0.0234375
902,4.139,IMU0,3.536585365853659,0.9756097560975611,-3.780487804878049,0.029296875,0.015625,-0.001953125
903,4.139,IMU1,4.329268292682928,0.24390243902439027,-5.7926829268292686,0.0068359375,0.0146484375,0.0009765625
904,4.149,IMU0,2.439024390243903,-0.30487804878048785,0.5487804878048781,0.005859375,0.0322265625,0.0263671875
905,4.149,IMU1,5.182926829268293,1.3414634146341464,-1.4634146341463417,-0.015625,0.0224609375,0.015625
906,4.159,IMU0,2.3170731707317076,-2.073170731707317,1.2804878048780488,-0.009765625,0.037109375,0.0419921875
907,4.159,IMU1,5.0,-0.9146341463414634,-0.30487804878048785,-0.025390625,0.0380859375,0.0322265625
908,4.169,IMU0,2.5609756097560976,0.06097560975609757,4.085365853658537,-0.01953125,0.029296875,0.0390625
909,4.169,IMU1,3.2926829268292686,-0.3658536585365854,1.402439024390244,-0.04296875,0.0244140625,0.0380859375
910,4.179,IMU0,4.085365853658537,0.12195121951219513,5.609756097560976,-0.01171875,0.0322265625,0.03515625
911,4.179,IMU1,4.329268292682928,-0.6097560975609757,3.1097560975609757,-0.0361328125,0.0244140625,0.0322265625
912,4.189,IMU0,1.6463414634146343,0.06097560975609757,7.073170731707318,-0.0029296875,0.033203125,0.0263671875
913,4.189,IMU1,3.8414634146341466,1.1585365853658538,4.878048780487806,-0.0234375,0.029296875,0.015625
914,4.199,IMU0,2.1951219512195124,-1.3414634146341464,8.170731707317074,-0.001953125,0.0390625,-0.00390625
915,4.199,IMU1,2.8658536585365857,-1.5853658536585367,5.731707317073171,-0.0224609375,0.0390625,-0.0078125
916,4.209,IMU0,2.3170731707317076,0.9146341463414634,8.841463414634147,0.0087890625,0.0439453125,-0.029296875
917,4.209,IMU1,4.390243902439025,1.4634146341463417,7.378048780487806,-0.0166015625,0.0390625,-0.0390625
918,4.219,IMU0,2.3170731707317076,-1.3414634146341464,9.878048780487806,0.015625,0.0302734375,-0.046875
919,4.219,IMU1,2.7439024390243905,-0.9756097560975611,7.195121951219513,-0.0087890625,0.029296875,-0.052734375
920,4.229,IMU0,2.5609756097560976,0.3658536585365854,10.182926829268293,0.03125,0.0205078125,-0.0693359375
921,4.229,IMU1,3.7195121951219514,0.7926829268292683,8.963414634146343,0.0009765625,0.01171875,-0.0751953125
922,4.239,IMU0,1.4634146341463417,-0.48780487804878053,13.597560975609758,0.0205078125,0.0126953125,-0.076171875
923,4.239,IMU1,2.5,-0.7317073170731708,11.463414634146343,0.0009765625,0.0146484375,-0.078125
924,4.249,IMU0,1.829268292682927,-2.3170731707317076,16.463414634146343,0.0146484375,0.0224609375,-0.0751953125
925,4.249,IMU1,4.390243902439025,-2.0121951219512195,15.30487804878049,-0.0078125,0.021484375,-0.083984375
926,4.259,IMU0,2.0121951219512195,-1.0975609756097562,20.182926829268293,0.013671875,0.0146484375,-0.0849609375
927,4.259,IMU1,3.780487804878049,1.2804878048780488,19.02439024390244,-0.0185546875,0.009765625,-0.0869140625
928,4.269,IMU0,1.524390243902439,3.231707317073171,22.378048780487806,0.0078125,0.00390625,-0.078125
929,4.269,IMU1,3.414634146341464,1.829268292682927,19.085365853658537,-0.013671875,0.0078125,-0.078125
930,4.279,IMU0,1.0975609756097562,-0.6707317073170732,21.646341463414636,0.0009765625,0.0185546875,-0.056640625
931,4.279,IMU1,3.4756097560975614,-3.8414634146341466,19.390243902439025,-0.0166015625,0.0126953125,-0.064453125
932,4.289,IMU0,1.2804878048780488,-4.75609756097561,22.865853658536587,0.00390625,0.021484375,-0.0478515625
933,4.289,IMU1,3.4756097560975614,-3.4756097560975614,20.731707317073173,-0.0185546875,0.021484375,-0.0556640625
934,4.299,IMU0,1.5853658536585367,-3.1707317073170733,27.80487804878049,0.005859375,0.0146484375,-0.0400390625
935,4.299,IMU1,2.682926829268293,0.9146341463414634,27.439024390243905,-0.017578125,0.0205078125,-0.04296875
936,4.309,IMU0,0.3658536585365854,-0.12195121951219513,32.31707317073171,-0.001953125,0.0107421875,-0.0166015625
937,4.309,IMU1,2.1951219512195124,1.829268292682927,30.121951219512198,-0.0205078125,0.01953125,-0.017578125
938,4.319,IMU0,-0.3658536585365854,-1.1585365853658538,35.0609756097561,-0.015625,0.0185546875,0.0029296875
939,4.319,IMU1,1.9512195121951221,0.5487804878048781,32.31707317073171,-0.0234375,0.025390625,-0.00390625
940,4.329,IMU0,-0.9146341463414634,-1.0975609756097562,38.78048780487805,-0.0244140625,0.01171875,0.0068359375
941,4.329,IMU1,0.6707317073170732,0.3658536585365854,35.91463414634147,-0.0361328125,0.0107421875,0.0
942,4.339,IMU0,-0.06097560975609757,-1.524390243902439,43.10975609756098,-0.041015625,0.0166015625,0.00390625
943,4.339,IMU1,0.5487804878048781,0.6097560975609757,39.69512195121951,-0.0546875,0.00390625,-0.0048828125
944,4.349,IMU0,2.1341463414634148,-3.4756097560975614,47.37804878048781,-0.0458984375,0.0458984375,0.005859375
945,4.349,IMU1,1.5853658536585367,-1.0975609756097562,44.57317073170732,-0.06640625,0.01953125,-0.0048828125
946,4.359,IMU0,1.829268292682927,-3.8414634146341466,50.97560975609756,-0.0654296875,0.064453125,0.0078125
947,4.359,IMU1,2.5,-3.658536585365854,48.170731707317074,-0.091796875,0.0478515625,-0.0029296875
948,4.369,IMU0,0.7317073170731708,-0.9146341463414634,53.17073170731708,-0.0654296875,0.0458984375,-0.001953125
949,4.369,IMU1,1.3414634146341464,0.24390243902439027,51.646341463414636,-0.0869140625,0.04296875,-0.005859375
950,4.379,IMU0,1.524390243902439,-4.451219512195122,54.32926829268293,-0.08984375,0.0654296875,-0.0068359375
951,4.379,IMU1,2.439024390243903,-4.2682926829268295,51.82926829268293,-0.115234375,0.0625,-0.015625
952,4.389,IMU0,1.1585365853658538,-1.3414634146341464,55.243902439024396,-0.09375,0.05859375,0.0029296875
953,4.389,IMU1,1.707317073170732,-2.1341463414634148,55.97560975609757,-0.1103515625,0.0615234375,0.0068359375
954,4.399,IMU0,-1.7682926829268295,-1.4634146341463417,54.75609756097561,-0.1103515625,0.0712890625,0.0146484375
955,4.399,IMU1,-0.5487804878048781,-1.1585365853658538,52.37804878048781,-0.1396484375,0.083984375,0.009765625
956,4.409,IMU0,-0.1829268292682927,-3.963414634146342,53.17073170731708,-0.16015625,0.1064453125,0.0107421875
957,4.409,IMU1,1.9512195121951221,-5.609756097560976,53.84146341463415,-0.18359375,0.1162109375,0.0048828125
958,4.419,IMU0,0.5487804878048781,-3.231707317073171,56.28048780487806,-0.1689453125,0.125,0.0
959,4.419,IMU1,1.8902439024390245,-2.0121951219512195,53.23170731707317,-0.1923828125,0.126953125,-0.0068359375
960,4.429,IMU0,-0.426829268292683,-3.353658536585366,51.524390243902445,-0.2255859375,0.15234375,-0.01171875
961,4.429,IMU1,0.9756097560975611,-4.390243902439025,50.0609756097561,-0.2529296875,0.15625,-0.0205078125
962,4.439,IMU0,1.0975609756097562,-4.390243902439025,52.43902439024391,-0.2275390625,0.19140625,-0.0107421875
963,4.439,IMU1,2.1951219512195124,-2.6219512195121952,50.1829268292683,-0.2431640625,0.1875,-0.0146484375
964,4.449,IMU0,-0.12195121951219513,-0.853658536585366,49.268292682926834,-0.234375,0.2099609375,-0.0126953125
965,4.449,IMU1,0.9756097560975611,-0.9146341463414634,47.37804878048781,-0.259765625,0.2099609375,-0.0234375
966,4.459,IMU0,0.6097560975609757,-2.25609756097561,47.926829268292686,-0.201171875,0.2294921875,-0.0087890625
967,4.459,IMU1,0.9146341463414634,-1.1585365853658538,45.36585365853659,-0.216796875,0.2275390625,-0.0146484375
968,4.469,IMU0,-0.5487804878048781,1.3414634146341464,45.36585365853659,-0.140625,0.22265625,-0.013671875
969,4.469,IMU1,0.24390243902439027,1.4634146341463417,43.29268292682927,-0.1611328125,0.2236328125,-0.0224609375
970,4.479,IMU0,-0.7317073170731708,-1.402439024390244,45.00000000000001,-0.056640625,0.2041015625,-0.0068359375
971,4.479,IMU1,-0.426829268292683,-0.6707317073170732,42.25609756097561,-0.0830078125,0.2021484375,-0.013671875
972,4.489,IMU0,-1.0975609756097562,1.829268292682927,43.170731707317074,0.009765625,0.1845703125,-0.0126953125
973,4.489,IMU1,0.1829268292682927,1.7682926829268295,41.03658536585366,-0.0146484375,0.1787109375,-0.0224609375
974,4.499,IMU0,-0.6707317073170732,-2.5,43.90243902439025,0.068359375,0.1533203125,-0.013671875
975,4.499,IMU1,0.9146341463414634,-2.682926829268293,40.97560975609756,0.041015625,0.150390625,-0.0185546875
976,4.509,IMU0,1.524390243902439,-0.3658536585365854,42.804878048780495,0.1220703125,0.111328125,-0.0107421875
977,4.509,IMU1,3.048780487804878,0.1829268292682927,40.60975609756098,0.09765625,0.111328125,-0.017578125
978,4.519,IMU0,2.8658536585365857,-3.1097560975609757,44.024390243902445,0.150390625,0.05859375,-0.013671875
979,4.519,IMU1,3.9024390243902443,-3.414634146341464,42.5609756097561,0.125,0.0625,-0.0205078125
980,4.529,IMU0,1.2195121951219514,-1.2804878048780488,42.5609756097561,0.171875,0.0126953125,-0.0107421875
981,4.529,IMU1,3.4756097560975614,-1.7682926829268295,40.97560975609756,0.150390625,0.0146484375,-0.0185546875
982,4.539,IMU0,-1.402439024390244,-1.707317073170732,42.926829268292686,0.150390625,-0.015625,-0.009765625
983,4.539,IMU1,0.6707317073170732,-1.6463414634146343,40.1219512195122,0.1318359375,-0.0205078125,-0.015625
984,4.549,IMU0,-1.7682926829268295,-1.524390243902439,42.13414634146342,0.1318359375,-0.0146484375,-0.0029296875
985,4.549,IMU1,-0.1829268292682927,-1.0365853658536586,40.304878048780495,0.1123046875,-0.025390625,-0.009765625
986,4.559,IMU0,-1.402439024390244,-3.2926829268292686,40.1829268292683,0.109375,-0.0107421875,-0.001953125
987,4.559,IMU1,-0.7317073170731708,-3.048780487804878,37.6219512195122,0.0849609375,-0.01953125,-0.005859375
988,4.569,IMU0,-0.6707317073170732,-1.7682926829268295,39.08536585365854,0.091796875,-0.0029296875,0.0
989,4.569,IMU1,-0.48780487804878053,-1.6463414634146343,36.28048780487805,0.0693359375,-0.009765625,-0.0029296875
990,4.579,IMU0,1.3414634146341464,-3.2926829268292686,39.207317073170735,0.0703125,0.013671875,-0.0048828125
991,4.579,IMU1,1.1585365853658538,-2.6219512195121952,36.09756097560976,0.046875,0.01171875,-0.0068359375
992,4.589,IMU0,2.1341463414634148,-3.1707317073170733,38.47560975609756,0.0634765625,0.021484375,-0.001953125
993,4.589,IMU1,2.987804878048781,-3.1097560975609757,36.09756097560976,0.0400390625,0.021484375,-0.0068359375
994,4.599,IMU0,0.5487804878048781,-1.829268292682927,35.79268292682927,0.06640625,0.017578125,-0.009765625
995,4.599,IMU1,2.378048780487805,-2.3170731707317076,34.146341463414636,0.044921875,0.01953125,-0.013671875
996,4.609,IMU0,-0.6097560975609757,-1.0365853658536586,35.73170731707317,0.0712890625,0.0205078125,-0.0205078125
997,4.609,IMU1,1.3414634146341464,-1.1585365853658538,33.47560975609756,0.048828125,0.01953125,-0.0283203125
998,4.619,IMU0,-0.9146341463414634,-1.524390243902439,35.1219512195122,0.072265625,0.025390625,-0.0478515625
999,4.619,IMU1,0.6097560975609757,-1.1585365853658538,33.963414634146346,0.052734375,0.025390625,-0.052734375
1000,4.629,IMU0,-1.8902439024390245,-2.073170731707317,33.90243902439025,0.0771484375,0.01953125,-0.1005859375
1001,4.629,IMU1,-0.3658536585365854,-1.7682926829268295,32.926829268292686,0.0546875,0.015625,-0.1025390625
1002,4.639,IMU0,-2.1341463414634148,-1.524390243902439,33.170731707317074,0.076171875,0.0107421875,-0.1591796875
1003,4.639,IMU1,-1.3414634146341464,-1.4634146341463417,30.914634146341466,0.0546875,0.00390625,-0.16015625
1004,4.649,IMU0,-0.9146341463414634,-1.4634146341463417,33.59756097560976,0.0771484375,0.00390625,-0.2119140625
1005,4.649,IMU1,-0.6097560975609757,-1.4634146341463417,31.219512195121954,0.056640625,-0.0029296875,-0.2138671875
1006,4.659,IMU0,0.30487804878048785,-1.402439024390244,33.29268292682927,0.0693359375,-0.0146484375,-0.263671875
1007,4.659,IMU1,0.1829268292682927,-1.0365853658536586,31.03658536585366,0.048828125,-0.01953125,-0.2646484375
1008,4.669,IMU0,0.30487804878048785,-2.073170731707317,32.43902439024391,0.0556640625,-0.0361328125,-0.2978515625
1009,4.669,IMU1,1.0365853658536586,-1.402439024390244,30.670731707317074,0.0361328125,-0.041015625,-0.30078125
1010,4.679,IMU0,0.12195121951219513,-2.3170731707317076,31.82926829268293,0.0478515625,-0.05078125,-0.3310546875
1011,4.679,IMU1,0.7926829268292683,-2.25609756097561,29.512195121951223,0.0263671875,-0.056640625,-0.3330078125
1012,4.689,IMU0,-0.06097560975609757,-2.1951219512195124,32.07317073170732,0.04296875,-0.060546875,-0.3662109375
1013,4.689,IMU1,1.0975609756097562,-2.25609756097561,29.939024390243905,0.0224609375,-0.068359375,-0.369140625
1014,4.699,IMU0,-0.6097560975609757,-2.25609756097561,30.243902439024392,0.037109375,-0.072265625,-0.390625
1015,4.699,IMU1,0.853658536585366,-2.1951219512195124,28.10975609756098,0.013671875,-0.07421875,-0.39453125
1016,4.709,IMU0,-0.5487804878048781,-1.3414634146341464,29.634146341463417,0.02734375,-0.064453125,-0.4091796875
1017,4.709,IMU1,0.853658536585366,-1.3414634146341464,27.500000000000004,0.0048828125,-0.0703125,-0.4140625
1018,4.719,IMU0,-0.24390243902439027,-1.2804878048780488,28.658536585365855,0.0146484375,-0.0517578125,-0.419921875
1019,4.719,IMU1,1.3414634146341464,-0.9146341463414634,26.951219512195124,-0.005859375,-0.0556640625,-0.4248046875
1020,4.729,IMU0,0.48780487804878053,-1.2195121951219514,27.987804878048784,0.021484375,-0.0361328125,-0.4248046875
1021,4.729,IMU1,1.5853658536585367,-0.9756097560975611,25.54878048780488,-0.0029296875,-0.0380859375,-0.4287109375
1022,4.739,IMU0,0.853658536585366,-1.0975609756097562,27.073170731707318,0.0341796875,-0.0166015625,-0.4248046875
1023,4.739,IMU1,1.707317073170732,-0.7317073170731708,25.000000000000004,0.009765625,-0.017578125,-0.4287109375
1024,4.749,IMU0,0.7317073170731708,-1.2195121951219514,26.646341463414636,0.0556640625,0.0029296875,-0.4228515625
1025,4.749,IMU1,1.4634146341463417,-1.0975609756097562,24.32926829268293,0.0361328125,0.0009765625,-0.4287109375
1026,4.759,IMU0,0.06097560975609757,-0.9756097560975611,25.853658536585368,0.0810546875,0.017578125,-0.4208984375
1027,4.759,IMU1,1.0365853658536586,-0.6707317073170732,23.658536585365855,0.0615234375,0.0146484375,-0.4267578125
1028,4.769,IMU0,-0.6097560975609757,-0.30487804878048785,25.0609756097561,0.1064453125,0.0244140625,-0.421875
1029,4.769,IMU1,0.48780487804878053,-0.48780487804878053,22.743902439024392,0.0849609375,0.0244140625,-0.427734375
1030,4.779,IMU0,-0.853658536585366,0.12195121951219513,24.634146341463417,0.1240234375,0.029296875,-0.4228515625
1031,4.779,IMU1,0.5487804878048781,0.426829268292683,22.500000000000004,0.1025390625,0.025390625,-0.4287109375
1032,4.789,IMU0,-0.7926829268292683,-0.1829268292682927,24.02439024390244,0.1376953125,0.0302734375,-0.4208984375
1033,4.789,IMU1,0.3658536585365854,-0.06097560975609757,21.951219512195124,0.115234375,0.02734375,-0.42578125
1034,4.799,IMU0,-0.30487804878048785,-0.426829268292683,23.719512195121954,0.1455078125,0.0302734375,-0.4189453125
1035,4.799,IMU1,0.9756097560975611,-0.24390243902439027,21.585365853658537,0.1240234375,0.025390625,-0.423828125
1036,4.809,IMU0,0.6707317073170732,-0.6707317073170732,23.353658536585368,0.1455078125,0.02734375,-0.421875
1037,4.809,IMU1,1.829268292682927,-0.24390243902439027,21.402439024390247,0.1240234375,0.0205078125,-0.4267578125
1038,4.819,IMU0,1.2804878048780488,-0.9756097560975611,22.98780487804878,0.1435546875,0.021484375,-0.41796875
1039,4.819,IMU1,2.5,-0.6707317073170732,20.79268292682927,0.1220703125,0.0166015625,-0.423828125
1040,4.829,IMU0,1.829268292682927,-1.0975609756097562,22.80487804878049,0.1357421875,0.01953125,-0.408203125
1041,4.829,IMU1,3.048780487804878,-0.9146341463414634,20.48780487804878,0.115234375,0.0146484375,-0.412109375
1042,4.839,IMU0,2.073170731707317,-1.2195121951219514,22.073170731707318,0.12890625,0.0205078125,-0.376953125
1043,4.839,IMU1,3.231707317073171,-1.1585365853658538,19.695121951219512,0.109375,0.0146484375,-0.3798828125
1044,4.849,IMU0,2.073170731707317,-1.402439024390244,21.52439024390244,0.1220703125,0.0185546875,-0.357421875
1045,4.849,IMU1,3.231707317073171,-1.2804878048780488,19.02439024390244,0.1025390625,0.0126953125,-0.361328125
1046,4.859,IMU0,1.829268292682927,-1.3414634146341464,20.426829268292686,0.1123046875,0.015625,-0.3447265625
1047,4.859,IMU1,2.987804878048781,-1.1585365853658538,17.926829268292686,0.091796875,0.0107421875,-0.3505859375
1048,4.869,IMU0,1.5853658536585367,-1.524390243902439,20.426829268292686,0.1064453125,0.0126953125,-0.3369140625
1049,4.869,IMU1,2.804878048780488,-1.402439024390244,17.98780487804878,0.0869140625,0.0087890625,-0.3427734375
1050,4.879,IMU0,1.3414634146341464,-1.2804878048780488,19.451219512195124,0.103515625,0.009765625,-0.32421875
1051,4.879,IMU1,2.3170731707317076,-1.0975609756097562,17.073170731707318,0.0830078125,0.00390625,-0.3291015625
1052,4.889,IMU0,0.9756097560975611,-1.3414634146341464,18.475609756097562,0.0986328125,0.0029296875,-0.3173828125
1053,4.889,IMU1,2.073170731707317,-1.1585365853658538,16.097560975609756,0.0791015625,-0.001953125,-0.322265625
1054,4.899,IMU0,0.7926829268292683,-1.0365853658536586,17.865853658536587,0.0947265625,0.0,-0.30859375
1055,4.899,IMU1,1.707317073170732,-0.7317073170731708,15.79268292682927,0.07421875,-0.0029296875,-0.3134765625
1056,4.909,IMU0,0.853658536585366,-1.0365853658536586,17.25609756097561,0.0908203125,0.0009765625,-0.302734375
1057,4.909,IMU1,1.829268292682927,-0.6707317073170732,15.121951219512196,0.0712890625,-0.0029296875,-0.30859375
1058,4.919,IMU0,0.853658536585366,-0.7317073170731708,16.585365853658537,0.0859375,0.0068359375,-0.298828125
1059,4.919,IMU1,1.8902439024390245,-0.426829268292683,14.26829268292683,0.064453125,0.001953125,-0.3037109375
1060,4.929,IMU0,1.2804878048780488,-0.7317073170731708,16.402439024390244,0.0849609375,0.013671875,-0.2919921875
1061,4.929,IMU1,2.378048780487805,-0.426829268292683,14.085365853658537,0.064453125,0.01171875,-0.296875
1062,4.939,IMU0,1.402439024390244,-0.48780487804878053,15.731707317073171,0.0810546875,0.01953125,-0.2841796875
1063,4.939,IMU1,2.5609756097560976,-0.24390243902439027,13.29268292682927,0.060546875,0.015625,-0.2890625
1064,4.949,IMU0,1.7682926829268295,-0.3658536585365854,15.060975609756099,0.0791015625,0.0205078125,-0.279296875
1065,4.949,IMU1,3.1707317073170733,-0.06097560975609757,12.865853658536587,0.060546875,0.0185546875,-0.2841796875
1066,4.959,IMU0,1.7682926829268295,-0.5487804878048781,14.451219512195124,0.0771484375,0.017578125,-0.2734375
1067,4.959,IMU1,3.2926829268292686,-0.12195121951219513,12.195121951219512,0.0576171875,0.0126953125,-0.2783203125
1068,4.969,IMU0,1.9512195121951221,-0.7926829268292683,14.329268292682928,0.078125,0.009765625,-0.2646484375
1069,4.969,IMU1,3.414634146341464,-0.48780487804878053,12.134146341463415,0.05859375,0.0048828125,-0.26953125
1070,4.979,IMU0,2.378048780487805,-0.3658536585365854,13.902439024390246,0.078125,0.001953125,-0.25390625
1071,4.979,IMU1,3.8414634146341466,-0.1829268292682927,11.646341463414634,0.056640625,-0.00390625,-0.2587890625
1072,4.989,IMU0,2.682926829268293,-0.3658536585365854,13.597560975609758,0.076171875,-0.0029296875,-0.2294921875
1073,4.989,IMU1,4.146341463414634,-0.06097560975609757,11.28048780487805,0.0546875,-0.0068359375,-0.234375
1074,4.999,IMU0,2.682926829268293,-0.853658536585366,12.926829268292684,0.080078125,-0.009765625,-0.2041015625
1075,4.999,IMU1,3.7195121951219514,-0.6097560975609757,10.609756097560977,0.0576171875,-0.0146484375,-0.208984375
1076,5.009,IMU0,2.5,-0.6097560975609757,12.439024390243903,0.08203125,-0.0146484375,-0.19140625
1077,5.009,IMU1,3.536585365853659,-0.30487804878048785,10.24390243902439,0.060546875,-0.01953125,-0.1953125
1078,5.019,IMU0,2.5,-0.6097560975609757,11.829268292682928,0.0830078125,-0.01171875,-0.1787109375
1079,5.019,IMU1,3.7195121951219514,-0.30487804878048785,9.695121951219512,0.060546875,-0.017578125,-0.18359375
1080,5.029,IMU0,2.073170731707317,-0.426829268292683,11.585365853658537,0.0869140625,-0.0107421875,-0.1455078125
1081,5.029,IMU1,3.353658536585366,-0.1829268292682927,9.329268292682928,0.06640625,-0.017578125,-0.150390625
1082,5.039,IMU0,1.2804878048780488,-0.24390243902439027,10.792682926829269,0.0927734375,-0.0146484375,-0.1220703125
1083,5.039,IMU1,2.6219512195121952,0.12195121951219513,8.475609756097562,0.07421875,-0.021484375,-0.126953125
1084,5.049,IMU0,0.3658536585365854,-0.24390243902439027,10.182926829268293,0.0986328125,-0.0205078125,-0.107421875
1085,5.049,IMU1,1.6463414634146343,0.06097560975609757,7.926829268292684,0.0791015625,-0.025390625,-0.111328125
1086,5.059,IMU0,0.06097560975609757,-0.3658536585365854,10.0,0.1005859375,-0.021484375,-0.0966796875
1087,5.059,IMU1,1.2804878048780488,-0.06097560975609757,7.621951219512196,0.080078125,-0.0263671875,-0.1005859375
1088,5.069,IMU0,0.3658536585365854,-0.30487804878048785,9.878048780487806,0.099609375,-0.025390625,-0.0869140625
1089,5.069,IMU1,1.707317073170732,0.0,7.378048780487806,0.080078125,-0.03125,-0.091796875
1090,5.079,IMU0,0.853658536585366,-0.3658536585365854,9.451219512195122,0.0966796875,-0.0244140625,-0.0712890625
1091,5.079,IMU1,2.25609756097561,-0.12195121951219513,6.890243902439025,0.07421875,-0.0283203125,-0.0751953125
1092,5.089,IMU0,0.7317073170731708,-0.48780487804878053,9.02439024390244,0.0947265625,-0.0205078125,-0.041015625
1093,5.089,IMU1,1.9512195121951221,-0.12195121951219513,6.707317073170732,0.07421875,-0.0244140625,-0.044921875
1094,5.099,IMU0,0.30487804878048785,-0.3658536585365854,8.597560975609756,0.0869140625,-0.0185546875,-0.01953125
1095,5.099,IMU1,1.6463414634146343,0.0,6.219512195121951,0.0673828125,-0.0234375,-0.0224609375
1096,5.109,IMU0,0.426829268292683,-0.1829268292682927,7.987804878048781,0.078125,-0.0146484375,-0.005859375
1097,5.109,IMU1,1.8902439024390245,0.1829268292682927,5.670731707317073,0.056640625,-0.0205078125,-0.009765625
1098,5.119,IMU0,0.426829268292683,-0.6097560975609757,7.926829268292684,0.076171875,-0.009765625,0.009765625
1099,5.119,IMU1,1.707317073170732,-0.1829268292682927,5.731707317073171,0.056640625,-0.0146484375,0.005859375
1100,5.129,IMU0,-0.12195121951219513,-0.5487804878048781,7.317073170731708,0.0712890625,-0.0087890625,0.0185546875
1101,5.129,IMU1,1.2195121951219514,-0.12195121951219513,5.182926829268293,0.048828125,-0.0126953125,0.0146484375
1102,5.139,IMU0,0.1829268292682927,-0.24390243902439027,6.829268292682928,0.068359375,-0.005859375,0.0185546875
1103,5.139,IMU1,1.5853658536585367,0.06097560975609757,4.75609756097561,0.0439453125,-0.0087890625,0.0126953125
1104,5.149,IMU0,0.6097560975609757,-0.3658536585365854,7.073170731707318,0.0654296875,0.001953125,0.0234375
1105,5.149,IMU1,1.8902439024390245,-0.12195121951219513,5.0,0.0439453125,-0.0029296875,0.017578125
1106,5.159,IMU0,1.0365853658536586,-0.9756097560975611,6.707317073170732,0.0634765625,0.00390625,0.0263671875
1107,5.159,IMU1,2.25609756097561,-0.7317073170731708,4.634146341463415,0.0419921875,0.0,0.021484375
1108,5.169,IMU0,1.524390243902439,-0.426829268292683,6.219512195121951,0.0595703125,0.005859375,0.0234375
1109,5.169,IMU1,2.9268292682926833,-0.24390243902439027,3.963414634146342,0.0380859375,0.0029296875,0.0185546875
1110,5.179,IMU0,2.0121951219512195,-0.6097560975609757,6.52439024390244,0.0537109375,0.0068359375,0.0322265625
1111,5.179,IMU1,3.1707317073170733,-0.30487804878048785,4.146341463414634,0.03125,0.0029296875,0.0263671875
1112,5.189,IMU0,1.8902439024390245,-0.5487804878048781,5.670731707317073,0.0517578125,0.0048828125,0.0341796875
1113,5.189,IMU1,3.1097560975609757,-0.24390243902439027,3.353658536585366,0.02734375,0.00390625,0.029296875
